
time,ax,ay,az,wx,wy,wz,
0.003,0.30,0.06,-0.32,-0.03,-0.02,-0.11,
0.003,0.19,0.11,-0.38,-0.03,-0.02,-0.11,
0.004,0.19,0.11,-0.38,-0.04,-0.00,-0.11,
0.004,0.19,0.11,-0.38,-0.04,0.01,-0.10,
0.004,0.07,0.13,-0.42,-0.04,0.01,-0.10,
0.004,0.07,0.13,-0.42,-0.05,0.02,-0.10,
0.005,0.07,0.13,-0.42,-0.06,0.03,-0.09,
0.007,0.07,0.13,-0.42,-0.07,0.04,-0.08,
0.008,-0.05,0.13,-0.45,-0.07,0.04,-0.08,
0.011,-0.05,0.13,-0.45,-0.07,0.04,-0.07,
0.012,-0.05,0.13,-0.45,-0.08,0.04,-0.06,
0.013,-0.12,0.14,-0.40,-0.08,0.04,-0.06,
0.022,-0.12,0.14,-0.40,-0.08,0.04,-0.05,
0.022,-0.12,0.14,-0.40,-0.08,0.04,-0.04,
0.022,-0.15,0.13,-0.31,-0.08,0.04,-0.04,
0.022,-0.15,0.13,-0.31,-0.08,0.04,-0.03,
0.022,-0.15,0.13,-0.31,-0.08,0.03,-0.02,
0.023,-0.13,0.11,-0.20,-0.08,0.03,-0.02,
0.024,-0.13,0.11,-0.20,-0.08,0.03,-0.02,
0.028,-0.13,0.11,-0.20,-0.07,0.02,-0.01,
0.029,-0.12,0.07,-0.05,-0.07,0.02,-0.01,
0.03,-0.12,0.07,-0.05,-0.06,0.01,-0.00,
0.032,-0.12,0.07,-0.05,-0.05,0.01,0.00,
0.033,-0.08,0.01,0.06,-0.05,0.01,0.00,
0.035,-0.08,0.01,0.06,-0.04,-0.00,0.00,
0.037,-0.05,-0.04,0.20,-0.04,-0.00,0.00,
0.037,-0.05,-0.04,0.20,-0.02,-0.01,0.01,
0.04,-0.05,-0.04,0.20,-0.01,-0.01,0.01,
0.042,-0.05,-0.04,0.20,0.00,-0.02,0.01,
0.042,0.01,-0.07,0.26,0.00,-0.02,0.01,
0.044,0.01,-0.07,0.26,0.02,-0.02,0.01,
0.047,0.01,-0.07,0.26,0.03,-0.02,0.01,
0.047,0.05,-0.09,0.25,0.03,-0.02,0.01,
0.05,0.05,-0.09,0.25,0.04,-0.02,0.01,
0.052,0.05,-0.09,0.25,0.05,-0.02,0.00,
0.052,0.13,-0.10,0.21,0.05,-0.02,0.00,
0.055,0.13,-0.10,0.21,0.06,-0.02,0.01,
0.057,0.13,-0.10,0.21,0.06,-0.01,0.00,
0.057,0.16,-0.07,0.13,0.06,-0.01,0.00,
0.063,0.16,-0.07,0.13,0.07,-0.00,0.00,
0.063,0.16,-0.07,0.13,0.07,0.00,-0.00,
0.067,0.16,-0.04,0.06,0.07,0.00,-0.00,
0.067,0.16,-0.04,0.06,0.07,0.01,-0.00,
0.067,0.16,-0.04,0.06,0.07,0.02,-0.01,
0.068,0.18,-0.03,0.00,0.07,0.02,-0.01,
0.069,0.18,-0.03,0.00,0.07,0.02,-0.01,
0.077,0.18,-0.03,0.00,0.06,0.03,-0.01,
0.077,0.18,-0.03,0.00,0.06,0.03,-0.01,
0.078,0.16,-0.04,0.02,0.06,0.03,-0.01,
0.078,0.11,-0.00,0.02,0.06,0.03,-0.01,
0.078,0.11,-0.00,0.02,0.06,0.03,-0.01,
0.079,0.11,-0.00,0.02,0.05,0.04,-0.01,
0.082,0.11,-0.00,0.02,0.05,0.04,-0.01,
0.083,0.09,0.00,0.04,0.05,0.04,-0.01,
0.084,0.09,0.00,0.04,0.05,0.04,-0.00,
0.087,0.09,0.00,0.04,0.04,0.03,-0.00,
0.087,0.05,0.04,0.05,0.04,0.03,-0.00,
0.089,0.05,0.04,0.05,0.04,0.03,-0.00,
0.092,0.05,0.04,0.05,0.03,0.03,0.00,
0.092,0.05,0.01,0.02,0.03,0.03,0.00,
0.094,0.05,0.01,0.02,0.03,0.02,0.00,
0.097,0.05,0.01,0.02,0.02,0.02,0.00,
0.097,0.09,0.01,-0.01,0.02,0.02,0.00,
0.099,0.09,0.01,-0.01,0.01,0.01,0.00,
0.102,0.09,0.01,-0.01,0.00,0.00,0.00,
0.102,0.13,0.02,-0.05,0.00,0.00,0.00,
0.104,0.13,0.02,-0.05,-0.01,-0.00,0.00,
0.107,0.13,0.02,-0.05,-0.02,-0.01,0.00,
0.107,0.14,0.02,-0.04,-0.02,-0.01,0.00,
0.109,0.14,0.02,-0.04,-0.03,-0.02,0.00,
0.111,0.14,0.02,-0.04,-0.04,-0.03,0.00,
0.112,0.17,0.03,-0.05,-0.04,-0.03,0.00,
0.114,0.17,0.03,-0.05,-0.05,-0.03,0.00,
0.117,0.17,0.03,-0.05,-0.05,-0.04,-0.00,
0.118,0.18,0.00,-0.03,-0.05,-0.04,-0.00,
0.119,0.18,0.00,-0.03,-0.06,-0.05,-0.00,
0.121,0.18,0.00,-0.03,-0.06,-0.06,-0.00,
0.121,0.16,-0.00,-0.01,-0.06,-0.06,-0.00,
0.124,0.16,-0.00,-0.01,-0.07,-0.06,-0.00,
0.126,0.16,-0.00,-0.01,-0.07,-0.07,-0.00,
0.127,0.19,0.02,0.01,-0.07,-0.07,-0.00,
0.129,0.19,0.02,0.01,-0.07,-0.07,-0.00,
0.131,0.19,0.02,0.01,-0.07,-0.07,-0.01,
0.132,0.18,0.00,0.02,-0.07,-0.07,-0.01,
0.134,0.18,0.00,0.02,-0.08,-0.07,-0.00,
0.136,0.18,0.00,0.02,-0.08,-0.08,-0.00,
0.136,0.19,0.03,0.04,-0.08,-0.08,-0.00,
0.141,0.19,0.03,0.04,-0.08,-0.08,-0.00,
0.142,0.19,0.03,0.04,-0.07,-0.08,-0.00,
0.142,0.15,0.04,0.08,-0.07,-0.08,-0.00,
0.144,0.15,0.04,0.08,-0.07,-0.08,-0.00,
0.146,0.15,0.04,0.08,-0.07,-0.08,-0.00,
0.146,0.14,0.05,0.07,-0.07,-0.08,-0.00,
0.149,0.14,0.05,0.07,-0.06,-0.08,-0.00,
0.152,0.14,0.05,0.07,-0.06,-0.07,0.00,
0.152,0.14,0.05,0.09,-0.06,-0.07,0.00,
0.154,0.14,0.05,0.09,-0.05,-0.07,0.00,
0.156,0.14,0.05,0.09,-0.05,-0.07,0.01,
0.156,0.14,0.05,0.09,-0.05,-0.07,0.01,
0.158,0.14,0.05,0.09,-0.05,-0.06,0.01,
0.161,0.14,0.05,0.09,-0.04,-0.06,0.01,
0.161,0.15,0.04,0.07,-0.04,-0.06,0.01,
0.164,0.15,0.04,0.07,-0.04,-0.05,0.01,
0.166,0.15,0.04,0.07,-0.04,-0.04,0.00,
0.166,0.17,0.03,0.06,-0.04,-0.04,0.00,
0.168,0.17,0.03,0.06,-0.03,-0.04,0.01,
0.173,0.17,0.03,0.06,-0.03,-0.03,0.00,
0.173,0.19,0.01,0.06,-0.03,-0.03,0.00,
0.173,0.19,0.01,0.06,-0.02,-0.03,0.00,
0.176,0.17,0.01,0.05,-0.02,-0.03,0.00,
0.181,0.17,0.01,0.05,-0.02,-0.02,-0.00,
0.181,0.17,0.01,0.05,-0.02,-0.02,-0.00,
0.183,0.17,0.01,0.05,-0.01,-0.01,-0.00,
0.183,0.16,0.02,0.05,-0.01,-0.01,-0.00,
0.184,0.16,0.02,0.05,-0.01,-0.00,-0.01,
0.187,0.13,0.03,0.06,-0.01,-0.00,-0.01,
0.188,0.13,0.03,0.06,-0.00,-0.00,-0.01,
0.189,0.13,0.03,0.06,0.00,0.01,-0.01,
0.191,0.13,0.03,0.06,0.00,0.01,-0.02,
0.192,0.10,0.05,0.05,0.00,0.01,-0.02,
0.196,0.10,0.05,0.05,0.01,0.02,-0.02,
0.21,0.10,0.05,0.05,0.01,0.02,-0.02,
0.21,0.09,0.07,0.07,0.01,0.02,-0.02,
0.21,0.09,0.07,0.07,0.01,0.03,-0.02,
0.21,0.09,0.07,0.07,0.01,0.03,-0.02,
0.211,0.06,0.08,0.08,0.01,0.03,-0.02,
0.211,0.06,0.08,0.08,0.02,0.03,-0.02,
0.211,0.03,0.11,0.12,0.02,0.03,-0.02,
0.211,0.03,0.11,0.12,0.02,0.03,-0.02,
0.211,0.03,0.11,0.12,0.02,0.03,-0.02,
0.212,0.03,0.11,0.12,0.02,0.03,-0.02,
0.212,0.01,0.12,0.15,0.02,0.03,-0.02,
0.213,0.01,0.12,0.15,0.02,0.03,-0.02,
0.216,0.01,0.12,0.15,0.02,0.03,-0.02,
0.216,0.00,0.12,0.15,0.02,0.03,-0.02,
0.219,0.00,0.12,0.15,0.02,0.02,-0.02,
0.221,-0.00,0.10,0.14,0.02,0.02,-0.02,
0.221,-0.00,0.10,0.14,0.02,0.02,-0.02,
0.223,-0.00,0.10,0.14,0.02,0.02,-0.02,
0.226,-0.00,0.10,0.14,0.02,0.01,-0.02,
0.226,0.00,0.09,0.13,0.02,0.01,-0.02,
0.231,-0.00,0.07,0.12,0.02,0.01,-0.02,
0.231,-0.00,0.07,0.12,0.02,0.01,-0.02,
0.231,-0.00,0.07,0.12,0.02,0.01,-0.02,
0.233,-0.00,0.07,0.12,0.02,0.00,-0.02,
0.235,-0.00,0.07,0.12,0.02,-0.00,-0.02,
0.236,-0.01,0.07,0.12,0.02,-0.00,-0.02,
0.241,0.00,0.05,0.12,0.02,-0.00,-0.02,
0.241,0.00,0.05,0.12,0.02,-0.01,-0.03,
0.241,0.00,0.05,0.12,0.02,-0.01,-0.03,
0.243,0.00,0.05,0.12,0.03,-0.02,-0.03,
0.246,0.01,0.04,0.12,0.03,-0.02,-0.03,
0.247,0.01,0.04,0.12,0.02,-0.02,-0.03,
0.253,0.01,0.04,0.12,0.02,-0.02,-0.03,
0.253,0.01,0.05,0.12,0.02,-0.02,-0.03,
0.253,0.01,0.05,0.12,0.02,-0.02,-0.03,
0.253,0.01,0.05,0.12,0.02,-0.03,-0.03,
0.255,0.03,0.02,0.13,0.02,-0.03,-0.03,
0.256,0.03,0.02,0.13,0.02,-0.03,-0.04,
0.261,0.03,0.02,0.13,0.02,-0.03,-0.04,
0.261,0.03,0.02,0.13,0.02,-0.03,-0.04,
0.261,0.02,0.01,0.10,0.02,-0.03,-0.04,
0.264,0.02,0.01,0.10,0.02,-0.04,-0.04,
0.265,0.02,0.01,0.10,0.01,-0.04,-0.04,
0.266,0.03,-0.01,0.11,0.01,-0.04,-0.04,
0.268,0.03,-0.01,0.11,0.01,-0.04,-0.04,
0.271,0.03,-0.01,0.11,0.01,-0.05,-0.04,
0.271,0.04,-0.03,0.09,0.01,-0.05,-0.04,
0.273,0.04,-0.03,0.09,0.01,-0.05,-0.04,
0.275,0.04,-0.03,0.09,0.01,-0.05,-0.05,
0.275,0.07,-0.07,0.07,0.01,-0.05,-0.05,
0.279,0.07,-0.07,0.07,0.01,-0.05,-0.05,
0.28,0.08,-0.08,-0.01,0.01,-0.05,-0.05,
0.28,0.08,-0.08,-0.01,0.01,-0.05,-0.05,
0.283,0.08,-0.08,-0.01,0.00,-0.05,-0.05,
0.285,0.15,-0.09,-0.07,0.00,-0.05,-0.05,
0.286,0.15,-0.09,-0.07,0.00,-0.05,-0.05,
0.288,0.15,-0.09,-0.07,0.00,-0.05,-0.06,
0.29,0.15,-0.11,-0.15,0.00,-0.05,-0.06,
0.29,0.15,-0.11,-0.15,-0.00,-0.05,-0.06,
0.292,0.15,-0.11,-0.15,-0.01,-0.05,-0.06,
0.295,0.13,-0.17,-0.25,-0.01,-0.05,-0.06,
0.295,0.13,-0.17,-0.25,-0.01,-0.05,-0.07,
0.297,0.13,-0.17,-0.25,-0.02,-0.04,-0.08,
0.3,0.13,-0.17,-0.25,-0.03,-0.03,-0.08,
0.3,0.13,-0.23,-0.38,-0.03,-0.03,-0.08,
0.302,0.13,-0.23,-0.38,-0.04,-0.02,-0.09,
0.305,0.16,-0.18,-0.31,-0.04,-0.02,-0.09,
0.305,0.16,-0.18,-0.31,-0.04,-0.02,-0.10,
0.308,0.16,-0.18,-0.31,-0.05,-0.02,-0.11,
0.31,0.11,-0.12,-0.37,-0.05,-0.02,-0.11,
0.31,0.11,-0.12,-0.37,-0.05,-0.02,-0.12,
0.312,0.11,-0.12,-0.37,-0.06,-0.02,-0.13,
0.315,0.10,-0.07,-0.42,-0.06,-0.02,-0.13,
0.315,0.10,-0.07,-0.42,-0.06,-0.01,-0.13,
0.317,0.10,-0.07,-0.42,-0.07,-0.01,-0.14,
0.32,-0.00,-0.05,-0.42,-0.07,-0.01,-0.14,
0.321,-0.00,-0.05,-0.42,-0.08,-0.00,-0.15,
0.322,-0.00,-0.05,-0.42,-0.08,0.01,-0.15,
0.325,0.01,-0.03,-0.38,-0.08,0.01,-0.15,
0.325,0.01,-0.03,-0.38,-0.09,0.02,-0.15,
0.328,0.01,-0.03,-0.38,-0.10,0.03,-0.16,
0.33,0.06,0.03,-0.39,-0.10,0.03,-0.16,
0.33,0.06,0.03,-0.39,-0.10,0.03,-0.16,
0.333,0.06,0.03,-0.39,-0.11,0.03,-0.17,
0.336,0.06,0.03,-0.39,-0.12,0.02,-0.17,
0.337,0.03,0.00,-0.48,-0.12,0.02,-0.17,
0.338,0.03,0.00,-0.48,-0.13,0.01,-0.18,
0.34,-0.17,-0.38,-0.83,-0.13,0.01,-0.18,
0.34,-0.17,-0.38,-0.83,-0.15,0.02,-0.19,
0.342,-0.17,-0.38,-0.83,-0.17,0.04,-0.20,
0.345,-0.04,-0.46,-0.97,-0.17,0.04,-0.20,
0.345,-0.04,-0.46,-0.97,-0.19,0.06,-0.21,
0.347,-0.04,-0.46,-0.97,-0.21,0.08,-0.22,
0.35,-0.04,-0.46,-0.97,-0.23,0.11,-0.23,
0.35,-0.01,-0.30,-0.96,-0.23,0.11,-0.23,
0.353,-0.01,-0.30,-0.96,-0.25,0.13,-0.24,
0.354,-0.07,-0.11,-0.85,-0.25,0.13,-0.24,
0.355,-0.07,-0.11,-0.85,-0.27,0.14,-0.25,
0.357,-0.07,-0.11,-0.85,-0.27,0.14,-0.26,
0.359,-0.14,0.09,-0.77,-0.27,0.14,-0.26,
0.371,-0.14,0.09,-0.77,-0.28,0.13,-0.26,
0.371,-0.14,0.09,-0.77,-0.29,0.12,-0.26,
0.372,-0.31,0.20,-0.75,-0.29,0.12,-0.26,
0.372,-0.31,0.20,-0.75,-0.29,0.10,-0.26,
0.372,-0.31,0.20,-0.75,-0.29,0.08,-0.25,
0.372,-0.53,0.28,-0.86,-0.29,0.08,-0.25,
0.372,-0.53,0.28,-0.86,-0.29,0.07,-0.25,
0.372,-0.53,0.28,-0.86,-0.30,0.07,-0.24,
0.374,-0.93,-0.19,-1.69,-0.30,0.07,-0.24,
0.375,-0.93,-0.19,-1.69,-0.31,0.12,-0.23,
0.385,-0.93,-0.19,-1.69,-0.32,0.22,-0.23,
0.385,-0.97,-0.23,-1.81,-0.32,0.22,-0.23,
0.385,-0.97,-0.23,-1.81,-0.34,0.28,-0.21,
0.386,-0.97,-0.23,-1.81,-0.36,0.33,-0.19,
0.386,-0.97,-0.23,-1.81,-0.38,0.36,-0.16,
0.386,-0.92,0.21,-1.40,-0.38,0.36,-0.16,
0.387,-0.92,0.21,-1.40,-0.38,0.39,-0.12,
0.389,-0.92,0.21,-1.40,-0.38,0.42,-0.08,
0.39,-1.02,0.75,-1.15,-0.38,0.42,-0.08,
0.395,-1.02,0.75,-1.15,-0.37,0.44,-0.03,
0.395,-1.18,1.11,-1.09,-0.37,0.44,-0.03,
0.396,-1.18,1.11,-1.09,-0.36,0.46,0.02,
0.398,-1.18,1.11,-1.09,-0.34,0.47,0.07,
0.399,-1.18,1.11,-1.09,-0.32,0.48,0.12,
0.4,-1.29,1.28,-1.17,-0.32,0.48,0.12,
0.402,-1.29,1.28,-1.17,-0.29,0.49,0.18,
0.406,-1.34,1.33,-1.27,-0.29,0.49,0.18,
0.406,-1.34,1.33,-1.27,-0.27,0.50,0.24,
0.41,-1.34,1.33,-1.27,-0.25,0.52,0.30,
0.41,-1.34,1.33,-1.27,-0.22,0.54,0.37,
0.41,-1.40,1.32,-1.33,-0.22,0.54,0.37,
0.412,-1.40,1.32,-1.33,-0.20,0.58,0.43,
0.414,-1.28,1.19,-1.40,-0.20,0.58,0.43,
0.414,-1.28,1.19,-1.40,-0.17,0.63,0.49,
0.418,-1.28,1.19,-1.40,-0.14,0.69,0.56,
0.419,-1.28,1.19,-1.40,-0.11,0.78,0.61,
0.419,-0.98,1.01,-1.58,-0.11,0.78,0.61,
0.424,-0.98,1.01,-1.58,-0.08,0.87,0.66,
0.425,-0.47,0.75,-1.79,-0.08,0.87,0.66,
0.425,-0.47,0.75,-1.79,-0.05,0.97,0.71,
0.426,-0.47,0.75,-1.79,-0.01,1.09,0.74,
0.431,-0.47,0.75,-1.79,0.02,1.21,0.76,
0.433,0.03,0.50,-2.06,0.02,1.21,0.76,
0.434,0.03,0.50,-2.06,0.06,1.33,0.77,
0.434,0.03,0.50,-2.06,0.10,1.45,0.78,
0.435,0.56,0.27,-2.19,0.10,1.45,0.78,
0.437,0.56,0.27,-2.19,0.15,1.57,0.77,
0.439,0.56,0.27,-2.19,0.20,1.69,0.76,
0.439,0.99,0.07,-2.28,0.20,1.69,0.76,
0.442,0.99,0.07,-2.28,0.25,1.81,0.74,
0.444,0.99,0.07,-2.28,0.31,1.92,0.71,
0.444,1.25,-0.11,-2.48,0.31,1.92,0.71,
0.447,1.25,-0.11,-2.48,0.36,2.03,0.68,
0.45,1.38,-0.25,-2.75,0.36,2.03,0.68,
0.45,1.38,-0.25,-2.75,0.42,2.14,0.64,
0.451,1.38,-0.25,-2.75,0.47,2.25,0.59,
0.454,1.38,-0.25,-2.75,0.51,2.37,0.54,
0.454,1.66,-0.45,-3.24,0.51,2.37,0.54,
0.456,1.66,-0.45,-3.24,0.55,2.50,0.48,
0.459,1.66,-0.45,-3.24,0.59,2.63,0.42,
0.46,1.80,-0.46,-3.68,0.59,2.63,0.42,
0.462,1.80,-0.46,-3.68,0.61,2.76,0.36,
0.464,1.80,-0.46,-3.68,0.64,2.88,0.31,
0.464,1.43,-0.46,-3.93,0.64,2.88,0.31,
0.466,1.43,-0.46,-3.93,0.67,2.99,0.26,
0.469,1.43,-0.46,-3.93,0.70,3.10,0.23,
0.469,1.08,-0.43,-4.01,0.70,3.10,0.23,
0.472,1.08,-0.43,-4.01,0.72,3.19,0.20,
0.477,1.08,-0.43,-4.01,0.76,3.27,0.18,
0.478,1.08,-0.43,-4.01,0.80,3.33,0.17,
0.478,0.77,-0.07,-3.88,0.80,3.33,0.17,
0.481,0.77,-0.07,-3.88,0.84,3.36,0.17,
0.481,0.24,-0.07,-3.45,0.84,3.36,0.17,
0.482,0.24,-0.07,-3.45,0.89,3.33,0.17,
0.483,0.24,-0.07,-3.45,0.95,3.25,0.18,
0.484,-0.20,-0.47,-2.52,0.95,3.25,0.18,
0.486,-0.20,-0.47,-2.52,1.02,3.13,0.20,
0.491,-0.69,-0.92,-2.56,1.02,3.13,0.20,
0.493,-1.14,-1.33,-3.12,1.02,3.13,0.20,
0.494,-1.14,-1.33,-3.12,1.08,3.02,0.22,
0.494,-1.14,-1.33,-3.12,1.15,2.92,0.24,
0.494,-1.14,-1.33,-3.12,1.22,2.84,0.26,
0.5,-1.14,-1.33,-3.12,1.28,2.76,0.29,
0.5,-1.62,-1.61,-3.28,1.28,2.76,0.29,
0.5,-1.62,-1.61,-3.28,1.34,2.68,0.32,
0.502,-1.62,-1.61,-3.28,1.40,2.60,0.35,
0.504,-2.31,-1.94,-3.03,1.40,2.60,0.35,
0.505,-2.31,-1.94,-3.03,1.46,2.54,0.37,
0.506,-2.31,-1.94,-3.03,1.52,2.51,0.38,
0.509,-2.31,-1.94,-3.03,1.57,2.48,0.38,
0.509,-1.97,-2.19,-2.71,1.57,2.48,0.38,
0.511,-1.97,-2.19,-2.71,1.62,2.47,0.37,
0.518,-1.97,-2.19,-2.71,1.67,2.45,0.36,
0.518,-1.97,-2.19,-2.71,1.72,2.42,0.34,
0.518,-1.03,-2.26,-2.52,1.72,2.42,0.34,
0.521,-1.03,-2.26,-2.52,1.76,2.39,0.31,
0.521,-0.49,-2.32,-2.40,1.76,2.39,0.31,
0.522,-0.49,-2.32,-2.40,1.78,2.35,0.28,
0.524,-0.49,-2.32,-2.40,1.79,2.29,0.23,
0.524,-0.00,-2.50,-2.36,1.79,2.29,0.23,
0.539,0.29,-2.62,-2.58,1.79,2.29,0.23,
0.539,0.29,-2.62,-2.58,1.78,2.22,0.18,
0.539,0.29,-2.62,-2.58,1.74,2.15,0.12,
0.542,0.29,-2.62,-2.58,1.68,2.10,0.06,
0.542,0.29,-2.62,-2.58,1.61,2.09,-0.00,
0.542,0.29,-2.62,-2.58,1.51,2.14,-0.08,
0.543,0.29,-2.62,-2.58,1.40,2.24,-0.16,
0.543,0.18,-2.76,-3.39,1.40,2.24,-0.16,
0.543,0.03,-2.78,-4.18,1.40,2.24,-0.16,
0.543,0.03,-2.78,-4.18,1.27,2.36,-0.23,
0.552,0.03,-2.78,-4.18,1.14,2.49,-0.29,
0.553,0.03,-2.78,-4.18,1.00,2.60,-0.35,
0.553,-0.02,-2.53,-4.48,1.00,2.60,-0.35,
0.553,-0.02,-2.53,-4.48,0.86,2.69,-0.39,
0.553,0.07,-2.22,-4.39,0.86,2.69,-0.39,
0.561,0.07,-2.22,-4.39,0.73,2.74,-0.42,
0.563,0.07,-2.22,-4.39,0.61,2.76,-0.44,
0.563,0.07,-2.22,-4.39,0.50,2.74,-0.45,
0.563,0.35,-1.95,-3.99,0.50,2.74,-0.45,
0.563,0.35,-1.95,-3.99,0.42,2.68,-0.46,
0.563,0.81,-1.71,-3.26,0.42,2.68,-0.46,
0.564,0.81,-1.71,-3.26,0.34,2.59,-0.46,
0.564,1.19,-1.55,-2.60,0.34,2.59,-0.46,
0.564,1.19,-1.55,-2.60,0.28,2.47,-0.46,
0.579,1.19,-1.55,-2.60,0.24,2.33,-0.47,
0.579,1.30,-1.55,-2.32,0.24,2.33,-0.47,
0.579,1.30,-1.55,-2.32,0.19,2.17,-0.48,
0.579,1.30,-1.55,-2.32,0.15,2.01,-0.49,
0.579,1.30,-1.55,-2.32,0.12,1.84,-0.51,
0.579,1.22,-1.80,-2.17,0.12,1.84,-0.51,
0.58,1.22,-1.80,-2.17,0.08,1.66,-0.54,
0.58,0.91,-2.15,-2.39,0.08,1.66,-0.54,
0.58,0.91,-2.15,-2.39,0.05,1.51,-0.57,
0.581,0.91,-2.15,-2.39,0.01,1.39,-0.62,
0.584,0.91,-2.15,-2.39,-0.02,1.28,-0.67,
0.585,0.71,-2.57,-2.66,-0.02,1.28,-0.67,
0.585,0.71,-2.57,-2.66,-0.07,1.19,-0.73,
0.589,0.57,-2.91,-2.81,-0.07,1.19,-0.73,
0.589,0.57,-2.91,-2.81,-0.11,1.12,-0.79,
0.59,0.57,-2.91,-2.81,-0.15,1.06,-0.86,
0.593,0.57,-2.91,-2.81,-0.20,1.01,-0.93,
0.593,0.55,-3.13,-2.90,-0.20,1.01,-0.93,
0.597,0.55,-3.13,-2.90,-0.25,0.98,-1.00,
0.6,0.53,-3.22,-3.28,-0.25,0.98,-1.00,
0.6,0.53,-3.22,-3.28,-0.30,0.99,-1.07,
0.6,0.53,-3.22,-3.28,-0.35,1.03,-1.13,
0.602,0.43,-3.13,-3.98,-0.35,1.03,-1.13,
0.603,0.43,-3.13,-3.98,-0.41,1.11,-1.19,
0.606,0.43,-3.13,-3.98,-0.47,1.22,-1.24,
0.608,0.25,-2.91,-4.50,-0.47,1.22,-1.24,
0.608,0.25,-2.91,-4.50,-0.53,1.35,-1.29,
0.61,0.25,-2.91,-4.50,-0.59,1.48,-1.33,
0.615,-0.07,-2.69,-4.69,-0.59,1.48,-1.33,
0.616,-0.07,-2.69,-4.69,-0.65,1.61,-1.36,
0.616,-0.07,-2.69,-4.69,-0.71,1.75,-1.38,
0.617,-0.56,-2.49,-4.61,-0.71,1.75,-1.38,
0.617,-0.56,-2.49,-4.61,-0.78,1.89,-1.40,
0.62,-0.56,-2.49,-4.61,-0.85,2.01,-1.40,
0.622,-0.62,-2.24,-4.36,-0.85,2.01,-1.40,
0.623,-0.62,-2.24,-4.36,-0.92,2.10,-1.40,
0.625,-0.62,-2.24,-4.36,-0.99,2.17,-1.39,
0.627,-0.62,-2.24,-4.36,-1.06,2.22,-1.38,
0.631,-0.58,-2.06,-4.04,-1.06,2.22,-1.38,
0.632,-0.58,-2.06,-4.04,-1.12,2.26,-1.37,
0.632,-0.61,-2.04,-3.66,-1.12,2.26,-1.37,
0.632,-0.61,-2.04,-3.66,-1.18,2.29,-1.36,
0.634,-0.61,-2.04,-3.66,-1.23,2.31,-1.35,
0.637,-0.79,-2.15,-3.24,-1.23,2.31,-1.35,
0.637,-0.79,-2.15,-3.24,-1.28,2.33,-1.34,
0.639,-0.79,-2.15,-3.24,-1.32,2.35,-1.33,
0.643,-0.79,-2.15,-3.24,-1.36,2.38,-1.33,
0.643,-1.06,-2.31,-2.93,-1.36,2.38,-1.33,
0.644,-1.06,-2.31,-2.93,-1.39,2.41,-1.33,
0.658,-1.24,-2.52,-2.66,-1.39,2.41,-1.33,
0.658,-1.24,-2.52,-2.66,-1.43,2.44,-1.33,
0.658,-1.24,-2.52,-2.66,-1.46,2.46,-1.34,
0.658,-1.24,-2.52,-2.66,-1.48,2.48,-1.36,
0.659,-1.33,-2.71,-2.29,-1.48,2.48,-1.36,
0.659,-1.33,-2.71,-2.29,-1.51,2.49,-1.37,
0.659,-1.40,-2.88,-1.81,-1.51,2.49,-1.37,
0.659,-1.40,-2.88,-1.81,-1.52,2.48,-1.39,
0.659,-1.40,-2.88,-1.81,-1.53,2.47,-1.41,
0.663,-1.40,-2.88,-1.81,-1.54,2.45,-1.43,
0.663,-1.50,-2.98,-1.29,-1.54,2.45,-1.43,
0.667,-1.50,-2.98,-1.29,-1.55,2.42,-1.45,
0.668,-1.50,-2.98,-1.29,-1.55,2.38,-1.46,
0.668,-1.64,-3.12,-0.86,-1.55,2.38,-1.46,
0.669,-1.64,-3.12,-0.86,-1.54,2.34,-1.48,
0.672,-1.64,-3.12,-0.86,-1.54,2.30,-1.50,
0.672,-1.73,-3.28,-0.61,-1.54,2.30,-1.50,
0.674,-1.73,-3.28,-0.61,-1.53,2.26,-1.51,
0.677,-1.73,-3.28,-0.61,-1.52,2.22,-1.52,
0.677,-1.73,-3.43,-0.52,-1.52,2.22,-1.52,
0.679,-1.73,-3.43,-0.52,-1.50,2.19,-1.54,
0.683,-1.73,-3.43,-0.52,-1.49,2.15,-1.56,
0.684,-1.73,-3.43,-0.52,-1.48,2.12,-1.58,
0.684,-1.59,-3.53,-0.59,-1.48,2.12,-1.58,
0.687,-1.59,-3.53,-0.59,-1.46,2.09,-1.60,
0.687,-1.42,-3.58,-0.77,-1.46,2.09,-1.60,
0.689,-1.42,-3.58,-0.77,-1.45,2.06,-1.62,
0.708,-1.42,-3.58,-0.77,-1.45,2.04,-1.65,
0.708,-1.35,-3.61,-1.06,-1.45,2.04,-1.65,
0.708,-1.35,-3.61,-1.06,-1.45,2.02,-1.68,
0.708,-1.35,-3.61,-1.06,-1.44,2.01,-1.70,
0.708,-1.29,-3.60,-1.29,-1.44,2.01,-1.70,
0.709,-1.29,-3.60,-1.29,-1.45,2.01,-1.73,
0.709,-1.29,-3.60,-1.29,-1.45,2.01,-1.76,
0.709,-1.24,-3.51,-1.54,-1.45,2.01,-1.76,
0.71,-1.24,-3.51,-1.54,-1.46,2.03,-1.79,
0.71,-1.22,-3.57,-2.09,-1.46,2.03,-1.79,
0.71,-1.22,-3.57,-2.09,-1.47,2.08,-1.82,
0.711,-1.22,-3.57,-2.09,-1.47,2.20,-1.85,
0.713,-1.20,-3.64,-2.45,-1.47,2.20,-1.85,
0.714,-1.20,-3.64,-2.45,-1.46,2.33,-1.89,
0.714,-1.20,-3.64,-2.45,-1.46,2.39,-1.91,
0.716,-1.18,-3.38,-1.69,-1.46,2.39,-1.91,
0.717,-1.18,-3.38,-1.69,-1.47,2.39,-1.94,
0.719,-1.18,-3.38,-1.69,-1.48,2.36,-1.96,
0.722,-1.18,-3.38,-1.69,-1.50,2.34,-1.98,
0.722,-1.14,-3.29,-1.56,-1.50,2.34,-1.98,
0.724,-1.14,-3.29,-1.56,-1.52,2.36,-1.99,
0.727,-1.14,-3.29,-1.56,-1.54,2.38,-2.00,
0.728,-1.10,-3.40,-1.61,-1.54,2.38,-2.00,
0.733,-1.22,-3.59,-1.43,-1.54,2.38,-2.00,
0.733,-1.22,-3.59,-1.43,-1.56,2.40,-2.01,
0.733,-1.22,-3.59,-1.43,-1.59,2.40,-2.01,
0.734,-1.22,-3.59,-1.43,-1.62,2.39,-2.01,
0.736,-1.48,-3.86,-1.45,-1.62,2.39,-2.01,
0.737,-1.48,-3.86,-1.45,-1.65,2.37,-2.01,
0.739,-1.48,-3.86,-1.45,-1.67,2.34,-2.00,
0.742,-1.48,-3.86,-1.45,-1.70,2.30,-2.00,
0.742,-1.69,-4.14,-1.20,-1.70,2.30,-2.00,
0.745,-1.69,-4.14,-1.20,-1.72,2.26,-2.00,
0.757,-1.73,-4.35,-0.96,-1.72,2.26,-2.00,
0.758,-1.64,-4.48,-0.75,-1.72,2.26,-2.00,
0.758,-1.54,-4.55,-0.57,-1.72,2.26,-2.00,
0.758,-1.54,-4.55,-0.57,-1.73,2.21,-2.00,
0.758,-1.54,-4.55,-0.57,-1.74,2.16,-2.01,
0.758,-1.54,-4.55,-0.57,-1.74,2.12,-2.02,
0.758,-1.54,-4.55,-0.57,-1.74,2.08,-2.03,
0.758,-1.54,-4.55,-0.57,-1.73,2.03,-2.04,
0.761,-1.54,-4.55,-0.57,-1.72,1.98,-2.06,
0.762,-1.54,-4.55,-0.57,-1.71,1.94,-2.08,
0.762,-1.44,-4.60,-0.46,-1.71,1.94,-2.08,
0.766,-1.44,-4.60,-0.46,-1.69,1.90,-2.10,
0.767,-1.32,-4.64,-0.38,-1.69,1.90,-2.10,
0.771,-1.32,-4.64,-0.38,-1.67,1.87,-2.13,
0.771,-1.32,-4.64,-0.38,-1.65,1.84,-2.16,
0.772,-1.32,-4.64,-0.38,-1.63,1.81,-2.18,
0.772,-1.22,-4.68,-0.36,-1.63,1.81,-2.18,
0.774,-1.22,-4.68,-0.36,-1.61,1.79,-2.21,
0.777,-1.21,-4.76,-0.41,-1.61,1.79,-2.21,
0.777,-1.21,-4.76,-0.41,-1.58,1.77,-2.24,
0.781,-1.21,-4.76,-0.41,-1.56,1.75,-2.26,
0.781,-1.21,-4.76,-0.41,-1.54,1.74,-2.29,
0.782,-1.25,-4.84,-0.45,-1.54,1.74,-2.29,
0.784,-1.25,-4.84,-0.45,-1.52,1.72,-2.31,
0.786,-1.25,-4.84,-0.45,-1.51,1.71,-2.33,
0.787,-1.29,-4.95,-0.47,-1.51,1.71,-2.33,
0.789,-1.29,-4.95,-0.47,-1.49,1.70,-2.35,
0.791,-1.31,-5.05,-0.53,-1.49,1.70,-2.35,
0.792,-1.31,-5.05,-0.53,-1.48,1.69,-2.38,
0.793,-1.31,-5.05,-0.53,-1.47,1.68,-2.39,
0.798,-1.31,-5.05,-0.53,-1.46,1.67,-2.42,
0.798,-1.34,-5.12,-0.64,-1.46,1.67,-2.42,
0.8,-1.34,-5.12,-0.64,-1.46,1.67,-2.43,
0.801,-1.38,-5.17,-0.80,-1.46,1.67,-2.43,
0.802,-1.38,-5.17,-0.80,-1.46,1.68,-2.45,
0.803,-1.38,-5.17,-0.80,-1.47,1.68,-2.47,
0.806,-1.50,-5.21,-0.96,-1.47,1.68,-2.47,
0.806,-1.50,-5.21,-0.96,-1.48,1.68,-2.49,
0.808,-1.50,-5.21,-0.96,-1.50,1.70,-2.51,
0.811,-1.61,-5.28,-1.08,-1.50,1.70,-2.51,
0.812,-1.61,-5.28,-1.08,-1.52,1.71,-2.53,
0.813,-1.61,-5.28,-1.08,-1.54,1.73,-2.55,
0.816,-1.61,-5.28,-1.08,-1.57,1.74,-2.57,
0.817,-1.70,-5.34,-1.18,-1.57,1.74,-2.57,
0.818,-1.70,-5.34,-1.18,-1.61,1.76,-2.59,
0.821,-1.83,-5.39,-1.30,-1.61,1.76,-2.59,
0.821,-1.83,-5.39,-1.30,-1.64,1.79,-2.61,
0.823,-1.83,-5.39,-1.30,-1.69,1.81,-2.62,
0.826,-1.98,-5.45,-1.38,-1.69,1.81,-2.62,
0.826,-1.98,-5.45,-1.38,-1.73,1.84,-2.64,
0.833,-1.98,-5.45,-1.38,-1.78,1.87,-2.65,
0.833,-1.98,-5.45,-1.38,-1.83,1.91,-2.66,
0.833,-2.20,-5.48,-1.42,-1.83,1.91,-2.66,
0.834,-2.20,-5.48,-1.42,-1.88,1.95,-2.68,
0.835,-2.20,-5.48,-1.42,-1.94,1.99,-2.68,
0.835,-2.47,-5.54,-1.38,-1.94,1.99,-2.68,
0.838,-2.47,-5.54,-1.38,-1.99,2.03,-2.68,
0.843,-2.47,-5.54,-1.38,-2.05,2.07,-2.69,
0.844,-2.75,-5.61,-1.26,-2.05,2.07,-2.69,
0.844,-2.75,-5.61,-1.26,-2.11,2.12,-2.69,
0.859,-2.75,-5.61,-1.26,-2.16,2.17,-2.68,
0.86,-3.04,-5.72,-1.11,-2.16,2.17,-2.68,
0.86,-3.04,-5.72,-1.11,-2.21,2.22,-2.68,
0.86,-3.04,-5.72,-1.11,-2.26,2.27,-2.68,
0.864,-3.32,-5.86,-0.93,-2.26,2.27,-2.68,
0.864,-3.32,-5.86,-0.93,-2.31,2.33,-2.68,
0.864,-3.32,-5.86,-0.93,-2.36,2.39,-2.68,
0.877,-3.32,-5.86,-0.93,-2.40,2.45,-2.69,
0.877,-3.32,-5.86,-0.93,-2.44,2.51,-2.69,
0.877,-3.32,-5.86,-0.93,-2.48,2.57,-2.69,
0.877,-3.55,-6.00,-0.73,-2.48,2.57,-2.69,
0.878,-3.72,-6.16,-0.51,-2.48,2.57,-2.69,
0.878,-3.72,-6.16,-0.51,-2.51,2.64,-2.70,
0.878,-3.72,-6.16,-0.51,-2.54,2.71,-2.71,
0.878,-3.72,-6.16,-0.51,-2.56,2.78,-2.72,
0.878,-3.91,-6.28,-0.29,-2.56,2.78,-2.72,
0.878,-4.11,-6.39,-0.01,-2.56,2.78,-2.72,
0.879,-4.11,-6.39,-0.01,-2.59,2.85,-2.74,
0.879,-4.11,-6.39,-0.01,-2.61,2.92,-2.75,
0.879,-4.31,-6.45,0.35,-2.61,2.92,-2.75,
0.879,-4.31,-6.45,0.35,-2.62,2.98,-2.77,
0.88,-4.31,-6.45,0.35,-2.64,3.03,-2.79,
0.881,-4.53,-6.51,0.79,-2.64,3.03,-2.79,
0.883,-4.53,-6.51,0.79,-2.66,3.07,-2.81,
0.885,-4.81,-6.55,1.25,-2.66,3.07,-2.81,
0.886,-4.81,-6.55,1.25,-2.68,3.11,-2.83,
0.888,-4.81,-6.55,1.25,-2.70,3.14,-2.86,
0.89,-4.81,-6.55,1.25,-2.71,3.19,-2.88,
0.891,-5.09,-6.63,1.65,-2.71,3.19,-2.88,
0.892,-5.09,-6.63,1.65,-2.71,3.24,-2.91,
0.896,-5.29,-6.67,2.06,-2.71,3.24,-2.91,
0.896,-5.29,-6.67,2.06,-2.69,3.31,-2.94,
0.9,-5.29,-6.67,2.06,-2.67,3.37,-2.97,
0.901,-5.55,-6.63,2.53,-2.67,3.37,-2.97,
0.901,-5.55,-6.63,2.53,-2.64,3.44,-3.00,
0.904,-5.55,-6.63,2.53,-2.59,3.50,-3.04,
0.905,-5.55,-6.63,2.53,-2.53,3.56,-3.07,
0.905,-5.85,-6.51,3.05,-2.53,3.56,-3.07,
0.907,-5.85,-6.51,3.05,-2.47,3.62,-3.10,
0.911,-5.85,-6.51,3.05,-2.40,3.67,-3.14,
0.911,-6.20,-6.31,3.57,-2.40,3.67,-3.14,
0.912,-6.20,-6.31,3.57,-2.33,3.71,-3.17,
0.916,-6.20,-6.31,3.57,-2.26,3.75,-3.19,
0.916,-6.56,-6.11,4.05,-2.26,3.75,-3.19,
0.917,-6.56,-6.11,4.05,-2.18,3.78,-3.22,
0.92,-6.56,-6.11,4.05,-2.10,3.80,-3.25,
0.92,-6.87,-5.91,4.52,-2.10,3.80,-3.25,
0.922,-6.87,-5.91,4.52,-2.02,3.81,-3.27,
0.925,-6.87,-5.91,4.52,-1.95,3.82,-3.30,
0.925,-7.19,-5.74,4.90,-1.95,3.82,-3.30,
0.927,-7.19,-5.74,4.90,-1.87,3.82,-3.32,
0.931,-7.19,-5.74,4.90,-1.79,3.80,-3.35,
0.931,-7.52,-5.57,5.26,-1.79,3.80,-3.35,
0.932,-7.52,-5.57,5.26,-1.72,3.78,-3.38,
0.935,-7.52,-5.57,5.26,-1.64,3.75,-3.41,
0.935,-7.80,-5.40,5.65,-1.64,3.75,-3.41,
0.937,-7.80,-5.40,5.65,-1.57,3.70,-3.45,
0.94,-7.80,-5.40,5.65,-1.49,3.64,-3.48,
0.94,-7.92,-5.16,6.04,-1.49,3.64,-3.48,
0.942,-7.92,-5.16,6.04,-1.42,3.57,-3.52,
0.946,-7.92,-5.16,6.04,-1.36,3.49,-3.56,
0.948,-7.92,-5.16,6.04,-1.29,3.40,-3.60,
0.948,-7.84,-4.82,6.35,-1.29,3.40,-3.60,
0.95,-7.84,-4.82,6.35,-1.23,3.30,-3.64,
0.95,-7.69,-4.38,6.46,-1.23,3.30,-3.64,
0.952,-7.69,-4.38,6.46,-1.17,3.20,-3.68,
0.955,-7.69,-4.38,6.46,-1.12,3.10,-3.72,
0.955,-7.47,-3.90,6.47,-1.12,3.10,-3.72,
0.957,-7.47,-3.90,6.47,-1.07,2.99,-3.77,
0.96,-7.47,-3.90,6.47,-1.03,2.89,-3.81,
0.96,-7.25,-3.36,6.36,-1.03,2.89,-3.81,
0.962,-7.25,-3.36,6.36,-0.99,2.79,-3.85,
0.966,-7.04,-2.77,6.20,-0.99,2.79,-3.85,
0.966,-7.04,-2.77,6.20,-0.96,2.70,-3.88,
0.967,-7.04,-2.77,6.20,-0.93,2.61,-3.91,
0.97,-6.91,-2.18,6.05,-0.93,2.61,-3.91,
0.97,-6.91,-2.18,6.05,-0.92,2.53,-3.94,
0.972,-6.91,-2.18,6.05,-0.90,2.46,-3.96,
0.974,-6.91,-2.18,6.05,-0.89,2.39,-3.97,
0.975,-6.84,-1.59,5.93,-0.89,2.39,-3.97,
0.977,-6.84,-1.59,5.93,-0.89,2.33,-3.97,
0.999,-6.86,-1.01,5.88,-0.89,2.33,-3.97,
1.0,-6.86,-1.01,5.88,-0.89,2.27,-3.97,
1.0,-6.86,-1.01,5.88,-0.90,2.21,-3.96,
1.001,-6.86,-1.01,5.88,-0.90,2.15,-3.94,
1.001,-6.92,-0.42,5.89,-0.90,2.15,-3.94,
1.001,-6.92,-0.42,5.89,-0.90,2.09,-3.91,
1.001,-6.92,-0.42,5.89,-0.91,2.03,-3.88,
1.002,-7.08,0.16,5.97,-0.91,2.03,-3.88,
1.002,-7.08,0.16,5.97,-0.91,1.97,-3.83,
1.002,-7.08,0.16,5.97,-0.91,1.90,-3.78,
1.003,-7.27,0.71,6.15,-0.91,1.90,-3.78,
1.003,-7.27,0.71,6.15,-0.91,1.82,-3.72,
1.003,-7.49,1.26,6.40,-0.91,1.82,-3.72,
1.003,-7.49,1.26,6.40,-0.90,1.74,-3.65,
1.004,-7.49,1.26,6.40,-0.90,1.66,-3.57,
1.007,-7.70,1.79,6.66,-0.90,1.66,-3.57,
1.007,-7.70,1.79,6.66,-0.89,1.57,-3.49,
1.007,-7.70,1.79,6.66,-0.87,1.47,-3.40,
1.009,-7.70,1.79,6.66,-0.85,1.37,-3.30,
1.009,-7.81,2.25,6.93,-0.85,1.37,-3.30,
1.011,-7.81,2.25,6.93,-0.83,1.27,-3.20,
1.017,-7.90,2.67,7.19,-0.83,1.27,-3.20,
1.017,-7.90,2.67,7.19,-0.80,1.16,-3.09,
1.018,-7.90,2.67,7.19,-0.77,1.05,-2.98,
1.019,-7.96,3.02,7.36,-0.77,1.05,-2.98,
1.019,-7.96,3.02,7.36,-0.73,0.93,-2.86,
1.035,-7.96,3.02,7.36,-0.69,0.81,-2.75,
1.035,-7.96,3.02,7.36,-0.65,0.69,-2.63,
1.036,-7.94,3.28,7.42,-0.65,0.69,-2.63,
1.036,-7.94,3.28,7.42,-0.60,0.57,-2.51,
1.036,-7.82,3.47,7.37,-0.60,0.57,-2.51,
1.037,-7.82,3.47,7.37,-0.55,0.45,-2.39,
1.037,-7.82,3.47,7.37,-0.50,0.33,-2.27,
1.037,-7.82,3.47,7.37,-0.45,0.22,-2.16,
1.037,-7.63,3.60,7.16,-0.45,0.22,-2.16,
1.038,-7.63,3.60,7.16,-0.40,0.10,-2.05,
1.041,-7.36,3.68,6.87,-0.40,0.10,-2.05,
1.042,-7.36,3.68,6.87,-0.36,-0.01,-1.94,
1.042,-7.36,3.68,6.87,-0.31,-0.12,-1.83,
1.044,-7.36,3.68,6.87,-0.27,-0.22,-1.73,
1.044,-7.04,3.71,6.49,-0.27,-0.22,-1.73,
1.047,-7.04,3.71,6.49,-0.23,-0.32,-1.63,
1.049,-6.71,3.71,6.07,-0.23,-0.32,-1.63,
1.049,-6.71,3.71,6.07,-0.19,-0.41,-1.54,
1.051,-6.71,3.71,6.07,-0.15,-0.49,-1.45,
1.054,-6.36,3.69,5.63,-0.15,-0.49,-1.45,
1.054,-6.36,3.69,5.63,-0.12,-0.58,-1.37,
1.056,-6.36,3.69,5.63,-0.09,-0.65,-1.29,
1.061,-6.36,3.69,5.63,-0.07,-0.73,-1.22,
1.062,-6.36,3.69,5.63,-0.04,-0.80,-1.15,
1.062,-6.00,3.66,5.21,-0.04,-0.80,-1.15,
1.066,-6.00,3.66,5.21,-0.03,-0.86,-1.09,
1.069,-5.66,3.60,4.79,-0.03,-0.86,-1.09,
1.069,-5.66,3.60,4.79,-0.01,-0.92,-1.03,
1.069,-5.33,3.54,4.35,-0.01,-0.92,-1.03,
1.07,-5.33,3.54,4.35,-0.00,-0.97,-0.98,
1.072,-5.33,3.54,4.35,0.01,-1.03,-0.93,
1.074,-5.01,3.47,3.92,0.01,-1.03,-0.93,
1.074,-5.01,3.47,3.92,0.01,-1.08,-0.89,
1.076,-5.01,3.47,3.92,0.01,-1.12,-0.84,
1.08,-4.71,3.44,3.54,0.01,-1.12,-0.84,
1.08,-4.71,3.44,3.54,0.00,-1.16,-0.80,
1.098,-4.71,3.44,3.54,-0.01,-1.19,-0.77,
1.098,-4.71,3.44,3.54,-0.02,-1.22,-0.73,
1.098,-4.44,3.42,3.18,-0.02,-1.22,-0.73,
1.098,-4.44,3.42,3.18,-0.03,-1.25,-0.70,
1.099,-4.44,3.42,3.18,-0.04,-1.28,-0.68,
1.099,-4.21,3.40,2.85,-0.04,-1.28,-0.68,
1.099,-4.21,3.40,2.85,-0.05,-1.30,-0.65,
1.099,-4.21,3.40,2.85,-0.07,-1.31,-0.63,
1.099,-3.99,3.41,2.56,-0.07,-1.31,-0.63,
1.099,-3.99,3.41,2.56,-0.08,-1.33,-0.60,
1.099,-3.99,3.41,2.56,-0.10,-1.34,-0.58,
1.1,-3.80,3.45,2.31,-0.10,-1.34,-0.58,
1.103,-3.80,3.45,2.31,-0.12,-1.35,-0.56,
1.105,-3.80,3.45,2.31,-0.13,-1.36,-0.54,
1.105,-3.68,3.50,2.11,-0.13,-1.36,-0.54,
1.107,-3.68,3.50,2.11,-0.15,-1.37,-0.53,
1.109,-3.68,3.50,2.11,-0.17,-1.37,-0.51,
1.11,-3.55,3.57,1.90,-0.17,-1.37,-0.51,
1.111,-3.55,3.57,1.90,-0.19,-1.38,-0.49,
1.118,-3.45,3.61,1.72,-0.19,-1.38,-0.49,
1.118,-3.45,3.61,1.72,-0.21,-1.38,-0.47,
1.118,-3.45,3.61,1.72,-0.23,-1.39,-0.46,
1.119,-3.37,3.66,1.58,-0.23,-1.39,-0.46,
1.119,-3.37,3.66,1.58,-0.25,-1.39,-0.44,
1.121,-3.37,3.66,1.58,-0.27,-1.40,-0.43,
1.123,-3.37,3.66,1.58,-0.29,-1.40,-0.40,
1.124,-3.34,3.74,1.47,-0.29,-1.40,-0.40,
1.125,-3.34,3.74,1.47,-0.32,-1.40,-0.39,
1.128,-3.32,3.79,1.37,-0.32,-1.40,-0.39,
1.128,-3.32,3.79,1.37,-0.34,-1.41,-0.37,
1.133,-3.32,3.79,1.37,-0.36,-1.41,-0.35,
1.134,-3.30,3.83,1.28,-0.36,-1.41,-0.35,
1.135,-3.30,3.83,1.28,-0.38,-1.42,-0.33,
1.136,-3.30,3.83,1.28,-0.40,-1.42,-0.30,
1.138,-3.30,3.83,1.28,-0.42,-1.43,-0.28,
1.138,-3.29,3.80,1.19,-0.42,-1.43,-0.28,
1.141,-3.29,3.80,1.19,-0.44,-1.43,-0.27,
1.143,-3.29,3.80,1.19,-0.46,-1.44,-0.25,
1.144,-3.30,3.74,1.09,-0.46,-1.44,-0.25,
1.145,-3.30,3.74,1.09,-0.48,-1.44,-0.23,
1.149,-3.30,3.74,1.09,-0.50,-1.44,-0.22,
1.15,-3.30,3.65,0.99,-0.50,-1.44,-0.22,
1.151,-3.30,3.65,0.99,-0.52,-1.45,-0.20,
1.153,-3.30,3.59,0.89,-0.52,-1.45,-0.20,
1.153,-3.30,3.59,0.89,-0.54,-1.45,-0.19,
1.155,-3.30,3.59,0.89,-0.55,-1.45,-0.18,
1.158,-3.30,3.59,0.89,-0.56,-1.46,-0.16,
1.158,-3.25,3.53,0.80,-0.56,-1.46,-0.16,
1.163,-3.19,3.51,0.74,-0.56,-1.46,-0.16,
1.17,-3.19,3.51,0.74,-0.58,-1.46,-0.16,
1.182,-3.19,3.51,0.74,-0.59,-1.46,-0.15,
1.182,-3.19,3.51,0.74,-0.60,-1.46,-0.14,
1.183,-3.19,3.51,0.74,-0.61,-1.46,-0.14,
1.183,-3.08,3.52,0.70,-0.61,-1.46,-0.14,
1.183,-3.08,3.52,0.70,-0.62,-1.46,-0.14,
1.184,-3.08,3.52,0.70,-0.62,-1.45,-0.13,
1.184,-2.98,3.55,0.66,-0.62,-1.45,-0.13,
1.184,-2.98,3.55,0.66,-0.62,-1.45,-0.13,
1.185,-2.98,3.55,0.66,-0.63,-1.45,-0.14,
1.185,-2.98,3.55,0.66,-0.63,-1.44,-0.14,
1.185,-2.88,3.60,0.59,-0.63,-1.44,-0.14,
1.186,-2.88,3.60,0.59,-0.63,-1.44,-0.14,
1.186,-2.76,3.66,0.51,-0.63,-1.44,-0.14,
1.186,-2.76,3.66,0.51,-0.63,-1.43,-0.15,
1.205,-2.76,3.66,0.51,-0.63,-1.42,-0.16,
1.205,-2.63,3.72,0.44,-0.63,-1.42,-0.16,
1.205,-2.63,3.72,0.44,-0.63,-1.41,-0.17,
1.205,-2.63,3.72,0.44,-0.63,-1.40,-0.17,
1.206,-2.52,3.81,0.37,-0.63,-1.40,-0.17,
1.206,-2.52,3.81,0.37,-0.63,-1.39,-0.18,
1.206,-2.43,3.90,0.30,-0.63,-1.39,-0.18,
1.206,-2.43,3.90,0.30,-0.63,-1.37,-0.19,
1.207,-2.43,3.90,0.30,-0.63,-1.35,-0.19,
1.207,-2.43,3.90,0.30,-0.63,-1.33,-0.20,
1.207,-2.33,4.00,0.22,-0.63,-1.33,-0.20,
1.207,-2.33,4.00,0.22,-0.62,-1.31,-0.21,
1.208,-2.33,4.00,0.22,-0.63,-1.28,-0.21,
1.208,-2.27,4.06,0.17,-0.63,-1.28,-0.21,
1.215,-2.27,4.06,0.17,-0.63,-1.25,-0.21,
1.215,-2.24,4.12,0.14,-0.63,-1.25,-0.21,
1.215,-2.24,4.12,0.14,-0.62,-1.22,-0.22,
1.215,-2.24,4.12,0.14,-0.62,-1.19,-0.22,
1.218,-2.24,4.12,0.14,-0.62,-1.16,-0.22,
1.218,-2.22,4.15,0.14,-0.62,-1.16,-0.22,
1.22,-2.22,4.15,0.14,-0.62,-1.13,-0.23,
1.223,-2.25,4.19,0.16,-0.62,-1.13,-0.23,
1.223,-2.25,4.19,0.16,-0.61,-1.10,-0.23,
1.225,-2.25,4.19,0.16,-0.61,-1.07,-0.24,
1.227,-2.29,4.20,0.18,-0.61,-1.07,-0.24,
1.228,-2.29,4.20,0.18,-0.60,-1.04,-0.24,
1.23,-2.29,4.20,0.18,-0.59,-1.02,-0.24,
1.236,-2.34,4.21,0.23,-0.59,-1.02,-0.24,
1.236,-2.34,4.21,0.23,-0.58,-0.99,-0.25,
1.236,-2.34,4.21,0.23,-0.57,-0.97,-0.25,
1.237,-2.40,4.23,0.24,-0.57,-0.97,-0.25,
1.238,-2.40,4.23,0.24,-0.56,-0.95,-0.26,
1.241,-2.40,4.23,0.24,-0.54,-0.92,-0.27,
1.243,-2.40,4.23,0.24,-0.52,-0.90,-0.27,
1.243,-2.47,4.26,0.24,-0.52,-0.90,-0.27,
1.248,-2.47,4.26,0.24,-0.50,-0.87,-0.28,
1.248,-2.47,4.26,0.24,-0.48,-0.85,-0.28,
1.248,-2.54,4.27,0.29,-0.48,-0.85,-0.28,
1.251,-2.54,4.27,0.29,-0.46,-0.82,-0.28,
1.252,-2.54,4.27,0.29,-0.43,-0.79,-0.28,
1.252,-2.62,4.29,0.29,-0.43,-0.79,-0.28,
1.254,-2.62,4.29,0.29,-0.40,-0.76,-0.29,
1.257,-2.62,4.29,0.29,-0.38,-0.73,-0.29,
1.257,-2.68,4.30,0.31,-0.38,-0.73,-0.29,
1.259,-2.68,4.30,0.31,-0.34,-0.70,-0.29,
1.262,-2.68,4.30,0.31,-0.31,-0.67,-0.29,
1.263,-2.72,4.30,0.33,-0.31,-0.67,-0.29,
1.266,-2.72,4.30,0.33,-0.28,-0.63,-0.29,
1.269,-2.72,4.30,0.33,-0.25,-0.60,-0.29,
1.27,-2.77,4.29,0.35,-0.25,-0.60,-0.29,
1.27,-2.77,4.29,0.35,-0.21,-0.56,-0.29,
1.272,-2.82,4.29,0.35,-0.21,-0.56,-0.29,
1.272,-2.82,4.29,0.35,-0.18,-0.53,-0.29,
1.274,-2.82,4.29,0.35,-0.15,-0.50,-0.29,
1.279,-2.82,4.29,0.35,-0.11,-0.46,-0.29,
1.279,-2.87,4.30,0.35,-0.11,-0.46,-0.29,
1.279,-2.87,4.30,0.35,-0.07,-0.43,-0.28,
1.286,-2.87,4.30,0.35,-0.04,-0.39,-0.28,
1.287,-2.91,4.33,0.31,-0.04,-0.39,-0.28,
1.287,-2.91,4.33,0.31,-0.01,-0.36,-0.28,
1.287,-2.91,4.33,0.31,0.03,-0.32,-0.27,
1.287,-2.91,4.36,0.26,0.03,-0.32,-0.27,
1.29,-2.91,4.36,0.26,0.06,-0.29,-0.26,
1.292,-2.91,4.36,0.26,0.09,-0.25,-0.26,
1.292,-2.95,4.39,0.23,0.09,-0.25,-0.26,
1.295,-2.95,4.39,0.23,0.12,-0.21,-0.25,
1.297,-2.95,4.39,0.23,0.15,-0.17,-0.24,
1.298,-2.98,4.39,0.16,0.15,-0.17,-0.24,
1.301,-2.98,4.39,0.16,0.18,-0.13,-0.23,
1.302,-3.01,4.38,0.13,0.18,-0.13,-0.23,
1.302,-3.01,4.38,0.13,0.21,-0.09,-0.22,
1.305,-3.01,4.38,0.13,0.24,-0.05,-0.21,
1.307,-3.01,4.38,0.13,0.27,-0.01,-0.19,
1.307,-3.05,4.37,0.09,0.27,-0.01,-0.19,
1.309,-3.05,4.37,0.09,0.29,0.03,-0.18,
1.312,-3.05,4.37,0.09,0.32,0.08,-0.17,
1.313,-3.09,4.34,0.09,0.32,0.08,-0.17,
1.316,-3.09,4.34,0.09,0.34,0.12,-0.16,
1.317,-3.09,4.34,0.09,0.36,0.15,-0.14,
1.317,-3.09,4.30,0.06,0.36,0.15,-0.14,
1.319,-3.09,4.30,0.06,0.38,0.20,-0.13,
1.322,-3.09,4.30,0.06,0.40,0.23,-0.12,
1.322,-3.07,4.28,0.07,0.40,0.23,-0.12,
1.324,-3.07,4.28,0.07,0.42,0.27,-0.11,
1.327,-3.07,4.25,0.11,0.42,0.27,-0.11,
1.327,-3.07,4.25,0.11,0.44,0.31,-0.09,
1.329,-3.07,4.25,0.11,0.46,0.33,-0.08,
1.332,-3.07,4.25,0.11,0.47,0.36,-0.07,
1.333,-3.05,4.24,0.15,0.47,0.36,-0.07,
1.334,-3.05,4.24,0.15,0.49,0.39,-0.06,
1.336,-3.05,4.24,0.15,0.50,0.41,-0.05,
1.337,-3.07,4.22,0.21,0.50,0.41,-0.05,
1.339,-3.07,4.22,0.21,0.51,0.44,-0.03,
1.342,-3.07,4.22,0.21,0.52,0.46,-0.02,
1.342,-3.07,4.25,0.30,0.52,0.46,-0.02,
1.344,-3.07,4.25,0.30,0.53,0.47,-0.01,
1.346,-3.07,4.25,0.30,0.54,0.49,0.00,
1.347,-3.04,4.24,0.40,0.54,0.49,0.00,
1.349,-3.04,4.24,0.40,0.54,0.50,0.01,
1.352,-3.04,4.24,0.40,0.55,0.50,0.02,
1.365,-3.00,4.21,0.51,0.55,0.50,0.02,
1.365,-3.00,4.21,0.51,0.55,0.51,0.03,
1.366,-3.00,4.21,0.51,0.56,0.51,0.04,
1.366,-2.97,4.21,0.60,0.56,0.51,0.04,
1.366,-2.97,4.21,0.60,0.56,0.51,0.05,
1.366,-2.97,4.21,0.60,0.56,0.51,0.06,
1.366,-2.94,4.19,0.68,0.56,0.51,0.06,
1.366,-2.94,4.19,0.68,0.57,0.50,0.07,
1.366,-2.94,4.19,0.68,0.57,0.50,0.08,
1.373,-2.97,4.16,0.74,0.57,0.50,0.08,
1.373,-2.97,4.16,0.74,0.57,0.49,0.09,
1.374,-2.97,4.16,0.74,0.57,0.48,0.10,
1.374,-3.00,4.13,0.81,0.57,0.48,0.10,
1.379,-3.02,4.10,0.86,0.57,0.48,0.10,
1.379,-3.02,4.10,0.86,0.58,0.48,0.11,
1.382,-3.02,4.10,0.86,0.58,0.47,0.12,
1.382,-3.02,4.10,0.86,0.58,0.46,0.13,
1.383,-3.07,4.07,0.90,0.58,0.46,0.13,
1.383,-3.07,4.07,0.90,0.58,0.46,0.15,
1.384,-3.07,4.07,0.90,0.59,0.45,0.16,
1.387,-3.07,4.07,0.90,0.59,0.44,0.18,
1.387,-3.11,4.02,0.91,0.59,0.44,0.18,
1.388,-3.11,4.02,0.91,0.59,0.44,0.19,
1.391,-3.13,3.98,0.94,0.59,0.44,0.19,
1.391,-3.13,3.98,0.94,0.60,0.44,0.21,
1.393,-3.13,3.98,0.94,0.60,0.43,0.23,
1.396,-3.14,3.89,0.95,0.60,0.43,0.23,
1.397,-3.14,3.89,0.95,0.61,0.43,0.25,
1.4,-3.14,3.89,0.95,0.62,0.43,0.27,
1.402,-3.14,3.89,0.95,0.63,0.43,0.28,
1.402,-3.14,3.79,0.93,0.63,0.43,0.28,
1.403,-3.14,3.79,0.93,0.63,0.43,0.30,
1.406,-3.14,3.79,0.93,0.64,0.44,0.32,
1.408,-3.14,3.79,0.93,0.65,0.46,0.34,
1.409,-3.14,3.66,0.90,0.65,0.46,0.34,
1.411,-3.14,3.66,0.90,0.66,0.47,0.35,
1.411,-3.16,3.50,0.89,0.66,0.47,0.35,
1.413,-3.16,3.50,0.89,0.67,0.49,0.37,
1.417,-3.20,3.35,0.85,0.67,0.49,0.37,
1.417,-3.20,3.35,0.85,0.68,0.51,0.39,
1.419,-3.20,3.35,0.85,0.70,0.54,0.40,
1.422,-3.20,3.35,0.85,0.71,0.57,0.41,
1.422,-3.21,3.17,0.85,0.71,0.57,0.41,
1.423,-3.21,3.17,0.85,0.73,0.60,0.43,
1.426,-3.21,3.17,0.85,0.75,0.63,0.44,
1.426,-3.23,3.00,0.86,0.75,0.63,0.44,
1.428,-3.23,3.00,0.86,0.76,0.67,0.45,
1.434,-3.23,3.00,0.86,0.78,0.71,0.45,
1.435,-3.22,2.83,0.87,0.78,0.71,0.45,
1.435,-3.22,2.83,0.87,0.80,0.75,0.46,
1.435,-3.22,2.83,0.87,0.82,0.79,0.46,
1.436,-3.20,2.67,0.91,0.82,0.79,0.46,
1.438,-3.20,2.67,0.91,0.85,0.84,0.46,
1.441,-3.20,2.67,0.91,0.87,0.89,0.45,
1.442,-3.17,2.55,0.97,0.87,0.89,0.45,
1.443,-3.17,2.55,0.97,0.90,0.94,0.45,
1.445,-3.17,2.55,0.97,0.93,0.99,0.44,
1.446,-3.19,2.45,1.05,0.93,0.99,0.44,
1.448,-3.19,2.45,1.05,0.96,1.04,0.43,
1.451,-3.19,2.45,1.05,0.99,1.10,0.42,
1.451,-3.21,2.37,1.17,0.99,1.10,0.42,
1.454,-3.21,2.37,1.17,1.03,1.15,0.41,
1.455,-3.21,2.37,1.17,1.06,1.21,0.39,
1.456,-3.26,2.30,1.32,1.06,1.21,0.39,
1.458,-3.26,2.30,1.32,1.10,1.27,0.38,
1.46,-3.26,2.30,1.32,1.14,1.33,0.36,
1.461,-3.33,2.27,1.45,1.14,1.33,0.36,
1.463,-3.33,2.27,1.45,1.18,1.38,0.34,
1.466,-3.41,2.27,1.62,1.18,1.38,0.34,
1.466,-3.41,2.27,1.62,1.23,1.44,0.32,
1.468,-3.41,2.27,1.62,1.28,1.50,0.31,
1.47,-3.41,2.27,1.62,1.32,1.56,0.29,
1.47,-3.57,2.26,1.78,1.32,1.56,0.29,
1.473,-3.57,2.26,1.78,1.37,1.62,0.28,
1.475,-3.76,2.27,1.94,1.37,1.62,0.28,
1.475,-3.76,2.27,1.94,1.42,1.68,0.26,
1.478,-3.76,2.27,1.94,1.47,1.73,0.25,
1.48,-3.76,2.27,1.94,1.52,1.79,0.25,
1.48,-3.99,2.29,2.09,1.52,1.79,0.25,
1.485,-3.99,2.29,2.09,1.57,1.85,0.24,
1.488,-3.99,2.29,2.09,1.62,1.91,0.24,
1.488,-4.21,2.33,2.24,1.62,1.91,0.24,
1.488,-4.21,2.33,2.24,1.68,1.96,0.24,
1.49,-4.21,2.33,2.24,1.73,2.02,0.25,
1.491,-4.46,2.34,2.36,1.73,2.02,0.25,
1.493,-4.46,2.34,2.36,1.78,2.08,0.26,
1.495,-4.46,2.34,2.36,1.84,2.13,0.28,
1.495,-4.73,2.33,2.50,1.84,2.13,0.28,
1.497,-4.73,2.33,2.50,1.89,2.18,0.29,
1.511,-5.01,2.30,2.65,1.89,2.18,0.29,
1.512,-5.01,2.30,2.65,1.95,2.23,0.31,
1.512,-5.01,2.30,2.65,2.00,2.28,0.34,
1.512,-5.01,2.30,2.65,2.05,2.32,0.37,
1.512,-5.29,2.27,2.81,2.05,2.32,0.37,
1.512,-5.29,2.27,2.81,2.11,2.37,0.40,
1.513,-5.29,2.27,2.81,2.16,2.41,0.44,
1.513,-5.58,2.28,3.01,2.16,2.41,0.44,
1.513,-5.58,2.28,3.01,2.22,2.44,0.48,
1.518,-5.84,2.28,3.21,2.22,2.44,0.48,
1.518,-5.84,2.28,3.21,2.27,2.47,0.53,
1.537,-5.84,2.28,3.21,2.33,2.49,0.58,
1.538,-5.84,2.28,3.21,2.38,2.51,0.63,
1.538,-6.11,2.28,3.42,2.38,2.51,0.63,
1.538,-6.11,2.28,3.42,2.44,2.52,0.69,
1.539,-6.11,2.28,3.42,2.49,2.53,0.76,
1.539,-6.37,2.28,3.62,2.49,2.53,0.76,
1.539,-6.37,2.28,3.62,2.55,2.53,0.83,
1.54,-6.57,2.26,3.88,2.55,2.53,0.83,
1.54,-6.57,2.26,3.88,2.61,2.53,0.90,
1.54,-6.57,2.26,3.88,2.67,2.52,0.98,
1.541,-6.57,2.26,3.88,2.73,2.51,1.06,
1.541,-6.69,2.21,4.11,2.73,2.51,1.06,
1.541,-6.69,2.21,4.11,2.79,2.50,1.15,
1.542,-6.75,2.09,4.25,2.79,2.50,1.15,
1.542,-6.75,2.09,4.25,2.85,2.48,1.24,
1.542,-6.75,2.09,4.25,2.91,2.46,1.33,
1.545,-6.75,2.09,4.25,2.97,2.44,1.43,
1.546,-6.75,1.95,4.29,2.97,2.44,1.43,
1.547,-6.75,1.95,4.29,3.03,2.41,1.52,
1.557,-6.70,1.72,4.28,3.03,2.41,1.52,
1.56,-6.70,1.72,4.28,3.09,2.39,1.61,
1.561,-6.70,1.72,4.28,3.14,2.36,1.71,
1.562,-6.70,1.72,4.28,3.19,2.33,1.80,
1.562,-6.53,1.52,4.18,3.19,2.33,1.80,
1.562,-6.53,1.52,4.18,3.24,2.29,1.90,
1.563,-6.53,1.52,4.18,3.28,2.26,1.99,
1.563,-6.33,1.23,4.03,3.28,2.26,1.99,
1.563,-6.33,1.23,4.03,3.32,2.23,2.08,
1.565,-6.33,1.23,4.03,3.36,2.20,2.17,
1.565,-6.08,0.91,3.80,3.36,2.20,2.17,
1.574,-6.08,0.91,3.80,3.39,2.17,2.25,
1.575,-6.08,0.91,3.80,3.42,2.14,2.33,
1.575,-5.83,0.55,3.51,3.42,2.14,2.33,
1.575,-5.83,0.55,3.51,3.45,2.12,2.41,
1.575,-5.83,0.55,3.51,3.47,2.10,2.48,
1.575,-5.54,0.19,3.24,3.47,2.10,2.48,
1.577,-5.54,0.19,3.24,3.48,2.08,2.55,
1.58,-5.54,0.19,3.24,3.49,2.06,2.62,
1.58,-5.27,-0.16,2.97,3.49,2.06,2.62,
1.583,-5.27,-0.16,2.97,3.50,2.05,2.68,
1.585,-5.27,-0.16,2.97,3.50,2.04,2.74,
1.586,-4.98,-0.53,2.68,3.50,2.04,2.74,
1.587,-4.98,-0.53,2.68,3.50,2.03,2.79,
1.59,-4.98,-0.53,2.68,3.49,2.02,2.84,
1.59,-4.71,-0.88,2.43,3.49,2.02,2.84,
1.592,-4.71,-0.88,2.43,3.48,2.02,2.89,
1.595,-4.46,-1.25,2.20,3.48,2.02,2.89,
1.596,-4.46,-1.25,2.20,3.47,2.01,2.93,
1.597,-4.46,-1.25,2.20,3.45,2.01,2.97,
1.602,-4.22,-1.62,1.95,3.45,2.01,2.97,
1.602,-4.22,-1.62,1.95,3.43,2.00,3.01,
1.602,-4.22,-1.62,1.95,3.40,2.00,3.04,
1.604,-4.22,-1.62,1.95,3.37,2.00,3.06,
1.605,-3.98,-1.98,1.72,3.37,2.00,3.06,
1.607,-3.98,-1.98,1.72,3.34,2.00,3.09,
1.609,-3.98,-1.98,1.72,3.30,2.00,3.11,
1.61,-3.74,-2.34,1.50,3.30,2.00,3.11,
1.612,-3.74,-2.34,1.50,3.26,2.00,3.12,
1.616,-3.74,-2.34,1.50,3.22,2.00,3.13,
1.616,-3.54,-2.67,1.29,3.22,2.00,3.13,
1.618,-3.54,-2.67,1.29,3.17,2.01,3.14,
1.62,-3.38,-3.00,1.13,3.17,2.01,3.14,
1.62,-3.38,-3.00,1.13,3.11,2.01,3.15,
1.622,-3.38,-3.00,1.13,3.06,2.01,3.15,
1.624,-3.21,-3.28,0.97,3.06,2.01,3.15,
1.625,-3.21,-3.28,0.97,3.00,2.02,3.15,
1.627,-3.21,-3.28,0.97,2.94,2.03,3.15,
1.629,-3.21,-3.28,0.97,2.88,2.03,3.14,
1.629,-3.11,-3.55,0.85,2.88,2.03,3.14,
1.631,-3.11,-3.55,0.85,2.81,2.04,3.13,
1.636,-3.11,-3.55,0.85,2.75,2.06,3.12,
1.636,-3.07,-3.87,0.76,2.75,2.06,3.12,
1.636,-3.07,-3.87,0.76,2.68,2.07,3.11,
1.639,-3.07,-3.87,0.76,2.61,2.08,3.09,
1.64,-3.09,-4.17,0.71,2.61,2.08,3.09,
1.641,-3.09,-4.17,0.71,2.54,2.10,3.08,
1.644,-3.09,-4.17,0.71,2.47,2.11,3.06,
1.644,-3.16,-4.46,0.71,2.47,2.11,3.06,
1.646,-3.16,-4.46,0.71,2.40,2.12,3.04,
1.65,-3.30,-4.74,0.76,2.40,2.12,3.04,
1.652,-3.30,-4.74,0.76,2.33,2.13,3.02,
1.653,-3.30,-4.74,0.76,2.26,2.14,3.00,
1.654,-3.30,-4.74,0.76,2.19,2.14,2.98,
1.654,-3.42,-4.98,0.87,2.19,2.14,2.98,
1.656,-3.42,-4.98,0.87,2.12,2.14,2.95,
1.659,-3.42,-4.98,0.87,2.05,2.13,2.93,
1.659,-3.48,-5.18,1.01,2.05,2.13,2.93,
1.661,-3.48,-5.18,1.01,1.99,2.12,2.91,
1.664,-3.48,-5.18,1.01,1.93,2.10,2.88,
1.664,-3.45,-5.30,1.14,1.93,2.10,2.88,
1.672,-3.45,-5.30,1.14,1.86,2.08,2.86,
1.673,-3.45,-5.30,1.14,1.80,2.04,2.83,
1.673,-3.34,-5.30,1.34,1.80,2.04,2.83,
1.673,-3.34,-5.30,1.34,1.74,2.00,2.81,
1.675,-3.34,-5.30,1.34,1.68,1.94,2.78,
1.675,-3.12,-5.21,1.49,1.68,1.94,2.78,
1.676,-3.12,-5.21,1.49,1.61,1.89,2.75,
1.679,-3.12,-5.21,1.49,1.55,1.83,2.73,
1.679,-2.79,-5.03,1.61,1.55,1.83,2.73,
1.681,-2.79,-5.03,1.61,1.49,1.77,2.71,
1.717,-2.39,-4.79,1.66,1.49,1.77,2.71,
1.718,-2.39,-4.79,1.66,1.42,1.71,2.69,
1.718,-2.39,-4.79,1.66,1.35,1.65,2.67,
1.718,-2.39,-4.79,1.66,1.28,1.59,2.65,
1.718,-1.97,-4.48,1.68,1.28,1.59,2.65,
1.718,-1.97,-4.48,1.68,1.20,1.53,2.64,
1.719,-1.97,-4.48,1.68,1.13,1.47,2.63,
1.719,-1.56,-4.23,1.69,1.13,1.47,2.63,
1.719,-1.56,-4.23,1.69,1.05,1.42,2.62,
1.719,-1.56,-4.23,1.69,0.96,1.36,2.61,
1.72,-1.21,-4.03,1.64,0.96,1.36,2.61,
1.72,-1.21,-4.03,1.64,0.87,1.31,2.61,
1.72,-1.21,-4.03,1.64,0.78,1.27,2.60,
1.72,-0.94,-3.83,1.60,0.78,1.27,2.60,
1.721,-0.94,-3.83,1.60,0.69,1.22,2.60,
1.721,-0.94,-3.83,1.60,0.59,1.18,2.60,
1.721,-0.69,-3.73,1.61,0.59,1.18,2.60,
1.721,-0.69,-3.73,1.61,0.49,1.13,2.60,
1.721,-0.48,-3.67,1.63,0.49,1.13,2.60,
1.722,-0.48,-3.67,1.63,0.40,1.09,2.60,
1.722,-0.48,-3.67,1.63,0.30,1.04,2.60,
1.722,-0.34,-3.68,1.68,0.30,1.04,2.60,
1.722,-0.34,-3.68,1.68,0.20,0.99,2.61,
1.723,-0.34,-3.68,1.68,0.10,0.94,2.61,
1.724,-0.34,-3.68,1.68,0.00,0.88,2.62,
1.724,-0.27,-3.72,1.79,0.00,0.88,2.62,
1.728,-0.27,-3.72,1.79,-0.09,0.82,2.63,
1.728,-0.27,-3.72,1.79,-0.19,0.76,2.64,
1.729,-0.23,-3.82,1.91,-0.19,0.76,2.64,
1.731,-0.23,-3.82,1.91,-0.28,0.70,2.65,
1.733,-0.21,-3.97,2.08,-0.28,0.70,2.65,
1.734,-0.21,-3.97,2.08,-0.36,0.63,2.66,
1.736,-0.21,-3.97,2.08,-0.45,0.56,2.67,
1.739,-0.21,-3.97,2.08,-0.53,0.49,2.68,
1.739,-0.17,-4.14,2.25,-0.53,0.49,2.68,
1.741,-0.17,-4.14,2.25,-0.60,0.42,2.70,
1.744,-0.17,-4.14,2.25,-0.67,0.35,2.71,
1.744,-0.11,-4.32,2.43,-0.67,0.35,2.71,
1.745,-0.11,-4.32,2.43,-0.73,0.28,2.73,
1.748,-0.01,-4.52,2.62,-0.73,0.28,2.73,
1.748,-0.01,-4.52,2.62,-0.79,0.21,2.74,
1.751,-0.01,-4.52,2.62,-0.84,0.13,2.76,
1.754,-0.01,-4.52,2.62,-0.88,0.06,2.78,
1.754,0.13,-4.70,2.77,-0.88,0.06,2.78,
1.757,0.13,-4.70,2.77,-0.92,-0.01,2.79,
1.758,0.13,-4.70,2.77,-0.96,-0.08,2.81,
1.758,0.28,-4.90,2.87,-0.96,-0.08,2.81,
1.76,0.28,-4.90,2.87,-0.99,-0.15,2.82,
1.763,0.28,-4.90,2.87,-1.01,-0.21,2.84,
1.763,0.47,-5.09,2.90,-1.01,-0.21,2.84,
1.766,0.47,-5.09,2.90,-1.03,-0.27,2.85,
1.769,0.47,-5.09,2.90,-1.05,-0.33,2.86,
1.772,0.66,-5.30,2.92,-1.05,-0.33,2.86,
1.773,0.66,-5.30,2.92,-1.06,-0.38,2.87,
1.773,0.66,-5.30,2.92,-1.07,-0.44,2.88,
1.773,0.89,-5.52,2.92,-1.07,-0.44,2.88,
1.775,0.89,-5.52,2.92,-1.08,-0.49,2.88,
1.778,1.12,-5.70,2.87,-1.08,-0.49,2.88,
1.778,1.12,-5.70,2.87,-1.08,-0.53,2.89,
1.78,1.12,-5.70,2.87,-1.08,-0.58,2.89,
1.794,1.12,-5.70,2.87,-1.07,-0.62,2.89,
1.795,1.35,-5.87,2.87,-1.07,-0.62,2.89,
1.795,1.35,-5.87,2.87,-1.07,-0.65,2.89,
1.795,1.60,-6.06,2.81,-1.07,-0.65,2.89,
1.796,1.60,-6.06,2.81,-1.06,-0.69,2.88,
1.796,1.60,-6.06,2.81,-1.04,-0.72,2.87,
1.796,1.60,-6.06,2.81,-1.03,-0.75,2.86,
1.796,1.89,-6.21,2.74,-1.03,-0.75,2.86,
1.797,1.89,-6.21,2.74,-1.01,-0.78,2.85,
1.798,1.89,-6.21,2.74,-0.99,-0.80,2.83,
1.798,2.18,-6.33,2.65,-0.99,-0.80,2.83,
1.802,2.18,-6.33,2.65,-0.97,-0.83,2.81,
1.803,2.18,-6.33,2.65,-0.94,-0.85,2.79,
1.804,2.46,-6.43,2.55,-0.94,-0.85,2.79,
1.805,2.46,-6.43,2.55,-0.92,-0.86,2.77,
1.808,2.77,-6.50,2.41,-0.92,-0.86,2.77,
1.808,2.77,-6.50,2.41,-0.89,-0.87,2.74,
1.81,2.77,-6.50,2.41,-0.86,-0.88,2.70,
1.813,2.77,-6.50,2.41,-0.83,-0.88,2.67,
1.813,3.06,-6.56,2.28,-0.83,-0.88,2.67,
1.815,3.06,-6.56,2.28,-0.80,-0.88,2.63,
1.818,3.06,-6.56,2.28,-0.76,-0.88,2.60,
1.82,3.32,-6.59,2.14,-0.76,-0.88,2.60,
1.82,3.32,-6.59,2.14,-0.73,-0.87,2.56,
1.823,3.58,-6.60,2.02,-0.73,-0.87,2.56,
1.823,3.58,-6.60,2.02,-0.69,-0.86,2.51,
1.825,3.58,-6.60,2.02,-0.66,-0.84,2.47,
1.827,3.58,-6.60,2.02,-0.62,-0.83,2.43,
1.828,3.79,-6.62,1.91,-0.62,-0.83,2.43,
1.83,3.79,-6.62,1.91,-0.58,-0.81,2.38,
1.832,3.79,-6.62,1.91,-0.55,-0.79,2.33,
1.832,4.01,-6.56,1.82,-0.55,-0.79,2.33,
1.836,4.01,-6.56,1.82,-0.51,-0.76,2.28,
1.838,4.01,-6.56,1.82,-0.47,-0.74,2.23,
1.838,4.21,-6.51,1.69,-0.47,-0.74,2.23,
1.84,4.21,-6.51,1.69,-0.43,-0.71,2.19,
1.842,4.36,-6.42,1.57,-0.43,-0.71,2.19,
1.843,4.36,-6.42,1.57,-0.40,-0.68,2.14,
1.845,4.36,-6.42,1.57,-0.36,-0.65,2.10,
1.847,4.36,-6.42,1.57,-0.33,-0.62,2.05,
1.861,4.50,-6.35,1.45,-0.33,-0.62,2.05,
1.862,4.50,-6.35,1.45,-0.30,-0.59,2.01,
1.862,4.50,-6.35,1.45,-0.27,-0.56,1.96,
1.862,4.63,-6.25,1.34,-0.27,-0.56,1.96,
1.862,4.72,-6.16,1.26,-0.27,-0.56,1.96,
1.863,4.72,-6.16,1.26,-0.24,-0.53,1.92,
1.863,4.72,-6.16,1.26,-0.21,-0.50,1.88,
1.863,4.72,-6.16,1.26,-0.19,-0.47,1.84,
1.863,4.72,-6.16,1.26,-0.16,-0.44,1.80,
1.864,4.84,-6.07,1.21,-0.16,-0.44,1.80,
1.865,4.84,-6.07,1.21,-0.14,-0.41,1.76,
1.867,4.84,-6.07,1.21,-0.11,-0.39,1.73,
1.868,4.92,-5.97,1.19,-0.11,-0.39,1.73,
1.869,4.92,-5.97,1.19,-0.09,-0.36,1.69,
1.872,4.99,-5.87,1.18,-0.09,-0.36,1.69,
1.872,4.99,-5.87,1.18,-0.07,-0.33,1.66,
1.875,4.99,-5.87,1.18,-0.04,-0.30,1.62,
1.877,5.05,-5.79,1.17,-0.04,-0.30,1.62,
1.878,5.05,-5.79,1.17,-0.02,-0.28,1.59,
1.879,5.05,-5.79,1.17,0.00,-0.25,1.56,
1.882,5.05,-5.79,1.17,0.03,-0.23,1.53,
1.882,5.09,-5.78,1.19,0.03,-0.23,1.53,
1.884,5.09,-5.78,1.19,0.05,-0.20,1.49,
1.887,5.20,-5.74,1.26,0.05,-0.20,1.49,
1.887,5.20,-5.74,1.26,0.07,-0.18,1.46,
1.889,5.20,-5.74,1.26,0.10,-0.16,1.43,
1.892,5.20,-5.74,1.26,0.12,-0.15,1.39,
1.892,5.35,-5.72,1.32,0.12,-0.15,1.39,
1.894,5.35,-5.72,1.32,0.15,-0.14,1.35,
1.897,5.35,-5.72,1.32,0.17,-0.13,1.32,
1.897,5.50,-5.70,1.40,0.17,-0.13,1.32,
1.899,5.50,-5.70,1.40,0.20,-0.11,1.28,
1.902,5.50,-5.70,1.40,0.23,-0.10,1.24,
1.904,5.65,-5.65,1.41,0.23,-0.10,1.24,
1.904,5.65,-5.65,1.41,0.26,-0.09,1.21,
1.907,5.65,-5.65,1.41,0.29,-0.08,1.17,
1.907,5.78,-5.57,1.43,0.29,-0.08,1.17,
1.909,5.78,-5.57,1.43,0.33,-0.07,1.13,
1.912,5.78,-5.57,1.43,0.36,-0.06,1.09,
1.912,5.90,-5.49,1.45,0.36,-0.06,1.09,
1.915,5.90,-5.49,1.45,0.39,-0.05,1.05,
1.92,6.00,-5.39,1.40,0.39,-0.05,1.05,
1.921,6.00,-5.39,1.40,0.42,-0.04,1.02,
1.921,6.00,-5.39,1.40,0.45,-0.03,0.98,
1.923,6.00,-5.39,1.40,0.48,-0.02,0.94,
1.923,6.08,-5.29,1.33,0.48,-0.02,0.94,
1.925,6.08,-5.29,1.33,0.51,-0.00,0.91,
1.926,6.08,-5.29,1.33,0.54,0.01,0.87,
1.926,6.12,-5.21,1.23,0.54,0.01,0.87,
1.929,6.12,-5.21,1.23,0.57,0.03,0.84,
1.931,6.12,-5.21,1.23,0.59,0.04,0.81,
1.931,6.17,-5.14,1.14,0.59,0.04,0.81,
1.934,6.17,-5.14,1.14,0.61,0.05,0.78,
1.937,6.17,-5.14,1.14,0.63,0.07,0.75,
1.937,6.19,-5.07,1.05,0.63,0.07,0.75,
1.939,6.19,-5.07,1.05,0.64,0.08,0.72,
1.942,6.20,-5.01,0.95,0.64,0.08,0.72,
1.942,6.20,-5.01,0.95,0.66,0.09,0.70,
1.944,6.20,-5.01,0.95,0.67,0.10,0.67,
1.946,6.20,-5.01,0.95,0.68,0.12,0.65,
1.946,6.19,-4.97,0.86,0.68,0.12,0.65,
1.949,6.19,-4.97,0.86,0.69,0.13,0.62,
1.952,6.19,-4.97,0.86,0.69,0.14,0.60,
1.952,6.20,-4.93,0.78,0.69,0.14,0.60,
1.953,6.20,-4.93,0.78,0.70,0.15,0.58,
1.957,6.20,-4.93,0.78,0.70,0.16,0.56,
1.957,6.18,-4.93,0.68,0.70,0.16,0.56,
1.959,6.18,-4.93,0.68,0.70,0.16,0.54,
1.961,6.18,-4.93,0.68,0.70,0.17,0.52,
1.961,6.17,-4.95,0.60,0.70,0.17,0.52,
1.964,6.17,-4.95,0.60,0.69,0.18,0.49,
1.966,6.17,-4.95,0.60,0.69,0.19,0.47,
1.966,6.18,-4.98,0.51,0.69,0.19,0.47,
1.972,6.18,-4.98,0.51,0.68,0.19,0.45,
1.972,6.18,-4.98,0.51,0.67,0.20,0.43,
1.973,6.17,-5.02,0.44,0.67,0.20,0.43,
1.973,6.17,-5.02,0.44,0.66,0.20,0.40,
1.976,6.17,-5.02,0.44,0.64,0.20,0.38,
1.976,6.19,-5.08,0.33,0.64,0.20,0.38,
1.979,6.19,-5.08,0.33,0.63,0.21,0.35,
1.981,6.16,-5.15,0.27,0.63,0.21,0.35,
1.981,6.16,-5.15,0.27,0.61,0.21,0.33,
1.991,6.16,-5.15,0.27,0.59,0.22,0.30,
1.992,6.16,-5.15,0.27,0.57,0.22,0.27,
1.992,6.12,-5.21,0.21,0.57,0.22,0.27,
1.992,6.12,-5.21,0.21,0.55,0.23,0.25,
1.992,6.04,-5.29,0.18,0.55,0.23,0.25,
1.992,6.04,-5.29,0.18,0.53,0.23,0.22,
1.996,6.04,-5.29,0.18,0.50,0.24,0.19,
1.996,6.04,-5.29,0.18,0.48,0.24,0.16,
1.996,5.97,-5.35,0.14,0.48,0.24,0.16,
1.999,5.97,-5.35,0.14,0.45,0.23,0.12,
2.002,5.93,-5.45,0.13,0.45,0.23,0.12,
2.003,5.93,-5.45,0.13,0.43,0.23,0.09,
2.006,5.88,-5.49,0.13,0.43,0.23,0.09,
2.008,5.88,-5.49,0.13,0.40,0.22,0.06,
2.008,5.88,-5.49,0.13,0.37,0.21,0.03,
2.008,5.88,-5.49,0.13,0.34,0.20,-0.00,
2.011,5.88,-5.49,0.13,0.31,0.19,-0.04,
2.011,5.87,-5.53,0.16,0.31,0.19,-0.04,
2.026,5.87,-5.53,0.16,0.27,0.17,-0.07,
2.026,5.87,-5.53,0.16,0.24,0.16,-0.11,
2.026,5.87,-5.55,0.18,0.24,0.16,-0.11,
2.026,5.87,-5.55,0.18,0.21,0.15,-0.14,
2.026,5.87,-5.55,0.18,0.18,0.13,-0.18,
2.026,5.89,-5.54,0.21,0.18,0.13,-0.18,
2.027,5.89,-5.54,0.21,0.15,0.12,-0.22,
2.027,5.89,-5.54,0.21,0.12,0.11,-0.26,
2.027,5.89,-5.52,0.17,0.12,0.11,-0.26,
2.028,5.89,-5.52,0.17,0.08,0.10,-0.30,
2.031,5.89,-5.52,0.17,0.05,0.09,-0.34,
2.031,5.88,-5.50,0.12,0.05,0.09,-0.34,
2.033,5.88,-5.50,0.12,0.01,0.08,-0.38,
2.036,5.88,-5.50,0.12,-0.02,0.08,-0.42,
2.036,5.89,-5.49,0.08,-0.02,0.08,-0.42,
2.038,5.89,-5.49,0.08,-0.06,0.08,-0.46,
2.041,5.85,-5.45,0.05,-0.06,0.08,-0.46,
2.042,5.85,-5.45,0.05,-0.10,0.08,-0.50,
2.045,5.85,-5.45,0.05,-0.14,0.08,-0.55,
2.046,5.78,-5.43,0.07,-0.14,0.08,-0.55,
2.046,5.78,-5.43,0.07,-0.18,0.08,-0.59,
2.048,5.78,-5.43,0.07,-0.22,0.09,-0.62,
2.052,5.78,-5.43,0.07,-0.26,0.09,-0.66,
2.053,5.67,-5.39,0.09,-0.26,0.09,-0.66,
2.053,5.67,-5.39,0.09,-0.29,0.10,-0.70,
2.056,5.55,-5.37,0.13,-0.29,0.10,-0.70,
2.056,5.55,-5.37,0.13,-0.33,0.10,-0.73,
2.058,5.55,-5.37,0.13,-0.37,0.10,-0.77,
2.06,5.55,-5.37,0.13,-0.41,0.10,-0.80,
2.061,5.44,-5.37,0.18,-0.41,0.10,-0.80,
2.064,5.44,-5.37,0.18,-0.45,0.10,-0.84,
2.066,5.44,-5.37,0.18,-0.49,0.10,-0.87,
2.067,5.33,-5.38,0.23,-0.49,0.10,-0.87,
2.07,5.33,-5.38,0.23,-0.53,0.10,-0.90,
2.072,5.33,-5.38,0.23,-0.57,0.10,-0.93,
2.072,5.19,-5.46,0.25,-0.57,0.10,-0.93,
2.073,5.19,-5.46,0.25,-0.61,0.10,-0.97,
2.076,5.19,-5.46,0.25,-0.65,0.10,-1.01,
2.076,5.06,-5.59,0.31,-0.65,0.10,-1.01,
2.078,5.06,-5.59,0.31,-0.68,0.09,-1.04,
2.08,5.06,-5.59,0.31,-0.72,0.08,-1.09,
2.081,4.98,-5.81,0.39,-0.72,0.08,-1.09,
2.083,4.98,-5.81,0.39,-0.75,0.07,-1.14,
2.085,4.91,-6.04,0.47,-0.75,0.07,-1.14,
2.086,4.91,-6.04,0.47,-0.79,0.05,-1.19,
2.089,4.91,-6.04,0.47,-0.82,0.04,-1.24,
2.091,4.80,-6.25,0.53,-0.82,0.04,-1.24,
2.091,4.80,-6.25,0.53,-0.85,0.02,-1.30,
2.092,4.80,-6.25,0.53,-0.88,0.01,-1.37,
2.095,4.80,-6.25,0.53,-0.90,-0.00,-1.43,
2.095,4.69,-6.42,0.55,-0.90,-0.00,-1.43,
2.098,4.69,-6.42,0.55,-0.93,-0.00,-1.49,
2.1,4.47,-6.65,0.54,-0.93,-0.00,-1.49,
2.101,4.47,-6.65,0.54,-0.95,-0.00,-1.56,
2.106,4.47,-6.65,0.54,-0.97,0.01,-1.63,
2.106,4.47,-6.65,0.54,-0.98,0.02,-1.70,
2.106,4.12,-6.92,0.49,-0.98,0.02,-1.70,
2.107,4.12,-6.92,0.49,-1.00,0.04,-1.77,
2.11,4.12,-6.92,0.49,-1.01,0.07,-1.84,
2.11,3.66,-7.22,0.44,-1.01,0.07,-1.84,
2.112,3.66,-7.22,0.44,-1.02,0.10,-1.90,
2.116,3.66,-7.22,0.44,-1.04,0.13,-1.97,
2.116,3.10,-7.54,0.36,-1.04,0.13,-1.97,
2.119,3.10,-7.54,0.36,-1.05,0.17,-2.04,
2.122,2.47,-7.93,0.31,-1.05,0.17,-2.04,
2.123,2.47,-7.93,0.31,-1.05,0.20,-2.10,
2.123,2.47,-7.93,0.31,-1.06,0.23,-2.16,
2.125,1.79,-8.35,0.35,-1.06,0.23,-2.16,
2.125,1.79,-8.35,0.35,-1.06,0.27,-2.23,
2.127,1.79,-8.35,0.35,-1.07,0.29,-2.29,
2.13,1.79,-8.35,0.35,-1.07,0.31,-2.36,
2.13,1.26,-8.70,0.40,-1.07,0.31,-2.36,
2.133,1.26,-8.70,0.40,-1.06,0.33,-2.42,
2.136,1.26,-8.70,0.40,-1.06,0.34,-2.48,
2.136,0.81,-9.02,0.41,-1.06,0.34,-2.48,
2.14,0.81,-9.02,0.41,-1.05,0.35,-2.55,
2.14,0.81,-9.02,0.41,-1.04,0.36,-2.62,
2.141,0.44,-9.20,0.32,-1.04,0.36,-2.62,
2.142,0.44,-9.20,0.32,-1.03,0.38,-2.68,
2.145,0.44,-9.20,0.32,-1.01,0.39,-2.75,
2.145,0.20,-9.35,0.14,-1.01,0.39,-2.75,
2.147,0.20,-9.35,0.14,-1.00,0.41,-2.81,
2.15,0.02,-9.38,-0.10,-1.00,0.41,-2.81,
2.15,0.02,-9.38,-0.10,-0.98,0.44,-2.88,
2.152,0.02,-9.38,-0.10,-0.97,0.47,-2.94,
2.156,-0.15,-9.37,-0.37,-0.97,0.47,-2.94,
2.156,-0.15,-9.37,-0.37,-0.97,0.50,-3.01,
2.157,-0.15,-9.37,-0.37,-0.96,0.54,-3.07,
2.16,-0.25,-9.31,-0.55,-0.96,0.54,-3.07,
2.16,-0.25,-9.31,-0.55,-0.97,0.58,-3.13,
2.162,-0.25,-9.31,-0.55,-0.97,0.62,-3.19,
2.165,-0.31,-9.24,-0.73,-0.97,0.62,-3.19,
2.165,-0.31,-9.24,-0.73,-0.98,0.66,-3.25,
2.167,-0.31,-9.24,-0.73,-1.00,0.71,-3.32,
2.171,-0.43,-9.24,-0.89,-1.00,0.71,-3.32,
2.172,-0.43,-9.24,-0.89,-1.02,0.76,-3.38,
2.175,-0.43,-9.24,-0.89,-1.03,0.82,-3.45,
2.176,-0.78,-9.29,-0.99,-1.03,0.82,-3.45,
2.176,-0.78,-9.29,-0.99,-1.05,0.88,-3.52,
2.177,-0.78,-9.29,-0.99,-1.06,0.96,-3.59,
2.195,-0.78,-9.29,-0.99,-1.08,1.03,-3.66,
2.195,-1.22,-9.41,-0.98,-1.08,1.03,-3.66,
2.196,-1.22,-9.41,-0.98,-1.10,1.10,-3.73,
2.196,-1.22,-9.41,-0.98,-1.12,1.16,-3.80,
2.196,-1.84,-9.58,-0.84,-1.12,1.16,-3.80,
2.196,-1.84,-9.58,-0.84,-1.13,1.22,-3.86,
2.197,-1.84,-9.58,-0.84,-1.14,1.28,-3.93,
2.197,-2.61,-9.75,-0.65,-1.14,1.28,-3.93,
2.197,-2.61,-9.75,-0.65,-1.16,1.33,-3.99,
2.197,-2.61,-9.75,-0.65,-1.17,1.38,-4.05,
2.197,-3.55,-10.00,-0.43,-1.17,1.38,-4.05,
2.198,-3.55,-10.00,-0.43,-1.18,1.42,-4.11,
2.213,-3.55,-10.00,-0.43,-1.20,1.45,-4.16,
2.213,-4.70,-10.33,-0.18,-1.20,1.45,-4.16,
2.213,-4.70,-10.33,-0.18,-1.21,1.47,-4.20,
2.213,-4.70,-10.33,-0.18,-1.23,1.48,-4.24,
2.213,-5.95,-10.78,0.09,-1.23,1.48,-4.24,
2.214,-5.95,-10.78,0.09,-1.26,1.48,-4.28,
2.214,-5.95,-10.78,0.09,-1.30,1.46,-4.31,
2.214,-7.14,-11.25,0.37,-1.30,1.46,-4.31,
2.214,-7.14,-11.25,0.37,-1.34,1.43,-4.33,
2.214,-7.14,-11.25,0.37,-1.40,1.38,-4.35,
2.216,-8.11,-11.65,0.62,-1.40,1.38,-4.35,
2.216,-8.11,-11.65,0.62,-1.46,1.32,-4.37,
2.224,-8.11,-11.65,0.62,-1.54,1.25,-4.38,
2.225,-8.84,-11.93,0.89,-1.54,1.25,-4.38,
2.225,-8.84,-11.93,0.89,-1.62,1.17,-4.40,
2.225,-8.84,-11.93,0.89,-1.72,1.09,-4.41,
2.225,-9.32,-12.07,1.18,-1.72,1.09,-4.41,
2.226,-9.32,-12.07,1.18,-1.82,1.00,-4.43,
2.229,-9.32,-12.07,1.18,-1.93,0.90,-4.44,
2.229,-9.68,-12.19,1.57,-1.93,0.90,-4.44,
2.231,-9.68,-12.19,1.57,-2.04,0.79,-4.47,
2.241,-9.68,-12.19,1.57,-2.16,0.67,-4.51,
2.241,-9.90,-12.22,2.16,-2.16,0.67,-4.51,
2.241,-9.90,-12.22,2.16,-2.26,0.54,-4.55,
2.241,-9.90,-12.22,2.16,-2.36,0.40,-4.60,
2.241,-9.92,-12.18,2.93,-2.36,0.40,-4.60,
2.241,-9.92,-12.18,2.93,-2.45,0.25,-4.66,
2.244,-9.92,-12.18,2.93,-2.53,0.08,-4.72,
2.244,-9.87,-11.98,3.82,-2.53,0.08,-4.72,
2.246,-9.87,-11.98,3.82,-2.60,-0.09,-4.80,
2.25,-9.87,-11.98,3.82,-2.65,-0.27,-4.87,
2.25,-9.81,-11.63,4.64,-2.65,-0.27,-4.87,
2.256,-9.81,-11.63,4.64,-2.69,-0.44,-4.95,
2.256,-9.81,-11.63,4.64,-2.72,-0.62,-5.04,
2.256,-9.81,-11.15,5.35,-2.72,-0.62,-5.04,
2.256,-9.81,-11.15,5.35,-2.73,-0.79,-5.12,
2.259,-9.81,-11.15,5.35,-2.73,-0.96,-5.20,
2.259,-9.79,-10.54,5.95,-2.73,-0.96,-5.20,
2.261,-9.79,-10.54,5.95,-2.70,-1.14,-5.28,
2.264,-9.79,-10.54,5.95,-2.67,-1.32,-5.36,
2.264,-9.76,-9.77,6.46,-2.67,-1.32,-5.36,
2.266,-9.76,-9.77,6.46,-2.62,-1.49,-5.42,
2.273,-9.72,-8.86,6.73,-2.62,-1.49,-5.42,
2.273,-9.72,-8.86,6.73,-2.57,-1.66,-5.49,
2.273,-9.72,-8.86,6.73,-2.50,-1.82,-5.54,
2.274,-9.72,-8.86,6.73,-2.42,-1.97,-5.59,
2.275,-9.78,-7.94,6.80,-2.42,-1.97,-5.59,
2.276,-9.78,-7.94,6.80,-2.33,-2.12,-5.63,
2.279,-9.78,-7.94,6.80,-2.23,-2.25,-5.66,
2.279,-9.92,-7.03,6.68,-2.23,-2.25,-5.66,
2.281,-9.92,-7.03,6.68,-2.13,-2.38,-5.67,
2.284,-9.92,-7.03,6.68,-2.02,-2.49,-5.68,
2.284,-10.17,-6.19,6.40,-2.02,-2.49,-5.68,
2.29,-10.17,-6.19,6.40,-1.91,-2.58,-5.68,
2.29,-10.49,-5.47,5.95,-1.91,-2.58,-5.68,
2.29,-10.49,-5.47,5.95,-1.80,-2.66,-5.66,
2.291,-10.49,-5.47,5.95,-1.68,-2.71,-5.65,
2.294,-10.49,-5.47,5.95,-1.58,-2.73,-5.65,
2.294,-10.65,-4.92,5.25,-1.58,-2.73,-5.65,
2.296,-10.65,-4.92,5.25,-1.48,-2.72,-5.64,
2.298,-10.61,-4.38,4.64,-1.48,-2.72,-5.64,
2.299,-10.61,-4.38,4.64,-1.38,-2.72,-5.64,
2.32,-10.61,-4.38,4.64,-1.28,-2.74,-5.64,
2.32,-10.61,-4.38,4.64,-1.17,-2.75,-5.61,
2.321,-10.71,-3.94,4.13,-1.17,-2.75,-5.61,
2.321,-10.71,-3.94,4.13,-1.06,-2.76,-5.58,
2.321,-10.71,-3.94,4.13,-0.93,-2.75,-5.54,
2.321,-10.99,-3.51,3.63,-0.93,-2.75,-5.54,
2.321,-10.99,-3.51,3.63,-0.79,-2.73,-5.48,
2.321,-10.99,-3.51,3.63,-0.65,-2.69,-5.42,
2.321,-11.19,-3.10,3.24,-0.65,-2.69,-5.42,
2.322,-11.19,-3.10,3.24,-0.49,-2.65,-5.35,
2.322,-11.20,-2.65,2.91,-0.49,-2.65,-5.35,
2.322,-11.20,-2.65,2.91,-0.33,-2.59,-5.27,
2.322,-11.20,-2.65,2.91,-0.16,-2.51,-5.19,
2.324,-11.20,-2.65,2.91,0.01,-2.43,-5.11,
2.324,-11.03,-2.13,2.52,0.01,-2.43,-5.11,
2.326,-11.03,-2.13,2.52,0.17,-2.33,-5.03,
2.328,-11.03,-2.13,2.52,0.34,-2.22,-4.95,
2.328,-10.77,-1.58,2.05,0.34,-2.22,-4.95,
2.331,-10.77,-1.58,2.05,0.50,-2.11,-4.88,
2.333,-10.77,-1.58,2.05,0.66,-1.99,-4.82,
2.333,-10.47,-1.00,1.60,0.66,-1.99,-4.82,
2.34,-10.47,-1.00,1.60,0.82,-1.87,-4.75,
2.34,-10.47,-1.00,1.60,0.96,-1.75,-4.69,
2.34,-10.14,-0.39,1.14,0.96,-1.75,-4.69,
2.341,-10.14,-0.39,1.14,1.10,-1.62,-4.63,
2.343,-10.14,-0.39,1.14,1.23,-1.50,-4.57,
2.354,-9.88,0.23,0.70,1.23,-1.50,-4.57,
2.354,-9.88,0.23,0.70,1.34,-1.37,-4.51,
2.354,-9.88,0.23,0.70,1.45,-1.25,-4.45,
2.354,-9.68,0.83,0.26,1.45,-1.25,-4.45,
2.354,-9.68,0.83,0.26,1.55,-1.12,-4.38,
2.354,-9.45,1.42,-0.16,1.55,-1.12,-4.38,
2.355,-9.45,1.42,-0.16,1.64,-1.00,-4.32,
2.358,-9.45,1.42,-0.16,1.71,-0.88,-4.25,
2.358,-9.45,1.42,-0.16,1.77,-0.77,-4.17,
2.358,-9.18,2.02,-0.55,1.77,-0.77,-4.17,
2.36,-9.18,2.02,-0.55,1.83,-0.66,-4.09,
2.363,-8.90,2.58,-0.87,1.83,-0.66,-4.09,
2.363,-8.90,2.58,-0.87,1.87,-0.55,-4.01,
2.365,-8.90,2.58,-0.87,1.91,-0.45,-3.93,
2.375,-8.90,2.58,-0.87,1.93,-0.36,-3.84,
2.375,-8.60,3.10,-1.18,1.93,-0.36,-3.84,
2.375,-8.60,3.10,-1.18,1.95,-0.27,-3.76,
2.375,-8.60,3.10,-1.18,1.96,-0.19,-3.67,
2.376,-8.30,3.62,-1.39,1.96,-0.19,-3.67,
2.376,-8.30,3.62,-1.39,1.96,-0.12,-3.58,
2.378,-8.30,3.62,-1.39,1.95,-0.06,-3.49,
2.378,-7.99,4.12,-1.55,1.95,-0.06,-3.49,
2.38,-7.99,4.12,-1.55,1.93,-0.01,-3.40,
2.384,-7.99,4.12,-1.55,1.91,0.04,-3.32,
2.384,-7.67,4.57,-1.68,1.91,0.04,-3.32,
2.386,-7.67,4.57,-1.68,1.88,0.07,-3.23,
2.393,-7.67,4.57,-1.68,1.84,0.09,-3.15,
2.393,-7.67,4.57,-1.68,1.80,0.11,-3.07,
2.394,-7.33,4.90,-1.78,1.80,0.11,-3.07,
2.394,-7.33,4.90,-1.78,1.76,0.12,-2.99,
2.394,-7.06,5.16,-1.84,1.76,0.12,-2.99,
2.396,-7.06,5.16,-1.84,1.71,0.12,-2.91,
2.398,-7.06,5.16,-1.84,1.66,0.11,-2.84,
2.398,-6.84,5.35,-1.91,1.66,0.11,-2.84,
2.4,-6.84,5.35,-1.91,1.60,0.10,-2.77,
2.425,-6.84,5.35,-1.91,1.55,0.08,-2.70,
2.425,-6.65,5.48,-1.93,1.55,0.08,-2.70,
2.425,-6.65,5.48,-1.93,1.49,0.06,-2.63,
2.426,-6.48,5.58,-1.94,1.49,0.06,-2.63,
2.426,-6.44,5.69,-1.93,1.49,0.06,-2.63,
2.426,-6.41,5.85,-1.91,1.49,0.06,-2.63,
2.426,-6.41,5.85,-1.91,1.42,0.03,-2.57,
2.427,-6.41,5.85,-1.91,1.36,-0.01,-2.51,
2.427,-6.41,5.85,-1.91,1.30,-0.05,-2.45,
2.427,-6.41,5.85,-1.91,1.24,-0.10,-2.39,
2.427,-6.41,5.85,-1.91,1.18,-0.17,-2.33,
2.427,-6.41,5.85,-1.91,1.12,-0.23,-2.27,
2.428,-6.41,5.85,-1.91,1.06,-0.31,-2.21,
2.428,-6.32,6.03,-1.92,1.06,-0.31,-2.21,
2.428,-6.32,6.03,-1.92,1.00,-0.39,-2.15,
2.428,-6.20,6.23,-1.98,1.00,-0.39,-2.15,
2.429,-6.20,6.23,-1.98,0.94,-0.47,-2.09,
2.43,-6.20,6.23,-1.98,0.88,-0.55,-2.03,
2.432,-6.20,6.23,-1.98,0.82,-0.63,-1.97,
2.433,-6.08,6.39,-2.11,0.82,-0.63,-1.97,
2.435,-6.08,6.39,-2.11,0.76,-0.72,-1.91,
2.438,-5.95,6.47,-2.24,0.76,-0.72,-1.91,
2.438,-5.95,6.47,-2.24,0.70,-0.80,-1.85,
2.44,-5.95,6.47,-2.24,0.64,-0.89,-1.79,
2.442,-5.95,6.47,-2.24,0.58,-0.97,-1.74,
2.443,-5.72,6.54,-2.34,0.58,-0.97,-1.74,
2.445,-5.72,6.54,-2.34,0.51,-1.06,-1.69,
2.447,-5.72,6.54,-2.34,0.45,-1.15,-1.63,
2.447,-5.48,6.63,-2.46,0.45,-1.15,-1.63,
2.45,-5.48,6.63,-2.46,0.38,-1.25,-1.58,
2.453,-5.48,6.63,-2.46,0.32,-1.33,-1.53,
2.453,-5.19,6.73,-2.63,0.32,-1.33,-1.53,
2.455,-5.19,6.73,-2.63,0.25,-1.41,-1.49,
2.457,-5.19,6.73,-2.63,0.18,-1.49,-1.45,
2.457,-4.94,6.78,-2.82,0.18,-1.49,-1.45,
2.459,-4.94,6.78,-2.82,0.12,-1.56,-1.41,
2.462,-4.94,6.78,-2.82,0.05,-1.63,-1.37,
2.462,-4.71,6.77,-3.00,0.05,-1.63,-1.37,
2.467,-4.71,6.77,-3.00,-0.01,-1.69,-1.34,
2.467,-4.71,6.77,-3.00,-0.08,-1.75,-1.32,
2.468,-4.51,6.72,-3.17,-0.08,-1.75,-1.32,
2.472,-4.51,6.72,-3.17,-0.14,-1.81,-1.29,
2.472,-4.51,6.72,-3.17,-0.20,-1.86,-1.27,
2.48,-4.34,6.62,-3.32,-0.20,-1.86,-1.27,
2.481,-4.34,6.62,-3.32,-0.26,-1.91,-1.25,
2.483,-4.34,6.62,-3.32,-0.31,-1.95,-1.24,
2.483,-4.34,6.62,-3.32,-0.36,-1.99,-1.23,
2.483,-4.34,6.62,-3.32,-0.41,-2.02,-1.22,
2.484,-4.18,6.55,-3.46,-0.41,-2.02,-1.22,
2.484,-4.03,6.46,-3.53,-0.41,-2.02,-1.22,
2.485,-4.03,6.46,-3.53,-0.46,-2.05,-1.22,
2.488,-4.03,6.46,-3.53,-0.50,-2.06,-1.22,
2.489,-3.87,6.40,-3.58,-0.50,-2.06,-1.22,
2.492,-3.87,6.40,-3.58,-0.53,-2.08,-1.23,
2.492,-3.87,6.40,-3.58,-0.56,-2.08,-1.24,
2.492,-3.74,6.43,-3.62,-0.56,-2.08,-1.24,
2.495,-3.74,6.43,-3.62,-0.59,-2.08,-1.25,
2.498,-3.74,6.43,-3.62,-0.61,-2.07,-1.27,
2.498,-3.69,6.46,-3.61,-0.61,-2.07,-1.27,
2.506,-3.69,6.46,-3.61,-0.63,-2.05,-1.29,
2.506,-3.70,6.55,-3.56,-0.63,-2.05,-1.29,
2.507,-3.70,6.55,-3.56,-0.64,-2.02,-1.30,
2.507,-3.70,6.55,-3.56,-0.64,-1.99,-1.32,
2.507,-3.77,6.65,-3.51,-0.64,-1.99,-1.32,
2.507,-3.77,6.65,-3.51,-0.64,-1.95,-1.34,
2.527,-3.77,6.65,-3.51,-0.64,-1.91,-1.36,
2.528,-3.77,6.65,-3.51,-0.63,-1.85,-1.38,
2.528,-3.90,6.75,-3.45,-0.63,-1.85,-1.38,
2.528,-3.90,6.75,-3.45,-0.61,-1.80,-1.39,
2.529,-4.16,6.82,-3.35,-0.61,-1.80,-1.39,
2.529,-4.16,6.82,-3.35,-0.59,-1.74,-1.41,
2.53,-4.16,6.82,-3.35,-0.57,-1.67,-1.42,
2.53,-4.56,6.86,-3.20,-0.57,-1.67,-1.42,
2.53,-4.56,6.86,-3.20,-0.53,-1.61,-1.43,
2.531,-4.56,6.86,-3.20,-0.49,-1.54,-1.43,
2.531,-4.56,6.86,-3.20,-0.45,-1.49,-1.44,
2.531,-4.98,6.90,-3.05,-0.45,-1.49,-1.44,
2.531,-4.98,6.90,-3.05,-0.40,-1.43,-1.44,
2.533,-5.42,6.98,-2.94,-0.40,-1.43,-1.44,
2.535,-5.42,6.98,-2.94,-0.35,-1.37,-1.43,
2.535,-5.42,6.98,-2.94,-0.29,-1.32,-1.43,
2.538,-5.79,7.10,-2.86,-0.29,-1.32,-1.43,
2.538,-5.79,7.10,-2.86,-0.23,-1.27,-1.42,
2.539,-5.79,7.10,-2.86,-0.17,-1.23,-1.40,
2.542,-6.15,7.22,-2.80,-0.17,-1.23,-1.40,
2.542,-6.15,7.22,-2.80,-0.12,-1.18,-1.39,
2.545,-6.15,7.22,-2.80,-0.06,-1.14,-1.37,
2.547,-6.15,7.22,-2.80,-0.01,-1.10,-1.34,
2.548,-6.48,7.37,-2.87,-0.01,-1.10,-1.34,
2.549,-6.48,7.37,-2.87,0.04,-1.06,-1.32,
2.552,-6.79,7.51,-3.00,0.04,-1.06,-1.32,
2.553,-6.79,7.51,-3.00,0.08,-1.02,-1.28,
2.556,-6.79,7.51,-3.00,0.12,-0.98,-1.25,
2.556,-7.00,7.63,-3.15,0.12,-0.98,-1.25,
2.557,-7.00,7.63,-3.15,0.15,-0.94,-1.22,
2.559,-7.00,7.63,-3.15,0.17,-0.90,-1.18,
2.561,-7.17,7.75,-3.34,0.17,-0.90,-1.18,
2.562,-7.17,7.75,-3.34,0.19,-0.85,-1.14,
2.564,-7.17,7.75,-3.34,0.20,-0.81,-1.09,
2.566,-7.17,7.75,-3.34,0.20,-0.75,-1.04,
2.566,-7.28,7.89,-3.57,0.20,-0.75,-1.04,
2.568,-7.28,7.89,-3.57,0.19,-0.69,-0.98,
2.572,-7.28,7.89,-3.57,0.17,-0.62,-0.93,
2.573,-7.37,7.95,-3.80,0.17,-0.62,-0.93,
2.575,-7.37,7.95,-3.80,0.15,-0.55,-0.88,
2.577,-7.37,7.95,-3.80,0.12,-0.47,-0.82,
2.577,-7.39,7.95,-3.97,0.12,-0.47,-0.82,
2.582,-7.39,7.95,-3.97,0.08,-0.39,-0.77,
2.582,-7.39,7.95,-3.97,0.04,-0.31,-0.71,
2.582,-7.42,7.94,-4.05,0.04,-0.31,-0.71,
2.583,-7.42,7.94,-4.05,-0.00,-0.22,-0.66,
2.589,-7.42,7.94,-4.05,-0.05,-0.13,-0.61,
2.592,-7.46,7.93,-4.03,-0.05,-0.13,-0.61,
2.592,-7.46,7.93,-4.03,-0.09,-0.04,-0.56,
2.6,-7.54,7.89,-3.92,-0.09,-0.04,-0.56,
2.6,-7.64,7.85,-3.74,-0.09,-0.04,-0.56,
2.601,-7.64,7.85,-3.74,-0.14,0.06,-0.52,
2.601,-7.64,7.85,-3.74,-0.19,0.15,-0.47,
2.601,-7.64,7.85,-3.74,-0.24,0.25,-0.43,
2.601,-7.64,7.85,-3.74,-0.29,0.35,-0.39,
2.602,-7.64,7.85,-3.74,-0.33,0.45,-0.35,
2.602,-7.76,7.78,-3.47,-0.33,0.45,-0.35,
2.617,-7.76,7.78,-3.47,-0.38,0.55,-0.31,
2.617,-7.92,7.73,-3.13,-0.38,0.55,-0.31,
2.617,-7.92,7.73,-3.13,-0.42,0.65,-0.27,
2.617,-7.92,7.73,-3.13,-0.46,0.74,-0.24,
2.618,-7.92,7.73,-3.13,-0.50,0.84,-0.20,
2.618,-8.07,7.69,-2.80,-0.50,0.84,-0.20,
2.618,-8.07,7.69,-2.80,-0.53,0.94,-0.16,
2.618,-8.22,7.67,-2.40,-0.53,0.94,-0.16,
2.618,-8.22,7.67,-2.40,-0.57,1.03,-0.12,
2.622,-8.22,7.67,-2.40,-0.59,1.13,-0.08,
2.623,-8.40,7.68,-2.03,-0.59,1.13,-0.08,
2.623,-8.40,7.68,-2.03,-0.62,1.22,-0.03,
2.626,-8.40,7.68,-2.03,-0.64,1.31,0.02,
2.626,-8.53,7.69,-1.64,-0.64,1.31,0.02,
2.627,-8.53,7.69,-1.64,-0.66,1.41,0.06,
2.628,-8.53,7.69,-1.64,-0.67,1.50,0.12,
2.631,-8.68,7.70,-1.22,-0.67,1.50,0.12,
2.632,-8.68,7.70,-1.22,-0.68,1.59,0.17,
2.633,-8.68,7.70,-1.22,-0.68,1.68,0.22,
2.636,-8.84,7.70,-0.78,-0.68,1.68,0.22,
2.64,-8.84,7.70,-0.78,-0.68,1.77,0.28,
2.64,-8.84,7.70,-0.78,-0.68,1.86,0.34,
2.641,-8.84,7.70,-0.78,-0.67,1.94,0.40,
2.642,-9.00,7.68,-0.29,-0.67,1.94,0.40,
2.643,-9.00,7.68,-0.29,-0.67,2.02,0.45,
2.646,-9.00,7.68,-0.29,-0.65,2.10,0.51,
2.646,-9.18,7.63,0.18,-0.65,2.10,0.51,
2.648,-9.18,7.63,0.18,-0.64,2.16,0.57,
2.651,-9.18,7.63,0.18,-0.62,2.22,0.64,
2.654,-9.35,7.58,0.63,-0.62,2.22,0.64,
2.654,-9.35,7.58,0.63,-0.59,2.27,0.70,
2.656,-9.56,7.48,1.08,-0.59,2.27,0.70,
2.656,-9.56,7.48,1.08,-0.57,2.32,0.76,
2.658,-9.56,7.48,1.08,-0.55,2.36,0.82,
2.661,-9.56,7.48,1.08,-0.52,2.38,0.88,
2.661,-9.81,7.36,1.55,-0.52,2.38,0.88,
2.664,-9.81,7.36,1.55,-0.49,2.39,0.94,
2.666,-10.05,7.20,1.98,-0.49,2.39,0.94,
2.666,-10.05,7.20,1.98,-0.47,2.39,1.00,
2.668,-10.05,7.20,1.98,-0.44,2.38,1.06,
2.675,-10.31,7.05,2.42,-0.44,2.38,1.06,
2.676,-10.31,7.05,2.42,-0.41,2.36,1.13,
2.681,-10.31,7.05,2.42,-0.39,2.33,1.20,
2.697,-10.57,6.95,2.75,-0.39,2.33,1.20,
2.697,-10.57,6.95,2.75,-0.36,2.29,1.27,
2.697,-10.57,6.95,2.75,-0.34,2.24,1.35,
2.697,-10.57,6.95,2.75,-0.31,2.19,1.44,
2.698,-10.57,6.95,2.75,-0.30,2.13,1.53,
2.698,-10.77,6.83,2.95,-0.30,2.13,1.53,
2.698,-10.86,6.65,3.03,-0.30,2.13,1.53,
2.698,-10.86,6.65,3.03,-0.28,2.08,1.63,
2.699,-10.86,6.65,3.03,-0.27,2.03,1.73,
2.699,-10.87,6.39,3.02,-0.27,2.03,1.73,
2.699,-10.87,6.39,3.02,-0.26,1.99,1.85,
2.699,-10.87,6.39,3.02,-0.26,1.95,1.96,
2.7,-10.87,6.03,2.97,-0.26,1.95,1.96,
2.7,-10.87,6.03,2.97,-0.27,1.92,2.09,
2.701,-10.82,5.56,2.85,-0.27,1.92,2.09,
2.701,-10.82,5.56,2.85,-0.28,1.89,2.21,
2.701,-10.82,5.56,2.85,-0.30,1.86,2.34,
2.704,-10.82,5.56,2.85,-0.33,1.84,2.47,
2.707,-10.82,5.56,2.85,-0.36,1.82,2.59,
2.707,-10.77,5.02,2.75,-0.36,1.82,2.59,
2.709,-10.77,5.02,2.75,-0.40,1.80,2.72,
2.711,-10.77,5.02,2.75,-0.44,1.78,2.84,
2.712,-10.73,4.38,2.69,-0.44,1.78,2.84,
2.713,-10.73,4.38,2.69,-0.49,1.76,2.95,
2.716,-10.65,3.68,2.73,-0.49,1.76,2.95,
2.716,-10.65,3.68,2.73,-0.54,1.73,3.06,
2.718,-10.65,3.68,2.73,-0.59,1.70,3.17,
2.723,-10.65,3.68,2.73,-0.64,1.67,3.26,
2.723,-10.65,3.68,2.73,-0.69,1.64,3.35,
2.723,-10.57,2.95,2.83,-0.69,1.64,3.35,
2.726,-10.46,2.20,3.04,-0.69,1.64,3.35,
2.728,-10.46,2.20,3.04,-0.74,1.60,3.43,
2.729,-10.46,2.20,3.04,-0.79,1.57,3.51,
2.73,-10.46,2.20,3.04,-0.83,1.54,3.57,
2.731,-10.33,1.45,3.31,-0.83,1.54,3.57,
2.734,-10.33,1.45,3.31,-0.86,1.50,3.63,
2.736,-10.30,0.72,3.64,-0.86,1.50,3.63,
2.736,-10.30,0.72,3.64,-0.89,1.47,3.68,
2.739,-10.30,0.72,3.64,-0.91,1.44,3.73,
2.74,-10.37,-0.00,3.94,-0.91,1.44,3.73,
2.74,-10.37,-0.00,3.94,-0.93,1.41,3.77,
2.743,-10.37,-0.00,3.94,-0.94,1.39,3.81,
2.745,-10.60,-0.77,4.27,-0.94,1.39,3.81,
2.745,-10.60,-0.77,4.27,-0.94,1.37,3.84,
2.747,-10.60,-0.77,4.27,-0.93,1.35,3.88,
2.75,-10.88,-1.53,4.61,-0.93,1.35,3.88,
2.751,-10.88,-1.53,4.61,-0.91,1.34,3.90,
2.752,-10.88,-1.53,4.61,-0.89,1.33,3.93,
2.756,-10.88,-1.53,4.61,-0.87,1.32,3.96,
2.756,-11.21,-2.28,4.92,-0.87,1.32,3.96,
2.757,-11.21,-2.28,4.92,-0.84,1.31,3.98,
2.76,-11.71,-3.09,5.16,-0.84,1.31,3.98,
2.76,-11.71,-3.09,5.16,-0.80,1.30,4.01,
2.762,-11.71,-3.09,5.16,-0.76,1.30,4.03,
2.765,-12.32,-3.96,5.32,-0.76,1.30,4.03,
2.765,-12.32,-3.96,5.32,-0.71,1.29,4.06,
2.767,-12.32,-3.96,5.32,-0.66,1.28,4.07,
2.773,-12.91,-4.69,5.50,-0.66,1.28,4.07,
2.776,-12.91,-4.69,5.50,-0.61,1.25,4.09,
2.776,-12.91,-4.69,5.50,-0.55,1.22,4.10,
2.776,-13.43,-5.30,5.65,-0.55,1.22,4.10,
2.777,-13.43,-5.30,5.65,-0.49,1.17,4.11,
2.777,-13.43,-5.30,5.65,-0.44,1.12,4.13,
2.78,-13.78,-5.72,5.78,-0.44,1.12,4.13,
2.78,-13.78,-5.72,5.78,-0.38,1.06,4.14,
2.782,-13.78,-5.72,5.78,-0.32,0.99,4.15,
2.785,-13.95,-5.98,5.74,-0.32,0.99,4.15,
2.786,-13.95,-5.98,5.74,-0.26,0.92,4.16,
2.796,-13.95,-5.98,5.74,-0.21,0.84,4.17,
2.796,-13.95,-5.98,5.74,-0.16,0.76,4.19,
2.797,-14.00,-6.15,5.56,-0.16,0.76,4.19,
2.797,-14.00,-6.15,5.56,-0.12,0.69,4.20,
2.797,-14.00,-6.15,5.56,-0.09,0.63,4.22,
2.797,-13.89,-6.25,5.21,-0.09,0.63,4.22,
2.797,-13.89,-6.25,5.21,-0.06,0.59,4.24,
2.8,-13.89,-6.25,5.21,-0.06,0.55,4.27,
2.801,-13.72,-6.31,4.82,-0.06,0.55,4.27,
2.802,-13.72,-6.31,4.82,-0.06,0.51,4.29,
2.805,-13.57,-6.41,4.48,-0.06,0.51,4.29,
2.806,-13.57,-6.41,4.48,-0.07,0.49,4.32,
2.808,-13.57,-6.41,4.48,-0.10,0.47,4.35,
2.811,-13.57,-6.41,4.48,-0.14,0.45,4.39,
2.811,-13.45,-6.53,4.23,-0.14,0.45,4.39,
2.813,-13.45,-6.53,4.23,-0.18,0.44,4.43,
2.814,-13.34,-6.72,4.08,-0.18,0.44,4.43,
2.815,-13.34,-6.72,4.08,-0.24,0.43,4.47,
2.817,-13.34,-6.72,4.08,-0.30,0.42,4.52,
2.823,-13.23,-6.98,4.10,-0.30,0.42,4.52,
2.823,-13.23,-6.98,4.10,-0.36,0.41,4.56,
2.824,-13.23,-6.98,4.10,-0.43,0.39,4.61,
2.824,-13.23,-6.98,4.10,-0.49,0.36,4.66,
2.824,-13.16,-7.28,4.26,-0.49,0.36,4.66,
2.827,-13.16,-7.28,4.26,-0.55,0.32,4.70,
2.829,-13.08,-7.60,4.50,-0.55,0.32,4.70,
2.829,-13.08,-7.60,4.50,-0.60,0.28,4.75,
2.832,-13.08,-7.60,4.50,-0.65,0.23,4.80,
2.834,-12.97,-7.97,4.82,-0.65,0.23,4.80,
2.835,-12.97,-7.97,4.82,-0.70,0.17,4.84,
2.84,-12.97,-7.97,4.82,-0.74,0.10,4.89,
2.841,-12.80,-8.33,5.13,-0.74,0.10,4.89,
2.862,-12.80,-8.33,5.13,-0.76,0.04,4.92,
2.863,-12.80,-8.33,5.13,-0.78,-0.03,4.96,
2.863,-12.60,-8.66,5.35,-0.78,-0.03,4.96,
2.863,-12.60,-8.66,5.35,-0.80,-0.11,5.00,
2.864,-12.60,-8.66,5.35,-0.80,-0.18,5.03,
2.864,-12.33,-8.95,5.50,-0.80,-0.18,5.03,
2.864,-12.33,-8.95,5.50,-0.79,-0.25,5.07,
2.864,-12.33,-8.95,5.50,-0.77,-0.32,5.10,
2.864,-12.33,-8.95,5.50,-0.75,-0.39,5.14,
2.865,-12.00,-9.20,5.60,-0.75,-0.39,5.14,
2.865,-12.00,-9.20,5.60,-0.72,-0.47,5.17,
2.865,-12.00,-9.20,5.60,-0.67,-0.54,5.20,
2.865,-11.60,-9.42,5.65,-0.67,-0.54,5.20,
2.866,-11.60,-9.42,5.65,-0.63,-0.62,5.23,
2.866,-11.18,-9.59,5.60,-0.63,-0.62,5.23,
2.866,-11.18,-9.59,5.60,-0.57,-0.69,5.25,
2.872,-11.18,-9.59,5.60,-0.51,-0.78,5.27,
2.873,-11.18,-9.59,5.60,-0.45,-0.85,5.30,
2.873,-10.75,-9.79,5.48,-0.45,-0.85,5.30,
2.874,-10.75,-9.79,5.48,-0.38,-0.94,5.31,
2.874,-10.75,-9.79,5.48,-0.31,-1.02,5.32,
2.875,-10.21,-9.98,5.31,-0.31,-1.02,5.32,
2.877,-10.21,-9.98,5.31,-0.24,-1.10,5.32,
2.879,-10.21,-9.98,5.31,-0.16,-1.18,5.32,
2.88,-9.57,-10.08,5.12,-0.16,-1.18,5.32,
2.882,-9.57,-10.08,5.12,-0.08,-1.26,5.31,
2.888,-8.81,-10.11,4.84,-0.08,-1.26,5.31,
2.889,-8.81,-10.11,4.84,-0.00,-1.34,5.30,
2.889,-8.81,-10.11,4.84,0.08,-1.41,5.29,
2.889,-8.81,-10.11,4.84,0.16,-1.48,5.27,
2.89,-8.03,-10.05,4.52,0.16,-1.48,5.27,
2.891,-8.03,-10.05,4.52,0.24,-1.53,5.25,
2.894,-8.03,-10.05,4.52,0.32,-1.59,5.22,
2.894,-7.26,-9.96,4.15,0.32,-1.59,5.22,
2.897,-7.26,-9.96,4.15,0.40,-1.63,5.19,
2.899,-6.59,-9.86,3.77,0.40,-1.63,5.19,
2.899,-6.59,-9.86,3.77,0.47,-1.67,5.17,
2.901,-6.59,-9.86,3.77,0.55,-1.69,5.14,
2.906,-5.96,-9.78,3.39,0.55,-1.69,5.14,
2.909,-5.96,-9.78,3.39,0.62,-1.72,5.11,
2.909,-5.96,-9.78,3.39,0.70,-1.73,5.08,
2.909,-5.96,-9.78,3.39,0.77,-1.75,5.05,
2.91,-5.42,-9.71,3.07,0.77,-1.75,5.05,
2.915,-5.42,-9.71,3.07,0.85,-1.75,5.02,
2.916,-5.42,-9.71,3.07,0.92,-1.76,4.99,
2.916,-4.86,-9.67,2.78,0.92,-1.76,4.99,
2.916,-4.86,-9.67,2.78,0.99,-1.76,4.96,
2.919,-4.86,-9.67,2.78,1.07,-1.76,4.92,
2.919,-4.24,-9.57,2.53,1.07,-1.76,4.92,
2.922,-4.24,-9.57,2.53,1.14,-1.76,4.89,
2.924,-4.24,-9.57,2.53,1.21,-1.75,4.86,
2.924,-3.68,-9.44,2.29,1.21,-1.75,4.86,
2.926,-3.68,-9.44,2.29,1.28,-1.74,4.83,
2.929,-3.68,-9.44,2.29,1.35,-1.72,4.80,
2.929,-3.12,-9.31,2.05,1.35,-1.72,4.80,
2.931,-3.12,-9.31,2.05,1.42,-1.71,4.77,
2.935,-3.12,-9.31,2.05,1.50,-1.68,4.74,
2.936,-2.63,-9.18,1.85,1.50,-1.68,4.74,
2.936,-2.63,-9.18,1.85,1.57,-1.65,4.71,
2.939,-2.63,-9.18,1.85,1.65,-1.62,4.68,
2.939,-2.18,-9.07,1.62,1.65,-1.62,4.68,
2.941,-2.18,-9.07,1.62,1.73,-1.58,4.65,
2.943,-2.18,-9.07,1.62,1.81,-1.53,4.63,
2.943,-1.80,-8.96,1.46,1.81,-1.53,4.63,
2.947,-1.80,-8.96,1.46,1.89,-1.48,4.60,
2.949,-1.80,-8.96,1.46,1.97,-1.43,4.58,
2.949,-1.51,-8.93,1.27,1.97,-1.43,4.58,
2.955,-1.51,-8.93,1.27,2.06,-1.38,4.56,
2.955,-1.51,-8.93,1.27,2.14,-1.33,4.54,
2.956,-1.26,-8.93,1.12,2.14,-1.33,4.54,
2.959,-1.26,-8.93,1.12,2.23,-1.28,4.53,
2.96,-1.26,-8.93,1.12,2.31,-1.23,4.51,
2.96,-1.03,-8.96,0.98,2.31,-1.23,4.51,
2.963,-1.03,-8.96,0.98,2.40,-1.17,4.50,
2.964,-1.03,-8.96,0.98,2.48,-1.12,4.48,
2.964,-0.82,-9.03,0.78,2.48,-1.12,4.48,
2.965,-0.82,-9.03,0.78,2.56,-1.06,4.47,
2.968,-0.82,-9.03,0.78,2.63,-1.00,4.46,
2.969,-0.60,-9.09,0.59,2.63,-1.00,4.46,
2.973,-0.60,-9.09,0.59,2.71,-0.94,4.45,
2.975,-0.60,-9.09,0.59,2.78,-0.88,4.45,
2.975,-0.43,-9.17,0.41,2.78,-0.88,4.45,
2.98,-0.43,-9.17,0.41,2.84,-0.82,4.44,
2.982,-0.43,-9.17,0.41,2.91,-0.76,4.44,
2.982,-0.28,-9.28,0.20,2.91,-0.76,4.44,
2.982,-0.28,-9.28,0.20,2.96,-0.70,4.44,
2.983,-0.28,-9.28,0.20,3.02,-0.65,4.44,
2.984,-0.16,-9.42,0.01,3.02,-0.65,4.44,
2.986,-0.16,-9.42,0.01,3.07,-0.59,4.45,
2.992,-0.00,-9.59,-0.15,3.07,-0.59,4.45,
2.992,-0.00,-9.59,-0.15,3.12,-0.54,4.45,
2.992,-0.00,-9.59,-0.15,3.16,-0.49,4.46,
2.993,0.18,-9.80,-0.32,3.16,-0.49,4.46,
2.993,0.18,-9.80,-0.32,3.19,-0.44,4.46,
2.996,0.18,-9.80,-0.32,3.22,-0.39,4.47,
2.998,0.18,-9.80,-0.32,3.25,-0.35,4.48,
2.998,0.42,-10.07,-0.45,3.25,-0.35,4.48,
3.001,0.42,-10.07,-0.45,3.27,-0.31,4.49,
3.003,0.42,-10.07,-0.45,3.29,-0.27,4.49,
3.003,0.72,-10.28,-0.61,3.29,-0.27,4.49,
3.014,0.72,-10.28,-0.61,3.30,-0.23,4.50,
3.014,0.72,-10.28,-0.61,3.31,-0.19,4.50,
3.015,1.02,-10.49,-0.76,3.31,-0.19,4.50,
3.015,1.02,-10.49,-0.76,3.31,-0.15,4.50,
3.015,1.34,-10.69,-0.89,3.31,-0.15,4.50,
3.019,1.34,-10.69,-0.89,3.31,-0.11,4.50,
3.02,1.34,-10.69,-0.89,3.30,-0.07,4.49,
3.02,1.70,-10.88,-0.98,3.30,-0.07,4.49,
3.021,1.70,-10.88,-0.98,3.29,-0.04,4.48,
3.022,1.70,-10.88,-0.98,3.27,-0.00,4.47,
3.023,2.04,-11.04,-1.07,3.27,-0.00,4.47,
3.024,2.04,-11.04,-1.07,3.26,0.03,4.45,
3.025,2.04,-11.04,-1.07,3.24,0.06,4.43,
3.028,2.04,-11.04,-1.07,3.21,0.09,4.41,
3.029,2.37,-11.19,-1.12,3.21,0.09,4.41,
3.03,2.37,-11.19,-1.12,3.19,0.12,4.38,
3.033,2.37,-11.19,-1.12,3.15,0.14,4.35,
3.035,2.70,-11.28,-1.18,3.15,0.14,4.35,
3.038,2.70,-11.28,-1.18,3.12,0.16,4.33,
3.038,2.70,-11.28,-1.18,3.08,0.18,4.29,
3.039,2.99,-11.37,-1.22,3.08,0.18,4.29,
3.04,2.99,-11.37,-1.22,3.04,0.20,4.26,
3.042,2.99,-11.37,-1.22,3.00,0.21,4.23,
3.043,3.30,-11.45,-1.28,3.00,0.21,4.23,
3.049,3.30,-11.45,-1.28,2.96,0.22,4.19,
3.049,3.30,-11.45,-1.28,2.91,0.23,4.15,
3.05,3.55,-11.50,-1.36,2.91,0.23,4.15,
3.05,3.55,-11.50,-1.36,2.86,0.24,4.11,
3.053,3.82,-11.54,-1.44,2.86,0.24,4.11,
3.054,3.82,-11.54,-1.44,2.80,0.24,4.07,
3.055,3.82,-11.54,-1.44,2.75,0.25,4.03,
3.057,4.05,-11.54,-1.49,2.75,0.25,4.03,
3.057,4.05,-11.54,-1.49,2.68,0.26,3.98,
3.059,4.05,-11.54,-1.49,2.62,0.26,3.94,
3.064,4.26,-11.51,-1.56,2.62,0.26,3.94,
3.064,4.26,-11.51,-1.56,2.55,0.27,3.89,
3.064,4.26,-11.51,-1.56,2.48,0.27,3.85,
3.067,4.26,-11.51,-1.56,2.41,0.28,3.80,
3.068,4.45,-11.47,-1.60,2.41,0.28,3.80,
3.07,4.45,-11.47,-1.60,2.33,0.28,3.75,
3.076,4.45,-11.47,-1.60,2.25,0.29,3.71,
3.076,4.65,-11.40,-1.66,2.25,0.29,3.71,
3.077,4.65,-11.40,-1.66,2.17,0.30,3.65,
3.077,4.79,-11.35,-1.69,2.17,0.30,3.65,
3.077,4.79,-11.35,-1.69,2.09,0.30,3.61,
3.08,4.79,-11.35,-1.69,2.00,0.31,3.56,
3.082,4.79,-11.35,-1.69,1.91,0.32,3.51,
3.082,4.91,-11.28,-1.67,1.91,0.32,3.51,
3.086,4.91,-11.28,-1.67,1.82,0.33,3.46,
3.097,5.01,-11.21,-1.63,1.82,0.33,3.46,
3.097,5.01,-11.21,-1.63,1.73,0.34,3.41,
3.097,5.01,-11.21,-1.63,1.63,0.35,3.36,
3.097,5.01,-11.21,-1.63,1.54,0.36,3.31,
3.098,5.03,-11.14,-1.55,1.54,0.36,3.31,
3.098,5.03,-11.14,-1.55,1.45,0.36,3.26,
3.098,5.02,-11.11,-1.41,1.45,0.36,3.26,
3.098,5.02,-11.11,-1.41,1.36,0.37,3.22,
3.099,5.02,-11.11,-1.41,1.27,0.38,3.17,
3.102,5.02,-11.11,-1.41,1.18,0.38,3.13,
3.102,5.01,-11.13,-1.27,1.18,0.38,3.13,
3.105,5.01,-11.13,-1.27,1.09,0.38,3.08,
3.11,5.01,-11.13,-1.27,1.00,0.39,3.04,
3.11,4.98,-11.16,-1.06,1.00,0.39,3.04,
3.111,4.98,-11.16,-1.06,0.92,0.38,2.99,
3.113,4.93,-11.17,-0.84,0.92,0.38,2.99,
3.113,4.93,-11.17,-0.84,0.85,0.38,2.95,
3.115,4.93,-11.17,-0.84,0.77,0.38,2.90,
3.117,4.93,-11.17,-0.84,0.70,0.37,2.86,
3.117,4.88,-11.20,-0.57,0.70,0.37,2.86,
3.119,4.88,-11.20,-0.57,0.63,0.36,2.82,
3.124,4.88,-11.20,-0.57,0.57,0.34,2.77,
3.125,4.86,-11.24,-0.30,0.57,0.34,2.77,
3.125,4.86,-11.24,-0.30,0.52,0.32,2.73,
3.127,4.86,-11.24,-0.30,0.46,0.30,2.68,
3.127,4.83,-11.26,-0.04,0.46,0.30,2.68,
3.13,4.83,-11.26,-0.04,0.41,0.28,2.64,
3.132,4.79,-11.29,0.19,0.41,0.28,2.64,
3.132,4.79,-11.29,0.19,0.37,0.26,2.59,
3.134,4.79,-11.29,0.19,0.33,0.22,2.54,
3.137,4.79,-11.29,0.19,0.29,0.20,2.50,
3.137,4.76,-11.32,0.39,0.29,0.20,2.50,
3.14,4.76,-11.32,0.39,0.25,0.17,2.46,
3.142,4.76,-11.32,0.39,0.22,0.14,2.41,
3.142,4.75,-11.36,0.55,0.22,0.14,2.41,
3.144,4.75,-11.36,0.55,0.19,0.11,2.37,
3.147,4.74,-11.41,0.67,0.19,0.11,2.37,
3.148,4.74,-11.41,0.67,0.16,0.07,2.32,
3.15,4.74,-11.41,0.67,0.13,0.04,2.28,
3.153,4.77,-11.50,0.72,0.13,0.04,2.28,
3.153,4.77,-11.50,0.72,0.11,-0.00,2.24,
3.155,4.77,-11.50,0.72,0.08,-0.04,2.19,
3.157,4.77,-11.50,0.72,0.05,-0.07,2.15,
3.157,4.82,-11.59,0.77,0.05,-0.07,2.15,
3.159,4.82,-11.59,0.77,0.03,-0.11,2.10,
3.162,4.82,-11.59,0.77,0.00,-0.14,2.05,
3.162,4.92,-11.66,0.76,0.00,-0.14,2.05,
3.164,4.92,-11.66,0.76,-0.02,-0.18,2.00,
3.167,4.92,-11.66,0.76,-0.05,-0.20,1.95,
3.167,5.05,-11.73,0.74,-0.05,-0.20,1.95,
3.169,5.05,-11.73,0.74,-0.07,-0.23,1.89,
3.18,5.05,-11.73,0.74,-0.10,-0.26,1.83,
3.18,5.21,-11.79,0.72,-0.10,-0.26,1.83,
3.18,5.21,-11.79,0.72,-0.12,-0.28,1.78,
3.18,5.21,-11.79,0.72,-0.14,-0.31,1.71,
3.18,5.35,-11.83,0.72,-0.14,-0.31,1.71,
3.18,5.35,-11.83,0.72,-0.17,-0.33,1.65,
3.184,5.35,-11.83,0.72,-0.19,-0.36,1.58,
3.184,5.53,-11.89,0.69,-0.19,-0.36,1.58,
3.185,5.53,-11.89,0.69,-0.21,-0.38,1.51,
3.187,5.53,-11.89,0.69,-0.23,-0.40,1.43,
3.187,5.72,-11.97,0.63,-0.23,-0.40,1.43,
3.2,5.72,-11.97,0.63,-0.25,-0.43,1.35,
3.2,5.72,-11.97,0.63,-0.27,-0.44,1.27,
3.2,5.93,-12.04,0.55,-0.27,-0.44,1.27,
3.2,5.93,-12.04,0.55,-0.29,-0.45,1.18,
3.201,5.93,-12.04,0.55,-0.31,-0.46,1.09,
3.201,6.11,-12.11,0.50,-0.31,-0.46,1.09,
3.201,6.11,-12.11,0.50,-0.33,-0.47,1.00,
3.201,6.11,-12.11,0.50,-0.34,-0.48,0.90,
3.202,6.26,-12.15,0.47,-0.34,-0.48,0.90,
3.204,6.26,-12.15,0.47,-0.36,-0.48,0.80,
3.206,6.26,-12.15,0.47,-0.37,-0.49,0.70,
3.208,6.40,-12.15,0.43,-0.37,-0.49,0.70,
3.209,6.40,-12.15,0.43,-0.38,-0.49,0.60,
3.212,6.40,-12.15,0.43,-0.39,-0.49,0.50,
3.212,6.53,-12.17,0.39,-0.39,-0.49,0.50,
3.214,6.53,-12.17,0.39,-0.40,-0.49,0.39,
3.216,6.53,-12.17,0.39,-0.40,-0.49,0.29,
3.216,6.62,-12.16,0.33,-0.40,-0.49,0.29,
3.218,6.62,-12.16,0.33,-0.40,-0.48,0.18,
3.223,6.62,-12.16,0.33,-0.41,-0.48,0.07,
3.223,6.70,-12.18,0.26,-0.41,-0.48,0.07,
3.225,6.70,-12.18,0.26,-0.41,-0.47,-0.03,
3.226,6.70,-12.18,0.26,-0.41,-0.46,-0.14,
3.226,6.76,-12.20,0.17,-0.41,-0.46,-0.14,
3.229,6.76,-12.20,0.17,-0.42,-0.45,-0.25,
3.232,6.76,-12.20,0.17,-0.42,-0.43,-0.36,
3.232,6.79,-12.25,0.03,-0.42,-0.43,-0.36,
3.233,6.79,-12.25,0.03,-0.42,-0.42,-0.47,
3.236,6.79,-12.25,0.03,-0.42,-0.41,-0.58,
3.236,6.85,-12.27,-0.09,-0.42,-0.41,-0.58,
3.239,6.85,-12.27,-0.09,-0.43,-0.39,-0.70,
3.244,6.85,-12.27,-0.09,-0.44,-0.37,-0.81,
3.244,6.85,-12.27,-0.09,-0.45,-0.35,-0.93,
3.244,6.92,-12.25,-0.21,-0.45,-0.35,-0.93,
3.246,6.92,-12.25,-0.21,-0.46,-0.32,-1.04,
3.246,6.94,-12.24,-0.35,-0.46,-0.32,-1.04,
3.248,6.94,-12.24,-0.35,-0.47,-0.30,-1.16,
3.251,6.94,-12.24,-0.35,-0.49,-0.27,-1.28,
3.251,6.94,-12.24,-0.48,-0.49,-0.27,-1.28,
3.253,6.94,-12.24,-0.48,-0.50,-0.24,-1.40,
3.256,6.94,-12.24,-0.48,-0.52,-0.21,-1.52,
3.256,6.88,-12.30,-0.58,-0.52,-0.21,-1.52,
3.258,6.88,-12.30,-0.58,-0.54,-0.18,-1.64,
3.261,6.88,-12.30,-0.58,-0.56,-0.16,-1.77,
3.261,6.78,-12.37,-0.66,-0.56,-0.16,-1.77,
3.263,6.78,-12.37,-0.66,-0.59,-0.13,-1.89,
3.265,6.78,-12.37,-0.66,-0.61,-0.10,-2.02,
3.266,6.64,-12.49,-0.75,-0.61,-0.10,-2.02,
3.268,6.64,-12.49,-0.75,-0.64,-0.06,-2.15,
3.27,6.64,-12.49,-0.75,-0.66,-0.04,-2.28,
3.271,6.47,-12.69,-0.83,-0.66,-0.04,-2.28,
3.273,6.47,-12.69,-0.83,-0.69,-0.01,-2.42,
3.276,6.47,-12.69,-0.83,-0.71,0.01,-2.56,
3.276,6.21,-12.91,-0.82,-0.71,0.01,-2.56,
3.278,6.21,-12.91,-0.82,-0.72,0.03,-2.71,
3.28,6.21,-12.91,-0.82,-0.74,0.05,-2.86,
3.281,5.90,-13.14,-0.80,-0.74,0.05,-2.86,
3.283,5.90,-13.14,-0.80,-0.75,0.07,-3.01,
3.286,5.90,-13.14,-0.80,-0.76,0.10,-3.17,
3.286,5.54,-13.37,-0.83,-0.76,0.10,-3.17,
3.289,5.54,-13.37,-0.83,-0.76,0.12,-3.33,
3.291,5.54,-13.37,-0.83,-0.76,0.14,-3.49,
3.291,5.14,-13.54,-0.85,-0.76,0.14,-3.49,
3.293,5.14,-13.54,-0.85,-0.76,0.17,-3.65,
3.295,5.14,-13.54,-0.85,-0.76,0.20,-3.81,
3.295,4.64,-13.67,-0.90,-0.76,0.20,-3.81,
3.298,4.64,-13.67,-0.90,-0.75,0.24,-3.97,
3.3,4.64,-13.67,-0.90,-0.74,0.28,-4.13,
3.3,4.01,-13.76,-0.98,-0.74,0.28,-4.13,
3.303,4.01,-13.76,-0.98,-0.73,0.32,-4.28,
3.305,3.24,-13.88,-1.09,-0.73,0.32,-4.28,
3.306,3.24,-13.88,-1.09,-0.71,0.37,-4.43,
3.31,3.24,-13.88,-1.09,-0.69,0.42,-4.58,
3.311,3.24,-13.88,-1.09,-0.67,0.47,-4.72,
3.311,2.38,-14.08,-1.19,-0.67,0.47,-4.72,
3.313,2.38,-14.08,-1.19,-0.65,0.53,-4.86,
3.316,1.39,-14.32,-1.35,-0.65,0.53,-4.86,
3.316,1.39,-14.32,-1.35,-0.63,0.58,-4.99,
3.317,1.39,-14.32,-1.35,-0.61,0.64,-5.12,
3.32,1.39,-14.32,-1.35,-0.59,0.70,-5.25,
3.32,0.33,-14.62,-1.52,-0.59,0.70,-5.25,
3.324,0.33,-14.62,-1.52,-0.57,0.75,-5.37,
3.325,0.33,-14.62,-1.52,-0.56,0.81,-5.48,
3.325,-0.68,-14.89,-1.68,-0.56,0.81,-5.48,
3.327,-0.68,-14.89,-1.68,-0.55,0.86,-5.60,
3.33,-0.68,-14.89,-1.68,-0.55,0.90,-5.71,
3.33,-1.64,-15.15,-1.85,-0.55,0.90,-5.71,
3.332,-1.64,-15.15,-1.85,-0.55,0.95,-5.82,
3.335,-2.66,-15.41,-2.07,-0.55,0.95,-5.82,
3.347,-2.66,-15.41,-2.07,-0.56,0.99,-5.92,
3.347,-2.66,-15.41,-2.07,-0.57,1.03,-6.02,
3.347,-3.81,-15.69,-2.23,-0.57,1.03,-6.02,
3.347,-3.81,-15.69,-2.23,-0.59,1.07,-6.12,
3.347,-3.81,-15.69,-2.23,-0.61,1.10,-6.22,
3.347,-3.81,-15.69,-2.23,-0.63,1.12,-6.32,
3.347,-5.02,-15.92,-2.34,-0.63,1.12,-6.32,
3.347,-5.02,-15.92,-2.34,-0.65,1.13,-6.41,
3.351,-5.02,-15.92,-2.34,-0.67,1.13,-6.49,
3.351,-6.27,-16.07,-2.44,-0.67,1.13,-6.49,
3.353,-6.27,-16.07,-2.44,-0.70,1.12,-6.57,
3.357,-7.48,-16.18,-2.60,-0.70,1.12,-6.57,
3.358,-7.48,-16.18,-2.60,-0.73,1.11,-6.64,
3.358,-7.48,-16.18,-2.60,-0.77,1.10,-6.71,
3.361,-8.60,-16.26,-2.92,-0.77,1.10,-6.71,
3.362,-8.60,-16.26,-2.92,-0.82,1.09,-6.76,
3.362,-8.60,-16.26,-2.92,-0.89,1.08,-6.80,
3.367,-8.60,-16.26,-2.92,-0.98,1.07,-6.84,
3.367,-9.58,-16.33,-3.29,-0.98,1.07,-6.84,
3.368,-9.58,-16.33,-3.29,-1.08,1.06,-6.88,
3.371,-10.41,-16.38,-3.68,-1.08,1.06,-6.88,
3.372,-10.41,-16.38,-3.68,-1.21,1.07,-6.90,
3.384,-10.41,-16.38,-3.68,-1.35,1.07,-6.92,
3.385,-11.09,-16.47,-3.98,-1.35,1.07,-6.92,
3.385,-11.09,-16.47,-3.98,-1.52,1.09,-6.95,
3.385,-11.09,-16.47,-3.98,-1.71,1.10,-6.96,
3.385,-11.09,-16.47,-3.98,-1.92,1.12,-6.99,
3.386,-11.68,-16.61,-4.07,-1.92,1.12,-6.99,
3.386,-11.68,-16.61,-4.07,-2.15,1.14,-7.01,
3.386,-12.28,-16.80,-3.87,-2.15,1.14,-7.01,
3.386,-12.28,-16.80,-3.87,-2.38,1.16,-7.04,
3.389,-12.28,-16.80,-3.87,-2.63,1.17,-7.07,
3.392,-12.98,-17.06,-3.32,-2.63,1.17,-7.07,
3.393,-12.98,-17.06,-3.32,-2.88,1.16,-7.11,
3.393,-12.98,-17.06,-3.32,-3.13,1.14,-7.16,
3.395,-13.71,-17.42,-2.50,-3.13,1.14,-7.16,
3.395,-13.71,-17.42,-2.50,-3.38,1.11,-7.21,
3.397,-13.71,-17.42,-2.50,-3.64,1.05,-7.28,
3.399,-14.54,-17.79,-1.50,-3.64,1.05,-7.28,
3.399,-14.54,-17.79,-1.50,-3.88,0.97,-7.34,
3.402,-14.54,-17.79,-1.50,-4.13,0.87,-7.41,
3.405,-14.54,-17.79,-1.50,-4.36,0.75,-7.49,
3.407,-14.54,-17.79,-1.50,-4.59,0.62,-7.57,
3.408,-15.38,-18.08,-0.41,-4.59,0.62,-7.57,
3.409,-16.21,-18.21,0.71,-4.59,0.62,-7.57,
3.41,-16.21,-18.21,0.71,-4.80,0.47,-7.65,
3.412,-16.21,-18.21,0.71,-5.00,0.31,-7.73,
3.414,-16.21,-18.21,0.71,-5.19,0.12,-7.81,
3.414,-16.92,-18.17,1.85,-5.19,0.12,-7.81,
3.418,-16.92,-18.17,1.85,-5.36,-0.08,-7.90,
3.419,-17.38,-17.92,2.96,-5.36,-0.08,-7.90,
3.419,-17.38,-17.92,2.96,-5.52,-0.30,-7.98,
3.423,-17.38,-17.92,2.96,-5.67,-0.52,-8.07,
3.425,-17.38,-17.92,2.96,-5.79,-0.74,-8.15,
3.425,-17.60,-17.34,3.95,-5.79,-0.74,-8.15,
3.427,-17.60,-17.34,3.95,-5.90,-0.97,-8.23,
3.429,-17.70,-16.45,4.82,-5.90,-0.97,-8.23,
3.43,-17.70,-16.45,4.82,-5.99,-1.17,-8.31,
3.431,-17.70,-16.45,4.82,-6.06,-1.37,-8.38,
3.434,-17.70,-16.45,4.82,-6.11,-1.55,-8.45,
3.435,-17.86,-15.30,5.59,-6.11,-1.55,-8.45,
3.436,-17.86,-15.30,5.59,-6.13,-1.71,-8.51,
3.441,-18.08,-13.93,6.30,-6.13,-1.71,-8.51,
3.441,-18.08,-13.93,6.30,-6.13,-1.85,-8.57,
3.441,-18.08,-13.93,6.30,-6.11,-1.96,-8.62,
3.444,-18.08,-13.93,6.30,-6.06,-2.06,-8.66,
3.445,-18.41,-12.34,6.96,-6.06,-2.06,-8.66,
3.446,-18.41,-12.34,6.96,-5.98,-2.13,-8.69,
3.449,-18.78,-10.64,7.42,-5.98,-2.13,-8.69,
3.449,-18.78,-10.64,7.42,-5.89,-2.19,-8.71,
3.451,-18.78,-10.64,7.42,-5.77,-2.22,-8.72,
3.454,-19.23,-8.84,7.72,-5.77,-2.22,-8.72,
3.454,-19.23,-8.84,7.72,-5.64,-2.22,-8.72,
3.456,-19.23,-8.84,7.72,-5.48,-2.21,-8.72,
3.459,-19.23,-8.84,7.72,-5.32,-2.17,-8.71,
3.459,-19.75,-6.88,7.85,-5.32,-2.17,-8.71,
3.461,-19.75,-6.88,7.85,-5.14,-2.10,-8.69,
3.465,-19.75,-6.88,7.85,-4.96,-2.01,-8.67,
3.466,-20.30,-4.74,7.85,-4.96,-2.01,-8.67,
3.466,-20.30,-4.74,7.85,-4.77,-1.90,-8.63,
3.469,-20.30,-4.74,7.85,-4.58,-1.77,-8.58,
3.469,-20.78,-2.43,7.91,-4.58,-1.77,-8.58,
3.471,-20.78,-2.43,7.91,-4.38,-1.61,-8.51,
3.475,-20.78,-2.43,7.91,-4.18,-1.45,-8.43,
3.475,-20.97,-0.10,8.06,-4.18,-1.45,-8.43,
3.478,-20.97,-0.10,8.06,-3.98,-1.28,-8.32,
3.479,-20.97,-0.10,8.06,-3.78,-1.10,-8.19,
3.479,-21.06,2.03,8.23,-3.78,-1.10,-8.19,
3.481,-21.06,2.03,8.23,-3.58,-0.93,-8.04,
3.484,-21.06,2.03,8.23,-3.38,-0.76,-7.85,
3.484,-21.18,3.95,8.43,-3.38,-0.76,-7.85,
3.486,-21.18,3.95,8.43,-3.18,-0.61,-7.63,
3.496,-21.40,5.63,8.69,-3.18,-0.61,-7.63,
3.497,-21.40,5.63,8.69,-2.98,-0.47,-7.38,
3.497,-21.40,5.63,8.69,-2.79,-0.35,-7.08,
3.497,-21.50,7.14,9.04,-2.79,-0.35,-7.08,
3.497,-21.50,7.14,9.04,-2.60,-0.26,-6.75,
3.498,-21.50,7.14,9.04,-2.41,-0.19,-6.39,
3.499,-21.33,8.45,9.43,-2.41,-0.19,-6.39,
3.499,-21.33,8.45,9.43,-2.22,-0.16,-5.99,
3.511,-21.33,8.45,9.43,-2.03,-0.15,-5.55,
3.511,-20.84,9.53,9.81,-2.03,-0.15,-5.55,
3.512,-20.84,9.53,9.81,-1.84,-0.16,-5.09,
3.512,-20.84,9.53,9.81,-1.64,-0.21,-4.61,
3.512,-20.01,10.37,10.07,-1.64,-0.21,-4.61,
3.512,-20.01,10.37,10.07,-1.45,-0.28,-4.12,
3.513,-20.01,10.37,10.07,-1.26,-0.38,-3.62,
3.517,-18.78,10.77,10.12,-1.26,-0.38,-3.62,
3.518,-18.78,10.77,10.12,-1.06,-0.48,-3.12,
3.518,-18.78,10.77,10.12,-0.87,-0.60,-2.63,
3.519,-17.06,10.75,9.90,-0.87,-0.60,-2.63,
3.519,-17.06,10.75,9.90,-0.69,-0.73,-2.15,
3.521,-17.06,10.75,9.90,-0.51,-0.85,-1.70,
3.524,-15.09,10.22,9.21,-0.51,-0.85,-1.70,
3.525,-15.09,10.22,9.21,-0.34,-0.98,-1.28,
3.526,-15.09,10.22,9.21,-0.19,-1.09,-0.90,
3.528,-15.09,10.22,9.21,-0.06,-1.21,-0.55,
3.528,-13.06,9.28,8.15,-0.06,-1.21,-0.55,
3.531,-13.06,9.28,8.15,0.06,-1.31,-0.24,
3.534,-13.06,9.28,8.15,0.15,-1.41,0.03,
3.534,-11.01,8.10,6.88,0.15,-1.41,0.03,
3.536,-11.01,8.10,6.88,0.22,-1.51,0.27,
3.539,-9.05,6.88,5.60,0.22,-1.51,0.27,
3.54,-9.05,6.88,5.60,0.27,-1.59,0.48,
3.541,-9.05,6.88,5.60,0.30,-1.67,0.65,
3.543,-9.05,6.88,5.60,0.32,-1.75,0.79,
3.543,-7.22,5.70,4.37,0.32,-1.75,0.79,
3.545,-7.22,5.70,4.37,0.31,-1.81,0.91,
3.548,-7.22,5.70,4.37,0.29,-1.87,0.99,
3.548,-5.66,4.66,3.27,0.29,-1.87,0.99,
3.55,-5.66,4.66,3.27,0.25,-1.91,1.05,
3.553,-4.35,3.80,2.39,0.25,-1.91,1.05,
3.553,-4.35,3.80,2.39,0.21,-1.94,1.09,
3.557,-4.35,3.80,2.39,0.15,-1.95,1.10,
3.558,-3.22,3.12,1.71,0.15,-1.95,1.10,
3.559,-3.22,3.12,1.71,0.09,-1.96,1.08,
3.561,-3.22,3.12,1.71,0.03,-1.96,1.05,
3.563,-3.22,3.12,1.71,-0.04,-1.96,1.00,
3.563,-2.12,2.55,1.18,-0.04,-1.96,1.00,
3.566,-2.12,2.55,1.18,-0.11,-1.94,0.92,
3.568,-2.12,2.55,1.18,-0.18,-1.92,0.84,
3.568,-1.10,2.09,0.76,-0.18,-1.92,0.84,
3.571,-1.10,2.09,0.76,-0.26,-1.89,0.73,
3.575,-1.10,2.09,0.76,-0.33,-1.85,0.61,
3.576,-0.19,1.77,0.40,-0.33,-1.85,0.61,
3.576,-0.19,1.77,0.40,-0.41,-1.81,0.49,
3.581,0.61,1.68,0.13,-0.41,-1.81,0.49,
3.582,0.61,1.68,0.13,-0.49,-1.75,0.35,
3.582,0.61,1.68,0.13,-0.56,-1.69,0.21,
3.583,0.61,1.68,0.13,-0.63,-1.61,0.07,
3.583,1.24,1.78,-0.05,-0.63,-1.61,0.07,
3.586,1.24,1.78,-0.05,-0.70,-1.52,-0.07,
3.588,1.24,1.78,-0.05,-0.77,-1.43,-0.21,
3.596,1.70,2.03,-0.12,-0.77,-1.43,-0.21,
3.597,1.70,2.03,-0.12,-0.83,-1.32,-0.35,
3.597,1.70,2.03,-0.12,-0.88,-1.21,-0.48,
3.598,1.97,2.39,-0.10,-0.88,-1.21,-0.48,
3.598,1.97,2.39,-0.10,-0.93,-1.09,-0.61,
3.598,2.11,2.77,0.02,-0.93,-1.09,-0.61,
3.599,2.11,2.77,0.02,-0.97,-0.96,-0.73,
3.6,2.11,2.77,0.02,-1.00,-0.83,-0.85,
3.603,2.11,2.77,0.02,-1.02,-0.69,-0.96,
3.604,2.09,3.17,0.22,-1.02,-0.69,-0.96,
3.606,2.09,3.17,0.22,-1.03,-0.55,-1.06,
3.612,2.09,3.17,0.22,-1.04,-0.40,-1.16,
3.612,1.95,3.49,0.50,-1.04,-0.40,-1.16,
3.612,1.95,3.49,0.50,-1.04,-0.26,-1.25,
3.613,1.95,3.49,0.50,-1.03,-0.11,-1.34,
3.613,1.84,3.72,0.82,-1.03,-0.11,-1.34,
3.615,1.84,3.72,0.82,-1.01,0.02,-1.42,
3.618,1.77,3.87,1.21,-1.01,0.02,-1.42,
3.618,1.77,3.87,1.21,-0.99,0.16,-1.50,
3.621,1.77,3.87,1.21,-0.96,0.29,-1.58,
3.625,1.77,3.87,1.21,-0.92,0.41,-1.66,
3.625,1.63,4.03,1.71,-0.92,0.41,-1.66,
3.625,1.63,4.03,1.71,-0.88,0.53,-1.73,
3.628,1.34,4.23,2.16,-0.88,0.53,-1.73,
3.628,1.34,4.23,2.16,-0.83,0.65,-1.81,
3.63,1.34,4.23,2.16,-0.77,0.76,-1.87,
3.634,1.00,4.43,2.60,-0.77,0.76,-1.87,
3.634,1.00,4.43,2.60,-0.70,0.87,-1.93,
3.635,1.00,4.43,2.60,-0.63,0.97,-1.99,
3.638,1.00,4.43,2.60,-0.56,1.05,-2.04,
3.638,0.60,4.66,3.00,-0.56,1.05,-2.04,
3.642,0.60,4.66,3.00,-0.48,1.13,-2.10,
3.643,0.60,4.66,3.00,-0.40,1.20,-2.14,
3.644,0.20,4.89,3.33,-0.40,1.20,-2.14,
3.645,0.20,4.89,3.33,-0.32,1.26,-2.19,
3.648,-0.15,5.09,3.54,-0.32,1.26,-2.19,
3.648,-0.15,5.09,3.54,-0.23,1.32,-2.22,
3.65,-0.15,5.09,3.54,-0.15,1.36,-2.26,
3.652,-0.15,5.09,3.54,-0.07,1.41,-2.29,
3.653,-0.51,5.30,3.72,-0.07,1.41,-2.29,
3.655,-0.51,5.30,3.72,0.01,1.44,-2.31,
3.659,-0.51,5.30,3.72,0.09,1.47,-2.34,
3.66,-0.87,5.52,3.84,0.09,1.47,-2.34,
3.66,-0.87,5.52,3.84,0.16,1.49,-2.36,
3.663,-0.87,5.52,3.84,0.23,1.51,-2.38,
3.663,-1.26,5.68,3.94,0.23,1.51,-2.38,
3.665,-1.26,5.68,3.94,0.31,1.52,-2.40,
3.682,-1.26,5.68,3.94,0.37,1.53,-2.41,
3.682,-1.65,5.86,3.95,0.37,1.53,-2.41,
3.682,-1.65,5.86,3.95,0.44,1.53,-2.42,
3.683,-2.06,5.96,3.90,0.44,1.53,-2.42,
3.683,-2.06,5.96,3.90,0.50,1.53,-2.43,
3.683,-2.06,5.96,3.90,0.56,1.53,-2.45,
3.683,-2.06,5.96,3.90,0.61,1.52,-2.46,
3.683,-2.49,6.01,3.81,0.61,1.52,-2.46,
3.684,-2.49,6.01,3.81,0.66,1.52,-2.47,
3.684,-2.49,6.01,3.81,0.71,1.52,-2.48,
3.684,-2.91,6.06,3.71,0.71,1.52,-2.48,
3.692,-2.91,6.06,3.71,0.75,1.51,-2.49,
3.693,-2.91,6.06,3.71,0.79,1.50,-2.50,
3.693,-3.30,6.16,3.62,0.79,1.50,-2.50,
3.693,-3.30,6.16,3.62,0.83,1.49,-2.51,
3.693,-3.30,6.16,3.62,0.87,1.49,-2.52,
3.694,-3.70,6.26,3.47,0.87,1.49,-2.52,
3.695,-3.70,6.26,3.47,0.90,1.48,-2.53,
3.697,-4.13,6.40,3.31,0.90,1.48,-2.53,
3.698,-4.13,6.40,3.31,0.94,1.47,-2.53,
3.701,-4.13,6.40,3.31,0.96,1.47,-2.54,
3.704,-4.13,6.40,3.31,0.99,1.46,-2.54,
3.704,-4.57,6.60,3.13,0.99,1.46,-2.54,
3.704,-4.57,6.60,3.13,1.01,1.46,-2.54,
3.711,-5.05,6.82,2.96,1.01,1.46,-2.54,
3.712,-5.05,6.82,2.96,1.03,1.46,-2.54,
3.712,-5.05,6.82,2.96,1.05,1.47,-2.54,
3.715,-5.57,7.07,2.78,1.05,1.47,-2.54,
3.715,-5.57,7.07,2.78,1.06,1.48,-2.53,
3.715,-5.57,7.07,2.78,1.07,1.49,-2.52,
3.718,-6.13,7.35,2.63,1.07,1.49,-2.52,
3.718,-6.13,7.35,2.63,1.08,1.50,-2.49,
3.72,-6.13,7.35,2.63,1.09,1.52,-2.47,
3.723,-6.13,7.35,2.63,1.09,1.55,-2.44,
3.723,-6.77,7.65,2.46,1.09,1.55,-2.44,
3.724,-6.77,7.65,2.46,1.09,1.57,-2.40,
3.727,-7.49,7.95,2.35,1.09,1.57,-2.40,
3.727,-7.49,7.95,2.35,1.09,1.59,-2.36,
3.729,-7.49,7.95,2.35,1.08,1.61,-2.30,
3.732,-8.25,8.24,2.26,1.08,1.61,-2.30,
3.733,-8.25,8.24,2.26,1.07,1.63,-2.24,
3.735,-8.25,8.24,2.26,1.06,1.65,-2.17,
3.738,-8.25,8.24,2.26,1.04,1.67,-2.09,
3.738,-8.99,8.52,2.21,1.04,1.67,-2.09,
3.741,-8.99,8.52,2.21,1.02,1.68,-2.01,
3.742,-9.69,8.75,2.16,1.02,1.68,-2.01,
3.742,-9.69,8.75,2.16,0.99,1.69,-1.91,
3.744,-9.69,8.75,2.16,0.96,1.71,-1.81,
3.747,-10.32,8.95,2.14,0.96,1.71,-1.81,
3.747,-10.32,8.95,2.14,0.92,1.71,-1.70,
3.749,-10.32,8.95,2.14,0.88,1.72,-1.58,
3.751,-10.89,9.08,2.14,0.88,1.72,-1.58,
3.752,-10.89,9.08,2.14,0.83,1.73,-1.46,
3.754,-10.89,9.08,2.14,0.77,1.73,-1.32,
3.756,-11.38,9.15,2.18,0.77,1.73,-1.32,
3.757,-11.38,9.15,2.18,0.71,1.73,-1.19,
3.759,-11.38,9.15,2.18,0.65,1.73,-1.05,
3.761,-11.38,9.15,2.18,0.57,1.72,-0.90,
3.762,-11.83,9.15,2.26,0.57,1.72,-0.90,
3.764,-11.83,9.15,2.26,0.49,1.71,-0.76,
3.766,-12.20,9.07,2.38,0.49,1.71,-0.76,
3.767,-12.20,9.07,2.38,0.41,1.69,-0.61,
3.769,-12.20,9.07,2.38,0.32,1.66,-0.46,
3.771,-12.48,8.97,2.59,0.32,1.66,-0.46,
3.772,-12.48,8.97,2.59,0.24,1.63,-0.32,
3.775,-12.48,8.97,2.59,0.15,1.60,-0.17,
3.788,-12.75,8.82,2.85,0.15,1.60,-0.17,
3.788,-12.75,8.82,2.85,0.06,1.56,-0.03,
3.789,-12.75,8.82,2.85,-0.03,1.52,0.11,
3.789,-12.98,8.65,3.19,-0.03,1.52,0.11,
3.789,-12.98,8.65,3.19,-0.12,1.47,0.25,
3.789,-12.98,8.65,3.19,-0.21,1.41,0.38,
3.789,-12.98,8.65,3.19,-0.29,1.35,0.52,
3.789,-13.22,8.40,3.52,-0.29,1.35,0.52,
3.79,-13.22,8.40,3.52,-0.37,1.29,0.65,
3.799,-13.43,8.11,3.85,-0.37,1.29,0.65,
3.8,-13.43,8.11,3.85,-0.46,1.22,0.78,
3.8,-13.43,8.11,3.85,-0.53,1.15,0.90,
3.8,-13.43,8.11,3.85,-0.61,1.08,1.03,
3.8,-13.61,7.73,4.22,-0.61,1.08,1.03,
3.8,-13.61,7.73,4.22,-0.69,1.00,1.15,
3.802,-13.61,7.73,4.22,-0.75,0.92,1.28,
3.803,-13.78,7.26,4.60,-0.75,0.92,1.28,
3.805,-13.78,7.26,4.60,-0.82,0.83,1.40,
3.807,-13.78,7.26,4.60,-0.87,0.74,1.53,
3.807,-13.92,6.71,4.99,-0.87,0.74,1.53,
3.809,-13.92,6.71,4.99,-0.93,0.65,1.65,
3.811,-13.92,6.71,4.99,-0.97,0.55,1.77,
3.811,-14.03,6.15,5.35,-0.97,0.55,1.77,
3.814,-14.03,6.15,5.35,-1.02,0.44,1.90,
3.818,-14.03,6.15,5.35,-1.05,0.34,2.03,
3.818,-14.15,5.55,5.66,-1.05,0.34,2.03,
3.818,-14.15,5.55,5.66,-1.08,0.23,2.15,
3.822,-14.26,4.89,5.87,-1.08,0.23,2.15,
3.823,-14.26,4.89,5.87,-1.11,0.12,2.28,
3.825,-14.26,4.89,5.87,-1.13,0.02,2.42,
3.826,-14.32,4.09,5.99,-1.13,0.02,2.42,
3.827,-14.32,4.09,5.99,-1.15,-0.08,2.55,
3.829,-14.32,4.09,5.99,-1.17,-0.18,2.68,
3.831,-14.32,4.09,5.99,-1.18,-0.26,2.81,
3.842,-14.36,3.26,6.02,-1.18,-0.26,2.81,
3.842,-14.36,3.26,6.02,-1.18,-0.35,2.94,
3.842,-14.36,3.26,6.02,-1.18,-0.43,3.07,
3.842,-14.39,2.30,6.01,-1.18,-0.43,3.07,
3.843,-14.39,2.30,6.01,-1.18,-0.50,3.20,
3.843,-14.39,2.30,6.01,-1.17,-0.56,3.32,
3.843,-14.45,1.24,6.01,-1.17,-0.56,3.32,
3.843,-14.45,1.24,6.01,-1.16,-0.62,3.43,
3.846,-14.48,0.16,5.99,-1.16,-0.62,3.43,
3.846,-14.48,0.16,5.99,-1.14,-0.68,3.54,
3.85,-14.48,0.16,5.99,-1.11,-0.72,3.63,
3.851,-14.41,-0.88,5.96,-1.11,-0.72,3.63,
3.851,-14.41,-0.88,5.96,-1.08,-0.77,3.72,
3.854,-14.41,-0.88,5.96,-1.04,-0.81,3.80,
3.861,-14.41,-0.88,5.96,-1.00,-0.84,3.86,
3.862,-14.24,-1.80,5.92,-1.00,-0.84,3.86,
3.862,-14.24,-1.80,5.92,-0.95,-0.88,3.91,
3.863,-14.24,-1.80,5.92,-0.89,-0.92,3.95,
3.863,-14.24,-1.80,5.92,-0.83,-0.95,3.98,
3.863,-14.01,-2.50,5.86,-0.83,-0.95,3.98,
3.867,-14.01,-2.50,5.86,-0.76,-0.97,4.00,
3.868,-13.75,-3.00,5.73,-0.76,-0.97,4.00,
3.869,-13.75,-3.00,5.73,-0.68,-1.00,4.00,
3.871,-13.75,-3.00,5.73,-0.60,-1.02,4.00,
3.871,-13.55,-3.34,5.52,-0.60,-1.02,4.00,
3.879,-13.55,-3.34,5.52,-0.53,-1.03,4.00,
3.879,-13.41,-3.57,5.25,-0.53,-1.03,4.00,
3.88,-13.41,-3.57,5.25,-0.44,-1.04,3.98,
3.88,-13.41,-3.57,5.25,-0.36,-1.04,3.96,
3.881,-13.41,-3.57,5.25,-0.28,-1.04,3.94,
3.882,-13.33,-3.69,4.99,-0.28,-1.04,3.94,
3.883,-13.33,-3.69,4.99,-0.20,-1.05,3.92,
3.886,-13.33,-3.69,4.99,-0.12,-1.05,3.91,
3.886,-13.27,-3.68,4.68,-0.12,-1.05,3.91,
3.888,-13.27,-3.68,4.68,-0.05,-1.05,3.90,
3.899,-13.27,-3.68,4.68,0.02,-1.04,3.90,
3.899,-13.25,-3.67,4.30,0.02,-1.04,3.90,
3.899,-13.25,-3.67,4.30,0.08,-1.03,3.91,
3.9,-13.25,-3.67,4.30,0.13,-1.03,3.92,
3.9,-13.20,-3.73,3.93,0.13,-1.03,3.92,
3.9,-13.20,-3.73,3.93,0.18,-1.01,3.94,
3.901,-13.20,-3.73,3.93,0.22,-1.00,3.97,
3.901,-13.07,-3.82,3.63,0.22,-1.00,3.97,
3.903,-13.07,-3.82,3.63,0.25,-0.98,4.00,
3.907,-12.88,-3.97,3.41,0.25,-0.98,4.00,
3.909,-12.88,-3.97,3.41,0.27,-0.97,4.04,
3.91,-12.88,-3.97,3.41,0.28,-0.95,4.08,
3.911,-12.63,-4.16,3.25,0.28,-0.95,4.08,
3.911,-12.63,-4.16,3.25,0.30,-0.93,4.12,
3.913,-12.63,-4.16,3.25,0.31,-0.92,4.17,
3.915,-12.63,-4.16,3.25,0.32,-0.90,4.21,
3.916,-12.27,-4.36,3.22,0.32,-0.90,4.21,
3.917,-12.27,-4.36,3.22,0.33,-0.89,4.26,
3.92,-12.27,-4.36,3.22,0.34,-0.88,4.30,
3.921,-11.86,-4.59,3.31,0.34,-0.88,4.30,
3.923,-11.86,-4.59,3.31,0.36,-0.88,4.33,
3.926,-11.36,-4.80,3.50,0.36,-0.88,4.33,
3.926,-11.36,-4.80,3.50,0.38,-0.87,4.36,
3.927,-11.36,-4.80,3.50,0.41,-0.87,4.39,
3.93,-11.36,-4.80,3.50,0.45,-0.88,4.41,
3.93,-10.85,-5.02,3.73,0.45,-0.88,4.41,
3.932,-10.85,-5.02,3.73,0.50,-0.89,4.42,
3.935,-10.31,-5.21,3.98,0.50,-0.89,4.42,
3.935,-10.31,-5.21,3.98,0.56,-0.89,4.43,
3.938,-10.31,-5.21,3.98,0.63,-0.90,4.44,
3.94,-9.82,-5.43,4.22,0.63,-0.90,4.44,
3.943,-9.82,-5.43,4.22,0.71,-0.91,4.44,
3.943,-9.82,-5.43,4.22,0.80,-0.92,4.43,
3.945,-9.82,-5.43,4.22,0.90,-0.93,4.42,
3.945,-9.39,-5.64,4.41,0.90,-0.93,4.42,
3.947,-9.39,-5.64,4.41,1.01,-0.94,4.40,
3.95,-9.39,-5.64,4.41,1.13,-0.96,4.39,
3.95,-9.04,-5.82,4.50,1.13,-0.96,4.39,
3.953,-9.04,-5.82,4.50,1.26,-0.97,4.37,
3.955,-8.72,-5.99,4.49,1.26,-0.97,4.37,
3.955,-8.72,-5.99,4.49,1.39,-0.97,4.35,
3.958,-8.72,-5.99,4.49,1.53,-0.98,4.34,
3.96,-8.43,-6.14,4.37,1.53,-0.98,4.34,
3.964,-8.43,-6.14,4.37,1.69,-0.98,4.32,
3.965,-8.43,-6.14,4.37,1.84,-0.98,4.31,
3.965,-8.14,-6.24,4.17,1.84,-0.98,4.31,
3.965,-8.14,-6.24,4.17,2.00,-0.97,4.30,
3.967,-8.14,-6.24,4.17,2.16,-0.95,4.29,
3.97,-7.89,-6.33,3.88,2.16,-0.95,4.29,
3.971,-7.89,-6.33,3.88,2.33,-0.93,4.28,
3.972,-7.89,-6.33,3.88,2.49,-0.90,4.28,
3.977,-7.89,-6.33,3.88,2.66,-0.87,4.28,
3.978,-7.69,-6.44,3.54,2.66,-0.87,4.28,
3.978,-7.69,-6.44,3.54,2.82,-0.83,4.29,
3.98,-7.69,-6.44,3.54,2.98,-0.79,4.29,
3.98,-7.50,-6.55,3.18,2.98,-0.79,4.29,
3.982,-7.50,-6.55,3.18,3.15,-0.75,4.30,
3.985,-7.31,-6.64,2.83,3.15,-0.75,4.30,
3.986,-7.31,-6.64,2.83,3.31,-0.70,4.31,
3.987,-7.31,-6.64,2.83,3.46,-0.66,4.33,
3.994,-7.31,-6.64,2.83,3.62,-0.60,4.35,
3.995,-7.12,-6.78,2.45,3.62,-0.60,4.35,
4.007,-7.12,-6.78,2.45,3.77,-0.55,4.37,
4.007,-7.12,-6.78,2.45,3.91,-0.49,4.40,
4.007,-6.98,-6.90,2.02,3.91,-0.49,4.40,
4.024,-6.98,-6.90,2.02,4.05,-0.43,4.43,
4.025,-6.98,-6.90,2.02,4.19,-0.36,4.46,
4.025,-6.82,-7.04,1.56,4.19,-0.36,4.46,
4.025,-6.82,-7.04,1.56,4.31,-0.29,4.49,
4.025,-6.82,-7.04,1.56,4.43,-0.22,4.53,
4.026,-6.73,-7.24,1.14,4.43,-0.22,4.53,
4.026,-6.73,-7.24,1.14,4.55,-0.15,4.57,
4.026,-6.63,-7.52,0.75,4.55,-0.15,4.57,
4.027,-6.63,-7.52,0.75,4.65,-0.07,4.62,
4.027,-6.63,-7.52,0.75,4.75,-0.01,4.66,
4.027,-6.63,-7.52,0.75,4.84,0.06,4.71,
4.027,-6.47,-7.83,0.38,4.84,0.06,4.71,
4.028,-6.47,-7.83,0.38,4.93,0.13,4.76,
4.028,-6.47,-7.83,0.38,5.01,0.20,4.81,
4.028,-6.28,-8.14,0.01,5.01,0.20,4.81,
4.028,-6.28,-8.14,0.01,5.07,0.26,4.87,
4.029,-6.28,-8.14,0.01,5.13,0.33,4.93,
4.029,-6.02,-8.50,-0.34,5.13,0.33,4.93,
4.029,-6.02,-8.50,-0.34,5.18,0.40,4.98,
4.029,-5.67,-8.86,-0.71,5.18,0.40,4.98,
4.03,-5.67,-8.86,-0.71,5.22,0.47,5.04,
4.032,-5.67,-8.86,-0.71,5.25,0.54,5.10,
4.034,-5.67,-8.86,-0.71,5.27,0.61,5.15,
4.035,-5.20,-9.21,-1.05,5.27,0.61,5.15,
4.036,-5.20,-9.21,-1.05,5.28,0.68,5.20,
4.039,-5.20,-9.21,-1.05,5.28,0.75,5.25,
4.039,-4.64,-9.56,-1.37,5.28,0.75,5.25,
4.042,-4.64,-9.56,-1.37,5.26,0.82,5.29,
4.044,-4.64,-9.56,-1.37,5.24,0.88,5.33,
4.045,-4.05,-9.90,-1.63,5.24,0.88,5.33,
4.047,-4.05,-9.90,-1.63,5.20,0.96,5.36,
4.049,-4.05,-9.90,-1.63,5.15,1.03,5.39,
4.049,-3.43,-10.20,-1.85,5.15,1.03,5.39,
4.051,-3.43,-10.20,-1.85,5.10,1.10,5.41,
4.054,-3.43,-10.20,-1.85,5.03,1.17,5.42,
4.054,-2.79,-10.44,-2.02,5.03,1.17,5.42,
4.056,-2.79,-10.44,-2.02,4.96,1.24,5.43,
4.06,-2.79,-10.44,-2.02,4.87,1.31,5.43,
4.06,-2.22,-10.60,-2.05,4.87,1.31,5.43,
4.061,-2.22,-10.60,-2.05,4.78,1.37,5.43,
4.064,-1.61,-10.74,-2.08,4.78,1.37,5.43,
4.064,-1.61,-10.74,-2.08,4.69,1.43,5.43,
4.066,-1.61,-10.74,-2.08,4.58,1.48,5.41,
4.069,-1.61,-10.74,-2.08,4.47,1.53,5.40,
4.069,-1.06,-10.83,-2.02,4.47,1.53,5.40,
4.071,-1.06,-10.83,-2.02,4.36,1.58,5.37,
4.077,-1.06,-10.83,-2.02,4.24,1.62,5.35,
4.077,-0.57,-10.90,-1.92,4.24,1.62,5.35,
4.077,-0.57,-10.90,-1.92,4.12,1.66,5.32,
4.08,-0.57,-10.90,-1.92,3.99,1.69,5.29,
4.08,-0.14,-10.91,-1.77,3.99,1.69,5.29,
4.081,-0.14,-10.91,-1.77,3.87,1.72,5.25,
4.084,-0.14,-10.91,-1.77,3.74,1.74,5.21,
4.084,0.24,-10.94,-1.54,3.74,1.74,5.21,
4.088,0.24,-10.94,-1.54,3.61,1.76,5.17,
4.089,0.24,-10.94,-1.54,3.48,1.77,5.13,
4.089,0.56,-10.97,-1.30,3.48,1.77,5.13,
4.105,0.56,-10.97,-1.30,3.36,1.77,5.09,
4.105,0.56,-10.97,-1.30,3.23,1.77,5.04,
4.105,0.86,-11.00,-1.02,3.23,1.77,5.04,
4.105,0.86,-11.00,-1.02,3.10,1.77,5.00,
4.106,0.86,-11.00,-1.02,2.98,1.75,4.96,
4.106,1.11,-11.00,-0.73,2.98,1.75,4.96,
4.106,1.11,-11.00,-0.73,2.86,1.73,4.91,
4.106,1.33,-10.95,-0.47,2.86,1.73,4.91,
4.106,1.33,-10.95,-0.47,2.74,1.71,4.87,
4.107,1.33,-10.95,-0.47,2.62,1.68,4.83,
4.113,1.33,-10.95,-0.47,2.50,1.65,4.79,
4.114,1.54,-10.94,-0.24,2.50,1.65,4.79,
4.114,1.54,-10.94,-0.24,2.38,1.62,4.75,
4.114,1.54,-10.94,-0.24,2.26,1.58,4.71,
4.115,1.73,-10.97,-0.05,2.26,1.58,4.71,
4.116,1.73,-10.97,-0.05,2.15,1.54,4.68,
4.119,1.73,-10.97,-0.05,2.03,1.49,4.64,
4.119,1.96,-10.96,0.15,2.03,1.49,4.64,
4.121,1.96,-10.96,0.15,1.92,1.45,4.60,
4.125,2.15,-10.99,0.33,1.92,1.45,4.60,
4.125,2.15,-10.99,0.33,1.81,1.40,4.56,
4.126,2.15,-10.99,0.33,1.70,1.35,4.52,
4.129,2.15,-10.99,0.33,1.59,1.30,4.49,
4.129,2.36,-10.99,0.48,1.59,1.30,4.49,
4.131,2.36,-10.99,0.48,1.48,1.25,4.45,
4.133,2.36,-10.99,0.48,1.37,1.20,4.41,
4.134,2.54,-10.99,0.62,1.37,1.20,4.41,
4.136,2.54,-10.99,0.62,1.26,1.15,4.37,
4.139,2.54,-10.99,0.62,1.16,1.09,4.34,
4.139,2.72,-10.98,0.77,1.16,1.09,4.34,
4.141,2.72,-10.98,0.77,1.06,1.04,4.30,
4.144,2.72,-10.98,0.77,0.96,0.99,4.26,
4.144,2.88,-11.00,0.90,0.96,0.99,4.26,
4.146,2.88,-11.00,0.90,0.86,0.93,4.22,
4.148,3.03,-11.01,1.03,0.86,0.93,4.22,
4.149,3.03,-11.01,1.03,0.76,0.88,4.18,
4.151,3.03,-11.01,1.03,0.67,0.83,4.14,
4.153,3.03,-11.01,1.03,0.58,0.77,4.11,
4.153,3.19,-11.05,1.17,0.58,0.77,4.11,
4.156,3.19,-11.05,1.17,0.49,0.72,4.07,
4.158,3.19,-11.05,1.17,0.41,0.67,4.03,
4.159,3.32,-11.06,1.30,0.41,0.67,4.03,
4.161,3.32,-11.06,1.30,0.33,0.62,3.99,
4.172,3.32,-11.06,1.30,0.25,0.57,3.96,
4.173,3.48,-11.07,1.44,0.25,0.57,3.96,
4.173,3.48,-11.07,1.44,0.17,0.53,3.92,
4.173,3.48,-11.07,1.44,0.10,0.48,3.88,
4.173,3.61,-11.07,1.54,0.10,0.48,3.88,
4.173,3.61,-11.07,1.54,0.03,0.43,3.84,
4.173,3.61,-11.07,1.54,-0.03,0.38,3.80,
4.174,3.73,-11.11,1.66,-0.03,0.38,3.80,
4.176,3.73,-11.11,1.66,-0.09,0.33,3.76,
4.179,3.80,-11.14,1.78,-0.09,0.33,3.76,
4.179,3.80,-11.14,1.78,-0.15,0.29,3.71,
4.183,3.88,-11.20,1.84,-0.15,0.29,3.71,
4.183,3.88,-11.20,1.84,-0.20,0.24,3.67,
4.184,3.88,-11.20,1.84,-0.25,0.20,3.63,
4.188,3.91,-11.24,1.93,-0.25,0.20,3.63,
4.188,3.91,-11.24,1.93,-0.30,0.16,3.59,
4.189,3.91,-11.24,1.93,-0.35,0.12,3.55,
4.193,3.91,-11.24,1.93,-0.39,0.07,3.51,
4.196,3.91,-11.24,1.93,-0.43,0.03,3.47,
4.196,3.95,-11.31,1.98,-0.43,0.03,3.47,
4.196,3.95,-11.31,1.98,-0.47,-0.01,3.44,
4.2,3.95,-11.31,1.98,-0.50,-0.05,3.40,
4.201,3.96,-11.37,2.01,-0.50,-0.05,3.40,
4.201,3.96,-11.37,2.01,-0.54,-0.08,3.36,
4.204,3.96,-11.37,2.01,-0.57,-0.12,3.33,
4.204,3.98,-11.43,2.05,-0.57,-0.12,3.33,
4.205,3.98,-11.43,2.05,-0.60,-0.16,3.29,
4.213,3.98,-11.43,2.05,-0.62,-0.19,3.26,
4.214,4.06,-11.51,2.05,-0.62,-0.19,3.26,
4.214,4.06,-11.51,2.05,-0.65,-0.22,3.22,
4.214,4.06,-11.51,2.05,-0.67,-0.25,3.18,
4.214,4.17,-11.64,2.06,-0.67,-0.25,3.18,
4.216,4.17,-11.64,2.06,-0.69,-0.27,3.15,
4.218,4.17,-11.64,2.06,-0.70,-0.30,3.11,
4.218,4.29,-11.78,2.04,-0.70,-0.30,3.11,
4.221,4.29,-11.78,2.04,-0.72,-0.32,3.07,
4.223,4.29,-11.78,2.04,-0.73,-0.34,3.03,
4.223,4.41,-11.90,2.04,-0.73,-0.34,3.03,
4.227,4.41,-11.90,2.04,-0.74,-0.36,2.99,
4.231,4.53,-12.02,2.05,-0.74,-0.36,2.99,
4.232,4.53,-12.02,2.05,-0.75,-0.38,2.94,
4.232,4.53,-12.02,2.05,-0.75,-0.40,2.90,
4.233,4.68,-12.15,2.04,-0.75,-0.40,2.90,
4.233,4.68,-12.15,2.04,-0.75,-0.41,2.85,
4.235,4.68,-12.15,2.04,-0.75,-0.43,2.80,
4.238,4.68,-12.15,2.04,-0.75,-0.44,2.76,
4.238,4.85,-12.24,2.07,-0.75,-0.44,2.76,
4.24,4.85,-12.24,2.07,-0.75,-0.45,2.70,
4.244,5.03,-12.36,2.08,-0.75,-0.45,2.70,
4.244,5.03,-12.36,2.08,-0.74,-0.46,2.65,
4.245,5.03,-12.36,2.08,-0.73,-0.47,2.59,
4.248,5.03,-12.36,2.08,-0.72,-0.48,2.54,
4.248,5.22,-12.45,2.08,-0.72,-0.48,2.54,
4.25,5.22,-12.45,2.08,-0.71,-0.49,2.47,
4.252,5.22,-12.45,2.08,-0.70,-0.49,2.41,
4.253,5.43,-12.55,2.09,-0.70,-0.49,2.41,
4.255,5.43,-12.55,2.09,-0.68,-0.50,2.34,
4.259,5.64,-12.66,2.04,-0.68,-0.50,2.34,
4.26,5.64,-12.66,2.04,-0.66,-0.50,2.27,
4.26,5.64,-12.66,2.04,-0.64,-0.50,2.19,
4.262,5.64,-12.66,2.04,-0.61,-0.49,2.12,
4.263,5.82,-12.78,1.96,-0.61,-0.49,2.12,
4.265,5.82,-12.78,1.96,-0.59,-0.47,2.04,
4.268,5.82,-12.78,1.96,-0.56,-0.45,1.96,
4.268,5.98,-12.95,1.89,-0.56,-0.45,1.96,
4.27,5.98,-12.95,1.89,-0.53,-0.43,1.88,
4.272,5.98,-12.95,1.89,-0.50,-0.41,1.79,
4.273,6.17,-13.11,1.80,-0.50,-0.41,1.79,
4.276,6.17,-13.11,1.80,-0.46,-0.38,1.70,
4.277,6.17,-13.11,1.80,-0.42,-0.36,1.61,
4.278,6.35,-13.28,1.75,-0.42,-0.36,1.61,
4.28,6.35,-13.28,1.75,-0.38,-0.33,1.51,
4.283,6.52,-13.41,1.68,-0.38,-0.33,1.51,
4.284,6.52,-13.41,1.68,-0.34,-0.31,1.41,
4.285,6.52,-13.41,1.68,-0.29,-0.28,1.30,
4.287,6.52,-13.41,1.68,-0.24,-0.25,1.19,
4.287,6.75,-13.56,1.56,-0.24,-0.25,1.19,
4.29,6.75,-13.56,1.56,-0.20,-0.22,1.08,
4.296,6.75,-13.56,1.56,-0.15,-0.19,0.95,
4.296,6.95,-13.68,1.40,-0.15,-0.19,0.95,
4.296,6.95,-13.68,1.40,-0.11,-0.16,0.83,
4.298,6.95,-13.68,1.40,-0.07,-0.13,0.70,
4.298,7.19,-13.76,1.19,-0.07,-0.13,0.70,
4.299,7.19,-13.76,1.19,-0.03,-0.09,0.57,
4.307,7.43,-13.77,0.96,-0.03,-0.09,0.57,
4.307,7.43,-13.77,0.96,0.00,-0.05,0.44,
4.307,7.43,-13.77,0.96,0.04,-0.00,0.31,
4.307,7.69,-13.73,0.72,0.04,-0.00,0.31,
4.307,7.69,-13.73,0.72,0.06,0.04,0.17,
4.311,7.69,-13.73,0.72,0.08,0.08,0.02,
4.314,7.69,-13.73,0.72,0.09,0.12,-0.13,
4.314,7.92,-13.62,0.49,0.09,0.12,-0.13,
4.315,7.92,-13.62,0.49,0.10,0.17,-0.28,
4.317,7.92,-13.62,0.49,0.10,0.21,-0.42,
4.318,8.07,-13.49,0.32,0.10,0.21,-0.42,
4.319,8.07,-13.49,0.32,0.10,0.26,-0.58,
4.325,8.07,-13.49,0.32,0.10,0.31,-0.73,
4.325,8.05,-13.39,0.18,0.10,0.31,-0.73,
4.325,8.05,-13.39,0.18,0.09,0.36,-0.89,
4.33,7.94,-13.32,0.13,0.09,0.36,-0.89,
4.342,7.94,-13.32,0.13,0.08,0.41,-1.04,
4.342,7.94,-13.32,0.13,0.07,0.47,-1.19,
4.342,7.94,-13.32,0.13,0.07,0.51,-1.35,
4.342,7.79,-13.30,0.16,0.07,0.51,-1.35,
4.343,7.79,-13.30,0.16,0.06,0.55,-1.51,
4.343,7.53,-13.32,0.24,0.06,0.55,-1.51,
4.343,7.53,-13.32,0.24,0.06,0.59,-1.66,
4.343,7.53,-13.32,0.24,0.06,0.62,-1.82,
4.344,7.21,-13.36,0.39,0.06,0.62,-1.82,
4.344,7.21,-13.36,0.39,0.07,0.64,-1.97,
4.344,7.21,-13.36,0.39,0.09,0.66,-2.13,
4.348,6.80,-13.43,0.48,0.09,0.66,-2.13,
4.348,6.80,-13.43,0.48,0.11,0.68,-2.29,
4.35,6.80,-13.43,0.48,0.13,0.69,-2.44,
4.363,6.31,-13.51,0.51,0.13,0.69,-2.44,
4.363,5.67,-13.68,0.46,0.13,0.69,-2.44,
4.363,4.91,-13.85,0.28,0.13,0.69,-2.44,
4.363,4.91,-13.85,0.28,0.16,0.70,-2.60,
4.363,4.91,-13.85,0.28,0.20,0.72,-2.75,
4.364,4.91,-13.85,0.28,0.23,0.73,-2.90,
4.364,4.91,-13.85,0.28,0.28,0.74,-3.05,
4.364,4.91,-13.85,0.28,0.31,0.76,-3.19,
4.364,4.91,-13.85,0.28,0.35,0.78,-3.33,
4.367,4.04,-14.05,0.04,0.35,0.78,-3.33,
4.367,4.04,-14.05,0.04,0.39,0.79,-3.46,
4.369,4.04,-14.05,0.04,0.41,0.80,-3.58,
4.371,4.04,-14.05,0.04,0.44,0.82,-3.69,
4.372,3.23,-14.26,-0.28,0.44,0.82,-3.69,
4.375,3.23,-14.26,-0.28,0.47,0.83,-3.79,
4.378,3.23,-14.26,-0.28,0.48,0.84,-3.89,
4.378,2.50,-14.57,-0.67,0.48,0.84,-3.89,
4.38,2.50,-14.57,-0.67,0.49,0.85,-3.98,
4.382,1.90,-14.93,-1.07,0.49,0.85,-3.98,
4.383,1.90,-14.93,-1.07,0.48,0.86,-4.06,
4.384,1.90,-14.93,-1.07,0.46,0.87,-4.14,
4.387,1.90,-14.93,-1.07,0.42,0.87,-4.22,
4.387,1.39,-15.32,-1.59,0.42,0.87,-4.22,
4.391,1.39,-15.32,-1.59,0.37,0.87,-4.30,
4.392,1.39,-15.32,-1.59,0.30,0.88,-4.38,
4.395,0.95,-15.73,-2.15,0.30,0.88,-4.38,
4.395,0.95,-15.73,-2.15,0.21,0.88,-4.46,
4.398,0.95,-15.73,-2.15,0.10,0.88,-4.55,
4.398,0.56,-16.19,-2.63,0.10,0.88,-4.55,
4.399,0.56,-16.19,-2.63,-0.02,0.89,-4.65,
4.401,0.56,-16.19,-2.63,-0.16,0.89,-4.76,
4.401,0.22,-16.73,-2.97,-0.16,0.89,-4.76,
4.404,0.22,-16.73,-2.97,-0.30,0.90,-4.89,
4.406,0.22,-16.73,-2.97,-0.46,0.90,-5.02,
4.407,-0.08,-17.30,-3.13,-0.46,0.90,-5.02,
4.409,-0.08,-17.30,-3.13,-0.62,0.90,-5.17,
4.414,-0.43,-17.87,-3.11,-0.62,0.90,-5.17,
4.414,-0.43,-17.87,-3.11,-0.78,0.90,-5.33,
4.415,-0.43,-17.87,-3.11,-0.94,0.91,-5.51,
4.417,-0.43,-17.87,-3.11,-1.09,0.91,-5.69,
4.417,-0.92,-18.42,-2.84,-1.09,0.91,-5.69,
4.419,-0.92,-18.42,-2.84,-1.24,0.91,-5.88,
4.421,-1.66,-18.85,-2.39,-1.24,0.91,-5.88,
4.422,-1.66,-18.85,-2.39,-1.38,0.90,-6.08,
4.423,-1.66,-18.85,-2.39,-1.50,0.88,-6.28,
4.427,-2.54,-19.14,-1.78,-1.50,0.88,-6.28,
4.428,-2.54,-19.14,-1.78,-1.61,0.84,-6.49,
4.429,-2.54,-19.14,-1.78,-1.71,0.80,-6.69,
4.431,-3.59,-19.27,-1.20,-1.71,0.80,-6.69,
4.431,-3.59,-19.27,-1.20,-1.79,0.75,-6.89,
4.433,-3.59,-19.27,-1.20,-1.85,0.70,-7.09,
4.436,-3.59,-19.27,-1.20,-1.90,0.64,-7.27,
4.437,-4.83,-19.26,-0.74,-1.90,0.64,-7.27,
4.438,-4.83,-19.26,-0.74,-1.94,0.58,-7.45,
4.441,-4.83,-19.26,-0.74,-1.96,0.51,-7.61,
4.441,-6.18,-19.07,-0.41,-1.96,0.51,-7.61,
4.444,-6.18,-19.07,-0.41,-1.98,0.45,-7.75,
4.446,-6.18,-19.07,-0.41,-1.99,0.39,-7.88,
4.446,-7.60,-18.75,-0.25,-1.99,0.39,-7.88,
4.448,-7.60,-18.75,-0.25,-1.99,0.33,-7.98,
4.451,-9.02,-18.41,-0.22,-1.99,0.33,-7.98,
4.452,-9.02,-18.41,-0.22,-1.99,0.27,-8.08,
4.453,-9.02,-18.41,-0.22,-1.99,0.21,-8.15,
4.456,-9.02,-18.41,-0.22,-2.00,0.15,-8.21,
4.456,-10.37,-18.06,-0.31,-2.00,0.15,-8.21,
4.46,-10.37,-18.06,-0.31,-2.01,0.09,-8.25,
4.461,-10.37,-18.06,-0.31,-2.02,0.03,-8.27,
4.462,-11.59,-17.75,-0.44,-2.02,0.03,-8.27,
4.463,-11.59,-17.75,-0.44,-2.05,-0.01,-8.28,
4.466,-11.59,-17.75,-0.44,-2.08,-0.05,-8.28,
4.466,-12.67,-17.46,-0.59,-2.08,-0.05,-8.28,
4.468,-12.67,-17.46,-0.59,-2.12,-0.09,-8.28,
4.472,-12.67,-17.46,-0.59,-2.16,-0.13,-8.26,
4.472,-13.57,-17.26,-0.69,-2.16,-0.13,-8.26,
4.473,-13.57,-17.26,-0.69,-2.22,-0.15,-8.25,
4.476,-13.57,-17.26,-0.69,-2.29,-0.18,-8.23,
4.476,-14.35,-17.14,-0.70,-2.29,-0.18,-8.23,
4.478,-14.35,-17.14,-0.70,-2.36,-0.21,-8.22,
4.481,-14.35,-17.14,-0.70,-2.43,-0.23,-8.21,
4.481,-15.13,-17.11,-0.61,-2.43,-0.23,-8.21,
4.484,-15.13,-17.11,-0.61,-2.51,-0.26,-8.20,
4.486,-15.13,-17.11,-0.61,-2.59,-0.28,-8.19,
4.486,-15.83,-17.13,-0.33,-2.59,-0.28,-8.19,
4.488,-15.83,-17.13,-0.33,-2.67,-0.31,-8.20,
4.491,-16.41,-17.10,0.11,-2.67,-0.31,-8.20,
4.491,-16.41,-17.10,0.11,-2.74,-0.35,-8.20,
4.503,-16.41,-17.10,0.11,-2.80,-0.39,-8.22,
4.503,-16.41,-17.10,0.11,-2.86,-0.43,-8.24,
4.503,-16.93,-17.03,0.62,-2.86,-0.43,-8.24,
4.503,-16.93,-17.03,0.62,-2.90,-0.47,-8.26,
4.504,-16.93,-17.03,0.62,-2.94,-0.52,-8.30,
4.504,-17.31,-16.79,1.22,-2.94,-0.52,-8.30,
4.504,-17.31,-16.79,1.22,-2.96,-0.57,-8.33,
4.507,-17.64,-16.39,1.84,-2.96,-0.57,-8.33,
4.508,-17.64,-16.39,1.84,-2.97,-0.62,-8.38,
4.508,-17.64,-16.39,1.84,-2.96,-0.67,-8.43,
4.529,-17.64,-16.39,1.84,-2.94,-0.72,-8.49,
4.53,-18.02,-15.77,2.46,-2.94,-0.72,-8.49,
4.53,-18.02,-15.77,2.46,-2.91,-0.76,-8.55,
4.53,-18.02,-15.77,2.46,-2.86,-0.80,-8.62,
4.53,-18.39,-14.93,3.09,-2.86,-0.80,-8.62,
4.531,-18.39,-14.93,3.09,-2.79,-0.84,-8.69,
4.531,-18.68,-13.81,3.65,-2.79,-0.84,-8.69,
4.531,-18.68,-13.81,3.65,-2.72,-0.88,-8.76,
4.531,-18.68,-13.81,3.65,-2.62,-0.91,-8.84,
4.531,-18.92,-12.33,4.09,-2.62,-0.91,-8.84,
4.531,-18.92,-12.33,4.09,-2.52,-0.93,-8.91,
4.532,-18.92,-12.33,4.09,-2.41,-0.94,-8.98,
4.532,-19.21,-10.56,4.46,-2.41,-0.94,-8.98,
4.532,-19.21,-10.56,4.46,-2.28,-0.95,-9.05,
4.533,-19.21,-10.56,4.46,-2.15,-0.94,-9.11,
4.535,-19.21,-10.56,4.46,-2.01,-0.92,-9.17,
4.535,-19.70,-8.57,4.71,-2.01,-0.92,-9.17,
4.538,-19.70,-8.57,4.71,-1.87,-0.90,-9.22,
4.542,-20.30,-6.43,4.92,-1.87,-0.90,-9.22,
4.543,-20.30,-6.43,4.92,-1.73,-0.87,-9.25,
4.544,-20.30,-6.43,4.92,-1.58,-0.83,-9.27,
4.548,-20.83,-4.25,5.12,-1.58,-0.83,-9.27,
4.548,-20.83,-4.25,5.12,-1.44,-0.78,-9.26,
4.548,-20.83,-4.25,5.12,-1.30,-0.72,-9.24,
4.551,-20.83,-4.25,5.12,-1.16,-0.65,-9.20,
4.551,-21.34,-2.20,5.32,-1.16,-0.65,-9.20,
4.553,-21.34,-2.20,5.32,-1.02,-0.59,-9.12,
4.555,-21.34,-2.20,5.32,-0.89,-0.53,-9.01,
4.555,-21.91,-0.24,5.56,-0.89,-0.53,-9.01,
4.557,-21.91,-0.24,5.56,-0.75,-0.48,-8.86,
4.56,-22.42,1.68,5.82,-0.75,-0.48,-8.86,
4.562,-22.42,1.68,5.82,-0.62,-0.45,-8.68,
4.562,-22.42,1.68,5.82,-0.50,-0.42,-8.46,
4.565,-22.42,1.68,5.82,-0.37,-0.42,-8.20,
4.565,-22.82,3.50,6.13,-0.37,-0.42,-8.20,
4.567,-22.82,3.50,6.13,-0.25,-0.43,-7.90,
4.57,-22.82,3.50,6.13,-0.13,-0.47,-7.56,
4.57,-23.07,5.23,6.42,-0.13,-0.47,-7.56,
4.572,-23.07,5.23,6.42,-0.01,-0.52,-7.19,
4.575,-23.07,5.23,6.42,0.11,-0.60,-6.79,
4.575,-23.06,6.78,6.57,0.11,-0.60,-6.79,
4.578,-23.06,6.78,6.57,0.23,-0.70,-6.35,
4.58,-23.06,6.78,6.57,0.34,-0.81,-5.90,
4.58,-22.78,7.97,6.59,0.34,-0.81,-5.90,
4.582,-22.78,7.97,6.59,0.45,-0.94,-5.42,
4.586,-22.28,8.67,6.36,0.45,-0.94,-5.42,
4.586,-22.28,8.67,6.36,0.55,-1.07,-4.93,
4.587,-22.28,8.67,6.36,0.64,-1.21,-4.43,
4.59,-21.36,8.91,5.90,0.64,-1.21,-4.43,
4.59,-21.36,8.91,5.90,0.73,-1.35,-3.94,
4.595,-21.36,8.91,5.90,0.81,-1.49,-3.45,
4.603,-21.36,8.91,5.90,0.87,-1.64,-2.97,
4.603,-19.99,8.76,5.21,0.87,-1.64,-2.97,
4.604,-19.99,8.76,5.21,0.92,-1.78,-2.51,
4.604,-19.99,8.76,5.21,0.96,-1.91,-2.08,
4.604,-18.29,8.27,4.32,0.96,-1.91,-2.08,
4.606,-18.29,8.27,4.32,0.98,-2.04,-1.68,
4.607,-16.39,7.54,3.30,0.98,-2.04,-1.68,
4.607,-16.39,7.54,3.30,0.98,-2.16,-1.31,
4.607,-16.39,7.54,3.30,0.97,-2.27,-0.97,
4.625,-14.36,6.72,2.25,0.97,-2.27,-0.97,
4.626,-14.36,6.72,2.25,0.95,-2.38,-0.67,
4.626,-14.36,6.72,2.25,0.91,-2.49,-0.40,
4.626,-14.36,6.72,2.25,0.85,-2.60,-0.17,
4.627,-12.31,5.85,1.23,0.85,-2.60,-0.17,
4.627,-12.31,5.85,1.23,0.78,-2.70,0.04,
4.627,-10.37,4.96,0.24,0.78,-2.70,0.04,
4.627,-10.37,4.96,0.24,0.70,-2.80,0.21,
4.628,-10.37,4.96,0.24,0.59,-2.90,0.35,
4.628,-10.37,4.96,0.24,0.47,-2.99,0.46,
4.628,-8.51,4.17,-0.69,0.47,-2.99,0.46,
4.628,-8.51,4.17,-0.69,0.34,-3.08,0.54,
4.629,-6.76,3.52,-1.51,0.34,-3.08,0.54,
4.63,-6.76,3.52,-1.51,0.18,-3.16,0.59,
4.632,-6.76,3.52,-1.51,0.02,-3.23,0.62,
4.636,-5.24,3.10,-2.17,0.02,-3.23,0.62,
4.636,-5.24,3.10,-2.17,-0.16,-3.29,0.63,
4.638,-5.24,3.10,-2.17,-0.34,-3.33,0.61,
4.64,-3.95,2.92,-2.69,-0.34,-3.33,0.61,
4.64,-3.95,2.92,-2.69,-0.54,-3.36,0.58,
4.642,-3.95,2.92,-2.69,-0.73,-3.38,0.54,
4.644,-3.95,2.92,-2.69,-0.93,-3.39,0.48,
4.644,-2.92,2.86,-3.00,-0.93,-3.39,0.48,
4.647,-2.92,2.86,-3.00,-1.13,-3.39,0.41,
4.65,-2.92,2.86,-3.00,-1.33,-3.37,0.33,
4.65,-2.10,2.81,-3.10,-1.33,-3.37,0.33,
4.652,-2.10,2.81,-3.10,-1.53,-3.35,0.24,
4.654,-2.10,2.81,-3.10,-1.71,-3.32,0.16,
4.655,-1.50,2.77,-3.00,-1.71,-3.32,0.16,
4.656,-1.50,2.77,-3.00,-1.90,-3.28,0.07,
4.668,-1.50,2.77,-3.00,-2.07,-3.24,-0.03,
4.668,-1.03,2.75,-2.75,-2.07,-3.24,-0.03,
4.668,-1.03,2.75,-2.75,-2.23,-3.20,-0.12,
4.668,-1.03,2.75,-2.75,-2.38,-3.15,-0.21,
4.668,-0.64,2.73,-2.40,-2.38,-3.15,-0.21,
4.668,-0.64,2.73,-2.40,-2.52,-3.09,-0.30,
4.67,-0.64,2.73,-2.40,-2.64,-3.03,-0.39,
4.67,-0.33,2.76,-1.97,-2.64,-3.03,-0.39,
4.672,-0.33,2.76,-1.97,-2.76,-2.97,-0.48,
4.674,-0.33,2.76,-1.97,-2.86,-2.90,-0.57,
4.674,-0.05,2.85,-1.50,-2.86,-2.90,-0.57,
4.677,-0.05,2.85,-1.50,-2.95,-2.82,-0.66,
4.679,-0.05,2.85,-1.50,-3.02,-2.73,-0.75,
4.679,0.21,3.00,-1.02,-3.02,-2.73,-0.75,
4.681,0.21,3.00,-1.02,-3.09,-2.64,-0.83,
4.684,0.21,3.00,-1.02,-3.14,-2.53,-0.92,
4.684,0.38,3.17,-0.50,-3.14,-2.53,-0.92,
4.687,0.38,3.17,-0.50,-3.17,-2.42,-1.01,
4.689,0.38,3.17,-0.50,-3.19,-2.30,-1.09,
4.689,0.51,3.37,0.07,-3.19,-2.30,-1.09,
4.691,0.51,3.37,0.07,-3.19,-2.17,-1.17,
4.694,0.51,3.37,0.07,-3.19,-2.04,-1.25,
4.706,0.58,3.58,0.62,-3.19,-2.04,-1.25,
4.707,0.58,3.58,0.62,-3.17,-1.89,-1.32,
4.707,0.58,3.58,0.62,-3.13,-1.75,-1.40,
4.707,0.49,3.75,1.20,-3.13,-1.75,-1.40,
4.707,0.49,3.75,1.20,-3.08,-1.60,-1.47,
4.708,0.27,3.86,1.80,-3.08,-1.60,-1.47,
4.708,0.27,3.86,1.80,-3.02,-1.45,-1.54,
4.708,0.27,3.86,1.80,-2.94,-1.29,-1.61,
4.712,-0.11,3.97,2.41,-2.94,-1.29,-1.61,
4.712,-0.11,3.97,2.41,-2.84,-1.15,-1.68,
4.712,-0.11,3.97,2.41,-2.74,-1.01,-1.75,
4.714,-0.11,3.97,2.41,-2.62,-0.88,-1.81,
4.714,-0.57,4.12,2.95,-2.62,-0.88,-1.81,
4.716,-0.57,4.12,2.95,-2.49,-0.75,-1.88,
4.72,-1.10,4.32,3.38,-2.49,-0.75,-1.88,
4.72,-1.10,4.32,3.38,-2.35,-0.63,-1.93,
4.721,-1.10,4.32,3.38,-2.20,-0.53,-1.99,
4.724,-1.74,4.62,3.69,-2.20,-0.53,-1.99,
4.724,-1.74,4.62,3.69,-2.06,-0.44,-2.04,
4.727,-1.74,4.62,3.69,-1.91,-0.35,-2.08,
4.729,-1.74,4.62,3.69,-1.76,-0.28,-2.12,
4.729,-2.33,4.99,3.78,-1.76,-0.28,-2.12,
4.732,-2.33,4.99,3.78,-1.61,-0.23,-2.15,
4.734,-2.33,4.99,3.78,-1.47,-0.18,-2.17,
4.734,-2.85,5.36,3.73,-1.47,-0.18,-2.17,
4.736,-2.85,5.36,3.73,-1.35,-0.13,-2.20,
4.739,-3.29,5.79,3.55,-1.35,-0.13,-2.20,
4.739,-3.29,5.79,3.55,-1.22,-0.10,-2.21,
4.741,-3.29,5.79,3.55,-1.11,-0.07,-2.22,
4.743,-3.63,6.22,3.22,-1.11,-0.07,-2.22,
4.745,-3.63,6.22,3.22,-1.01,-0.03,-2.22,
4.746,-3.63,6.22,3.22,-0.92,0.00,-2.21,
4.749,-3.87,6.61,2.82,-0.92,0.00,-2.21,
4.749,-3.87,6.61,2.82,-0.85,0.03,-2.20,
4.751,-3.87,6.61,2.82,-0.79,0.07,-2.18,
4.754,-3.87,6.61,2.82,-0.75,0.11,-2.17,
4.754,-3.99,6.90,2.39,-0.75,0.11,-2.17,
4.756,-3.99,6.90,2.39,-0.72,0.16,-2.15,
4.759,-4.01,7.11,1.96,-0.72,0.16,-2.15,
4.76,-4.01,7.11,1.96,-0.70,0.21,-2.14,
4.761,-4.01,7.11,1.96,-0.69,0.27,-2.13,
4.763,-4.00,7.28,1.67,-0.69,0.27,-2.13,
4.764,-4.00,7.28,1.67,-0.69,0.33,-2.12,
4.765,-4.00,7.28,1.67,-0.70,0.40,-2.12,
4.768,-4.04,7.38,1.50,-0.70,0.40,-2.12,
4.768,-4.04,7.38,1.50,-0.71,0.48,-2.13,
4.771,-4.04,7.38,1.50,-0.73,0.55,-2.14,
4.773,-4.19,7.38,1.54,-0.73,0.55,-2.14,
4.774,-4.19,7.38,1.54,-0.75,0.63,-2.16,
4.779,-4.19,7.38,1.54,-0.78,0.70,-2.19,
4.78,-4.42,7.28,1.73,-0.78,0.70,-2.19,
4.78,-4.42,7.28,1.73,-0.80,0.77,-2.23,
4.78,-4.42,7.28,1.73,-0.82,0.85,-2.27,
4.783,-4.76,7.19,2.00,-0.82,0.85,-2.27,
4.784,-4.76,7.19,2.00,-0.84,0.92,-2.32,
4.785,-4.76,7.19,2.00,-0.86,0.98,-2.38,
4.789,-5.20,7.09,2.31,-0.86,0.98,-2.38,
4.789,-5.20,7.09,2.31,-0.87,1.06,-2.44,
4.79,-5.20,7.09,2.31,-0.88,1.13,-2.50,
4.795,-5.71,7.09,2.62,-0.88,1.13,-2.50,
4.798,-5.71,7.09,2.62,-0.88,1.21,-2.56,
4.798,-5.71,7.09,2.62,-0.88,1.29,-2.62,
4.798,-5.71,7.09,2.62,-0.86,1.38,-2.68,
4.798,-6.32,7.20,3.00,-0.86,1.38,-2.68,
4.802,-6.32,7.20,3.00,-0.85,1.47,-2.73,
4.803,-6.32,7.20,3.00,-0.83,1.56,-2.78,
4.803,-7.00,7.40,3.36,-0.83,1.56,-2.78,
4.805,-7.00,7.40,3.36,-0.80,1.66,-2.82,
4.808,-7.00,7.40,3.36,-0.76,1.76,-2.85,
4.818,-7.75,7.68,3.79,-0.76,1.76,-2.85,
4.819,-7.75,7.68,3.79,-0.72,1.86,-2.88,
4.819,-8.56,8.06,4.29,-0.72,1.86,-2.88,
4.819,-8.56,8.06,4.29,-0.67,1.96,-2.89,
4.819,-8.56,8.06,4.29,-0.61,2.06,-2.90,
4.819,-8.56,8.06,4.29,-0.54,2.16,-2.89,
4.819,-9.44,8.49,4.82,-0.54,2.16,-2.89,
4.82,-9.44,8.49,4.82,-0.47,2.25,-2.87,
4.823,-9.44,8.49,4.82,-0.39,2.35,-2.84,
4.836,-10.37,8.94,5.39,-0.39,2.35,-2.84,
4.836,-10.37,8.94,5.39,-0.30,2.43,-2.80,
4.836,-11.40,9.39,5.92,-0.30,2.43,-2.80,
4.837,-11.40,9.39,5.92,-0.20,2.52,-2.74,
4.837,-11.40,9.39,5.92,-0.10,2.59,-2.66,
4.837,-11.40,9.39,5.92,-0.00,2.66,-2.57,
4.837,-12.48,9.81,6.43,-0.00,2.66,-2.57,
4.838,-12.48,9.81,6.43,0.11,2.72,-2.45,
4.838,-13.47,10.24,6.94,0.11,2.72,-2.45,
4.838,-13.47,10.24,6.94,0.23,2.77,-2.33,
4.842,-13.47,10.24,6.94,0.35,2.81,-2.19,
4.843,-13.47,10.24,6.94,0.47,2.84,-2.03,
4.843,-14.37,10.55,7.36,0.47,2.84,-2.03,
4.845,-14.37,10.55,7.36,0.59,2.87,-1.86,
4.848,-14.37,10.55,7.36,0.72,2.88,-1.68,
4.848,-15.15,10.73,7.72,0.72,2.88,-1.68,
4.85,-15.15,10.73,7.72,0.85,2.89,-1.49,
4.853,-15.15,10.73,7.72,0.97,2.89,-1.28,
4.853,-15.68,10.81,8.03,0.97,2.89,-1.28,
4.856,-15.68,10.81,8.03,1.10,2.88,-1.07,
4.858,-15.68,10.81,8.03,1.23,2.86,-0.85,
4.859,-16.11,10.77,8.19,1.23,2.86,-0.85,
4.862,-16.11,10.77,8.19,1.35,2.84,-0.63,
4.863,-16.37,10.63,8.23,1.35,2.84,-0.63,
4.863,-16.37,10.63,8.23,1.47,2.79,-0.40,
4.865,-16.37,10.63,8.23,1.59,2.74,-0.18,
4.869,-16.47,10.44,8.12,1.59,2.74,-0.18,
4.869,-16.47,10.44,8.12,1.70,2.68,0.05,
4.871,-16.47,10.44,8.12,1.80,2.62,0.28,
4.873,-16.47,10.44,8.12,1.89,2.55,0.50,
4.874,-16.39,10.11,7.87,1.89,2.55,0.50,
4.875,-16.39,10.11,7.87,1.98,2.47,0.71,
4.878,-16.39,10.11,7.87,2.05,2.40,0.93,
4.878,-16.18,9.61,7.50,2.05,2.40,0.93,
4.88,-16.18,9.61,7.50,2.12,2.32,1.13,
4.883,-15.87,8.95,7.05,2.12,2.32,1.13,
4.883,-15.87,8.95,7.05,2.17,2.25,1.33,
4.885,-15.87,8.95,7.05,2.21,2.19,1.51,
4.887,-15.55,8.17,6.55,2.21,2.19,1.51,
4.888,-15.55,8.17,6.55,2.23,2.13,1.69,
4.895,-15.55,8.17,6.55,2.25,2.08,1.86,
4.906,-15.26,7.30,6.02,2.25,2.08,1.86,
4.908,-15.26,7.30,6.02,2.26,2.03,2.02,
