
time,ax,ay,az,wx,wy,wz,
0.008,-0.19,-0.10,0.95,0.35,0.15,0.20,
0.009,-0.27,-0.13,0.72,0.35,0.15,0.20,
0.009,-0.27,-0.13,0.72,0.32,0.14,0.19,
0.009,-0.27,-0.13,0.72,0.29,0.14,0.17,
0.009,-0.27,-0.13,0.72,0.26,0.15,0.16,
0.01,-0.31,-0.15,0.34,0.26,0.15,0.16,
0.01,-0.31,-0.15,0.34,0.22,0.16,0.15,
0.01,-0.31,-0.15,0.34,0.18,0.18,0.14,
0.01,-0.35,-0.11,-0.04,0.18,0.18,0.14,
0.013,-0.35,-0.11,-0.04,0.14,0.18,0.13,
0.016,-0.36,-0.04,-0.20,0.14,0.18,0.13,
0.016,-0.36,-0.04,-0.20,0.11,0.18,0.12,
0.017,-0.36,-0.04,-0.20,0.09,0.18,0.10,
0.02,-0.36,-0.04,-0.20,0.06,0.17,0.09,
0.02,-0.46,0.06,-0.32,0.06,0.17,0.09,
0.023,-0.46,0.06,-0.32,0.05,0.17,0.08,
0.025,-0.52,0.17,-0.44,0.05,0.17,0.08,
0.026,-0.52,0.17,-0.44,0.03,0.17,0.08,
0.028,-0.52,0.17,-0.44,0.02,0.17,0.07,
0.03,-0.52,0.17,-0.44,0.02,0.17,0.07,
0.03,-0.54,0.27,-0.49,0.02,0.17,0.07,
0.032,-0.54,0.27,-0.49,0.01,0.17,0.07,
0.035,-0.54,0.27,-0.49,0.02,0.18,0.07,
0.035,-0.54,0.35,-0.56,0.02,0.18,0.07,
0.037,-0.54,0.35,-0.56,0.02,0.18,0.07,
0.039,-0.54,0.35,-0.56,0.03,0.19,0.08,
0.04,-0.59,0.41,-0.63,0.03,0.19,0.08,
0.042,-0.59,0.41,-0.63,0.03,0.20,0.08,
0.044,-0.59,0.41,-0.63,0.04,0.21,0.09,
0.045,-0.58,0.46,-0.75,0.04,0.21,0.09,
0.047,-0.58,0.46,-0.75,0.05,0.22,0.11,
0.05,-0.62,0.46,-0.86,0.05,0.22,0.11,
0.05,-0.62,0.46,-0.86,0.06,0.23,0.12,
0.052,-0.62,0.46,-0.86,0.07,0.24,0.14,
0.054,-0.62,0.46,-0.86,0.08,0.25,0.16,
0.054,-0.61,0.45,-0.96,0.08,0.25,0.16,
0.057,-0.61,0.45,-0.96,0.08,0.26,0.17,
0.059,-0.61,0.45,-0.96,0.08,0.27,0.19,
0.06,-0.55,0.43,-1.05,0.08,0.27,0.19,
0.062,-0.55,0.43,-1.05,0.09,0.28,0.21,
0.065,-0.55,0.43,-1.05,0.09,0.28,0.23,
0.065,-0.47,0.39,-1.08,0.09,0.28,0.23,
0.067,-0.47,0.39,-1.08,0.09,0.29,0.25,
0.069,-0.47,0.39,-1.08,0.09,0.31,0.28,
0.07,-0.47,0.34,-1.23,0.09,0.31,0.28,
0.072,-0.47,0.34,-1.23,0.08,0.32,0.30,
0.075,-0.47,0.34,-1.23,0.08,0.32,0.32,
0.075,-0.33,0.28,-1.11,0.08,0.32,0.32,
0.077,-0.33,0.28,-1.11,0.07,0.32,0.34,
0.08,-0.33,0.28,-1.11,0.07,0.32,0.36,
0.08,-0.19,0.17,-0.85,0.07,0.32,0.36,
0.082,-0.19,0.17,-0.85,0.07,0.31,0.38,
0.084,-0.19,0.17,-0.85,0.07,0.31,0.39,
0.085,-0.13,0.03,-0.61,0.07,0.31,0.39,
0.087,-0.13,0.03,-0.61,0.07,0.30,0.41,
0.09,-0.04,-0.09,-0.37,0.07,0.30,0.41,
0.09,-0.04,-0.09,-0.37,0.08,0.29,0.43,
0.091,-0.04,-0.09,-0.37,0.08,0.28,0.44,
0.094,-0.04,-0.09,-0.37,0.08,0.27,0.46,
0.095,0.05,-0.21,-0.23,0.08,0.27,0.46,
0.105,0.05,-0.21,-0.23,0.09,0.26,0.47,
0.105,0.05,-0.21,-0.23,0.09,0.25,0.48,
0.106,0.20,-0.35,-0.16,0.09,0.25,0.48,
0.106,0.20,-0.35,-0.16,0.09,0.24,0.49,
0.106,0.20,-0.35,-0.16,0.09,0.23,0.50,
0.107,0.36,-0.47,-0.18,0.09,0.23,0.50,
0.107,0.36,-0.47,-0.18,0.09,0.22,0.50,
0.109,0.36,-0.47,-0.18,0.08,0.21,0.50,
0.109,0.48,-0.57,-0.16,0.08,0.21,0.50,
0.111,0.48,-0.57,-0.16,0.08,0.20,0.50,
0.114,0.48,-0.57,-0.16,0.07,0.19,0.50,
0.115,0.55,-0.65,-0.12,0.07,0.19,0.50,
0.116,0.55,-0.65,-0.12,0.07,0.17,0.50,
0.119,0.55,-0.65,-0.12,0.07,0.16,0.50,
0.12,0.62,-0.71,-0.07,0.07,0.16,0.50,
0.121,0.62,-0.71,-0.07,0.06,0.15,0.50,
0.124,0.65,-0.76,-0.04,0.06,0.15,0.50,
0.124,0.65,-0.76,-0.04,0.06,0.15,0.50,
0.126,0.65,-0.76,-0.04,0.06,0.14,0.50,
0.13,0.65,-0.76,-0.04,0.05,0.13,0.50,
0.13,0.67,-0.75,-0.02,0.05,0.13,0.50,
0.132,0.67,-0.75,-0.02,0.05,0.12,0.50,
0.134,0.68,-0.75,-0.04,0.05,0.12,0.50,
0.134,0.68,-0.75,-0.04,0.04,0.11,0.50,
0.136,0.68,-0.75,-0.04,0.04,0.10,0.50,
0.139,0.68,-0.75,-0.04,0.03,0.09,0.50,
0.139,0.66,-0.74,-0.08,0.03,0.09,0.50,
0.141,0.66,-0.74,-0.08,0.02,0.09,0.50,
0.144,0.66,-0.74,-0.08,0.01,0.08,0.50,
0.144,0.64,-0.74,-0.10,0.01,0.08,0.50,
0.146,0.64,-0.74,-0.10,0.01,0.08,0.50,
0.149,0.61,-0.71,-0.12,0.01,0.08,0.50,
0.149,0.61,-0.71,-0.12,-0.00,0.08,0.50,
0.152,0.61,-0.71,-0.12,-0.01,0.07,0.50,
0.154,0.61,-0.71,-0.12,-0.02,0.07,0.50,
0.154,0.55,-0.70,-0.09,-0.02,0.07,0.50,
0.156,0.55,-0.70,-0.09,-0.04,0.07,0.50,
0.159,0.50,-0.69,-0.03,-0.04,0.07,0.50,
0.159,0.50,-0.69,-0.03,-0.05,0.07,0.49,
0.161,0.50,-0.69,-0.03,-0.06,0.07,0.49,
0.164,0.45,-0.68,0.06,-0.06,0.07,0.49,
0.164,0.45,-0.68,0.06,-0.07,0.06,0.49,
0.166,0.45,-0.68,0.06,-0.08,0.06,0.49,
0.168,0.45,-0.68,0.06,-0.09,0.06,0.48,
0.168,0.39,-0.66,0.14,-0.09,0.06,0.48,
0.171,0.39,-0.66,0.14,-0.10,0.06,0.48,
0.174,0.32,-0.67,0.22,-0.10,0.06,0.48,
0.174,0.32,-0.67,0.22,-0.11,0.05,0.47,
0.176,0.32,-0.67,0.22,-0.12,0.05,0.47,
0.179,0.32,-0.67,0.22,-0.13,0.05,0.46,
0.18,0.27,-0.68,0.28,-0.13,0.05,0.46,
0.181,0.27,-0.68,0.28,-0.13,0.05,0.46,
0.183,0.27,-0.68,0.28,-0.14,0.04,0.45,
0.184,0.24,-0.66,0.31,-0.14,0.04,0.45,
0.185,0.24,-0.66,0.31,-0.15,0.04,0.44,
0.188,0.22,-0.63,0.33,-0.15,0.04,0.44,
0.189,0.22,-0.63,0.33,-0.16,0.04,0.44,
0.192,0.22,-0.63,0.33,-0.17,0.03,0.43,
0.194,0.22,-0.63,0.33,-0.18,0.03,0.42,
0.195,0.18,-0.62,0.31,-0.18,0.03,0.42,
0.196,0.18,-0.62,0.31,-0.19,0.02,0.41,
0.198,0.18,-0.62,0.31,-0.20,0.02,0.40,
0.199,0.13,-0.61,0.29,-0.20,0.02,0.40,
0.201,0.13,-0.61,0.29,-0.21,0.02,0.38,
0.203,0.13,-0.61,0.29,-0.22,0.01,0.37,
0.204,0.10,-0.57,0.30,-0.22,0.01,0.37,
0.205,0.10,-0.57,0.30,-0.22,0.01,0.36,
0.208,0.10,-0.57,0.30,-0.23,0.01,0.34,
0.208,0.06,-0.55,0.29,-0.23,0.01,0.34,
0.21,0.06,-0.55,0.29,-0.23,0.00,0.33,
0.222,0.06,-0.55,0.29,-0.23,-0.00,0.32,
0.245,0.04,-0.51,0.26,-0.23,-0.00,0.32,
0.246,0.04,-0.51,0.26,-0.23,-0.00,0.30,
0.246,0.04,-0.51,0.26,-0.23,-0.00,0.29,
0.246,0.01,-0.49,0.25,-0.23,-0.00,0.29,
0.246,0.01,-0.49,0.25,-0.23,-0.00,0.28,
0.247,0.01,-0.49,0.25,-0.23,0.00,0.27,
0.247,-0.00,-0.47,0.21,-0.23,0.00,0.27,
0.247,-0.00,-0.47,0.21,-0.22,0.01,0.25,
0.248,-0.00,-0.47,0.21,-0.22,0.01,0.24,
0.248,0.00,-0.43,0.17,-0.22,0.01,0.24,
0.248,0.00,-0.43,0.17,-0.21,0.02,0.23,
0.249,0.00,-0.43,0.17,-0.21,0.03,0.22,
0.249,-0.01,-0.37,0.10,-0.21,0.03,0.22,
0.249,-0.01,-0.37,0.10,-0.20,0.04,0.21,
0.249,-0.04,-0.33,0.05,-0.20,0.04,0.21,
0.25,-0.04,-0.33,0.05,-0.20,0.05,0.20,
0.25,-0.06,-0.29,0.00,-0.20,0.05,0.20,
0.25,-0.06,-0.29,0.00,-0.19,0.06,0.19,
0.251,-0.06,-0.29,0.00,-0.19,0.07,0.19,
0.251,-0.06,-0.29,0.00,-0.18,0.08,0.18,
0.251,-0.07,-0.24,-0.02,-0.18,0.08,0.18,
0.251,-0.07,-0.24,-0.02,-0.18,0.09,0.18,
0.252,-0.07,-0.24,-0.02,-0.17,0.10,0.17,
0.254,-0.07,-0.23,-0.04,-0.17,0.10,0.17,
0.254,-0.07,-0.23,-0.04,-0.17,0.10,0.17,
0.255,-0.07,-0.23,-0.04,-0.17,0.11,0.16,
0.257,-0.07,-0.23,-0.04,-0.17,0.12,0.16,
0.258,-0.07,-0.21,-0.06,-0.17,0.12,0.16,
0.26,-0.07,-0.21,-0.06,-0.16,0.12,0.15,
0.263,-0.08,-0.21,-0.06,-0.16,0.12,0.15,
0.263,-0.08,-0.21,-0.06,-0.16,0.13,0.15,
0.265,-0.08,-0.21,-0.06,-0.16,0.14,0.14,
0.268,-0.07,-0.17,-0.02,-0.16,0.14,0.14,
0.268,-0.07,-0.17,-0.02,-0.16,0.14,0.14,
0.271,-0.07,-0.17,-0.02,-0.16,0.15,0.14,
0.273,-0.07,-0.17,-0.02,-0.16,0.15,0.14,
0.273,-0.09,-0.13,0.03,-0.16,0.15,0.14,
0.275,-0.09,-0.13,0.03,-0.16,0.15,0.13,
0.279,-0.09,-0.13,0.03,-0.15,0.15,0.13,
0.279,-0.10,-0.09,0.08,-0.15,0.15,0.13,
0.281,-0.10,-0.09,0.08,-0.15,0.15,0.13,
0.282,-0.10,-0.09,0.08,-0.15,0.15,0.12,
0.282,-0.08,-0.05,0.12,-0.15,0.15,0.12,
0.285,-0.08,-0.05,0.12,-0.15,0.15,0.12,
0.287,-0.08,-0.05,0.12,-0.14,0.14,0.11,
0.287,-0.04,-0.01,0.13,-0.14,0.14,0.11,
0.29,-0.04,-0.01,0.13,-0.14,0.14,0.11,
0.293,-0.04,-0.01,0.13,-0.14,0.14,0.10,
0.293,-0.02,0.01,0.11,-0.14,0.14,0.10,
0.295,-0.02,0.01,0.11,-0.14,0.14,0.09,
0.298,-0.02,0.01,0.11,-0.13,0.14,0.09,
0.298,-0.00,0.01,0.13,-0.13,0.14,0.09,
0.3,-0.00,0.01,0.13,-0.13,0.14,0.08,
0.302,-0.00,0.01,0.13,-0.13,0.15,0.07,
0.303,0.00,0.03,0.15,-0.13,0.15,0.07,
0.304,0.00,0.03,0.15,-0.12,0.15,0.07,
0.307,0.00,0.03,0.15,-0.12,0.15,0.06,
0.307,-0.01,0.05,0.17,-0.12,0.15,0.06,
0.309,-0.01,0.05,0.17,-0.12,0.16,0.05,
0.312,-0.01,0.05,0.17,-0.11,0.16,0.05,
0.316,-0.04,0.06,0.21,-0.11,0.16,0.05,
0.316,-0.04,0.06,0.21,-0.11,0.17,0.05,
0.321,-0.04,0.06,0.21,-0.10,0.17,0.04,
0.321,-0.08,0.06,0.25,-0.10,0.17,0.04,
0.321,-0.08,0.06,0.25,-0.09,0.17,0.04,
0.322,-0.08,0.06,0.25,-0.09,0.18,0.04,
0.322,-0.11,0.07,0.31,-0.09,0.18,0.04,
0.324,-0.11,0.07,0.31,-0.08,0.18,0.04,
0.327,-0.13,0.09,0.36,-0.08,0.18,0.04,
0.327,-0.13,0.09,0.36,-0.07,0.19,0.04,
0.33,-0.13,0.09,0.36,-0.07,0.19,0.03,
0.333,-0.13,0.09,0.36,-0.06,0.19,0.04,
0.333,-0.19,0.10,0.37,-0.06,0.19,0.04,
0.334,-0.19,0.10,0.37,-0.05,0.20,0.04,
0.337,-0.19,0.10,0.37,-0.05,0.20,0.04,
0.337,-0.21,0.12,0.40,-0.05,0.20,0.04,
0.339,-0.21,0.12,0.40,-0.04,0.20,0.04,
0.342,-0.25,0.13,0.42,-0.04,0.20,0.04,
0.342,-0.25,0.13,0.42,-0.03,0.20,0.04,
0.344,-0.25,0.13,0.42,-0.03,0.20,0.05,
0.347,-0.25,0.13,0.42,-0.02,0.20,0.05,
0.347,-0.27,0.12,0.40,-0.02,0.20,0.05,
0.349,-0.27,0.12,0.40,-0.02,0.20,0.06,
0.352,-0.27,0.12,0.40,-0.02,0.20,0.06,
0.352,-0.30,0.11,0.36,-0.02,0.20,0.06,
0.354,-0.30,0.11,0.36,-0.02,0.19,0.07,
0.357,-0.30,0.11,0.36,-0.02,0.19,0.08,
0.357,-0.34,0.11,0.28,-0.02,0.19,0.08,
0.359,-0.34,0.11,0.28,-0.03,0.19,0.09,
0.362,-0.34,0.11,0.28,-0.03,0.18,0.10,
0.362,-0.35,0.08,0.21,-0.03,0.18,0.10,
0.364,-0.35,0.08,0.21,-0.04,0.18,0.11,
0.367,-0.35,0.08,0.21,-0.05,0.17,0.11,
0.367,-0.34,0.04,0.15,-0.05,0.17,0.11,
0.369,-0.34,0.04,0.15,-0.06,0.17,0.12,
0.372,-0.33,0.00,0.08,-0.06,0.17,0.12,
0.372,-0.33,0.00,0.08,-0.07,0.16,0.13,
0.375,-0.33,0.00,0.08,-0.08,0.15,0.14,
0.377,-0.33,0.00,0.08,-0.08,0.14,0.15,
0.377,-0.29,-0.04,0.07,-0.08,0.14,0.15,
0.397,-0.29,-0.04,0.07,-0.10,0.14,0.15,
0.398,-0.23,-0.09,0.06,-0.10,0.14,0.15,
0.398,-0.23,-0.09,0.06,-0.10,0.13,0.15,
0.398,-0.23,-0.09,0.06,-0.11,0.12,0.16,
0.398,-0.19,-0.14,0.13,-0.11,0.12,0.16,
0.399,-0.19,-0.14,0.13,-0.12,0.10,0.16,
0.4,-0.19,-0.14,0.13,-0.12,0.10,0.16,
0.401,-0.19,-0.14,0.13,-0.12,0.08,0.16,
0.401,-0.17,-0.17,0.22,-0.12,0.08,0.16,
0.401,-0.17,-0.17,0.22,-0.12,0.07,0.16,
0.402,-0.17,-0.17,0.22,-0.11,0.06,0.16,
0.402,-0.17,-0.21,0.30,-0.11,0.06,0.16,
0.403,-0.17,-0.21,0.30,-0.10,0.05,0.16,
0.403,-0.16,-0.21,0.38,-0.10,0.05,0.16,
0.403,-0.16,-0.21,0.38,-0.10,0.04,0.16,
0.404,-0.16,-0.21,0.38,-0.08,0.03,0.16,
0.407,-0.16,-0.21,0.38,-0.07,0.02,0.16,
0.407,-0.13,-0.21,0.49,-0.07,0.02,0.16,
0.409,-0.13,-0.21,0.49,-0.05,0.01,0.16,
0.411,-0.13,-0.21,0.49,-0.04,0.00,0.16,
0.412,-0.08,-0.22,0.59,-0.04,0.00,0.16,
0.419,-0.08,-0.22,0.59,-0.02,-0.01,0.16,
0.42,-0.03,-0.26,0.66,-0.02,-0.01,0.16,
0.42,-0.03,-0.26,0.66,0.00,-0.01,0.15,
0.42,-0.03,-0.26,0.66,0.03,-0.02,0.15,
0.421,0.01,-0.30,0.63,0.03,-0.02,0.15,
0.421,0.01,-0.30,0.63,0.05,-0.02,0.14,
0.423,0.01,-0.30,0.63,0.07,-0.02,0.13,
0.426,0.07,-0.31,0.56,0.07,-0.02,0.13,
0.427,0.07,-0.31,0.56,0.09,-0.01,0.13,
0.428,0.07,-0.31,0.56,0.10,-0.01,0.12,
0.432,0.12,-0.33,0.44,0.10,-0.01,0.12,
0.432,0.12,-0.33,0.44,0.12,-0.00,0.11,
0.433,0.12,-0.33,0.44,0.13,0.01,0.10,
0.437,0.19,-0.30,0.38,0.13,0.01,0.10,
0.438,0.19,-0.30,0.38,0.14,0.01,0.09,
0.44,0.19,-0.30,0.38,0.15,0.02,0.08,
0.442,0.22,-0.28,0.31,0.15,0.02,0.08,
0.442,0.22,-0.28,0.31,0.15,0.03,0.07,
0.444,0.22,-0.28,0.31,0.16,0.04,0.07,
0.446,0.22,-0.24,0.24,0.16,0.04,0.07,
0.446,0.22,-0.24,0.24,0.16,0.04,0.06,
0.449,0.22,-0.24,0.24,0.16,0.05,0.05,
0.451,0.22,-0.24,0.24,0.16,0.05,0.04,
0.451,0.18,-0.21,0.21,0.16,0.05,0.04,
0.453,0.18,-0.21,0.21,0.16,0.05,0.04,
0.456,0.18,-0.21,0.21,0.15,0.04,0.03,
0.456,0.18,-0.20,0.16,0.15,0.04,0.03,
0.458,0.18,-0.20,0.16,0.15,0.04,0.03,
0.461,0.18,-0.20,0.16,0.14,0.03,0.03,
0.461,0.14,-0.20,0.11,0.14,0.03,0.03,
0.463,0.14,-0.20,0.11,0.13,0.03,0.02,
0.466,0.12,-0.20,0.09,0.13,0.03,0.02,
0.466,0.12,-0.20,0.09,0.12,0.02,0.02,
0.468,0.12,-0.20,0.09,0.11,0.02,0.02,
0.471,0.12,-0.20,0.09,0.11,0.01,0.02,
0.471,0.10,-0.24,0.08,0.11,0.01,0.02,
0.473,0.10,-0.24,0.08,0.10,0.01,0.02,
0.476,0.10,-0.24,0.08,0.09,0.00,0.01,
0.476,0.07,-0.29,0.11,0.09,0.00,0.01,
0.478,0.07,-0.29,0.11,0.08,-0.00,0.01,
0.481,0.03,-0.32,0.13,0.08,-0.00,0.01,
0.481,0.03,-0.32,0.13,0.08,-0.01,0.01,
0.483,0.03,-0.32,0.13,0.07,-0.01,-0.00,
0.485,0.03,-0.32,0.13,0.07,-0.02,-0.00,
0.486,-0.00,-0.34,0.15,0.07,-0.02,-0.00,
0.488,-0.00,-0.34,0.15,0.07,-0.02,-0.01,
0.49,-0.00,-0.34,0.15,0.06,-0.02,-0.01,
0.491,-0.04,-0.35,0.09,0.06,-0.02,-0.01,
0.493,-0.04,-0.35,0.09,0.06,-0.02,-0.02,
0.5,-0.04,-0.35,0.09,0.06,-0.02,-0.02,
0.501,-0.08,-0.35,0.03,0.06,-0.02,-0.02,
0.501,-0.08,-0.35,0.03,0.06,-0.02,-0.03,
0.502,-0.08,-0.35,0.03,0.05,-0.01,-0.03,
0.502,-0.12,-0.33,-0.04,0.05,-0.01,-0.03,
0.504,-0.12,-0.33,-0.04,0.05,-0.00,-0.03,
0.506,-0.12,-0.33,-0.04,0.04,0.00,-0.03,
0.506,-0.15,-0.32,-0.10,0.04,0.00,-0.03,
0.509,-0.15,-0.32,-0.10,0.04,0.01,-0.03,
0.511,-0.15,-0.32,-0.10,0.03,0.01,-0.03,
0.511,-0.14,-0.31,-0.13,0.03,0.01,-0.03,
0.518,-0.14,-0.31,-0.13,0.03,0.02,-0.03,
0.518,-0.14,-0.31,-0.13,0.02,0.03,-0.03,
0.519,-0.15,-0.29,-0.14,0.02,0.03,-0.03,
0.519,-0.15,-0.29,-0.14,0.02,0.04,-0.03,
0.521,-0.15,-0.29,-0.14,0.01,0.04,-0.03,
0.521,-0.15,-0.28,-0.13,0.01,0.04,-0.03,
0.523,-0.15,-0.28,-0.13,0.00,0.05,-0.03,
0.525,-0.17,-0.28,-0.10,0.00,0.05,-0.03,
0.526,-0.17,-0.28,-0.10,-0.00,0.05,-0.03,
0.528,-0.17,-0.28,-0.10,-0.01,0.05,-0.03,
0.53,-0.17,-0.28,-0.10,-0.01,0.05,-0.03,
0.531,-0.21,-0.28,-0.04,-0.01,0.05,-0.03,
0.533,-0.21,-0.28,-0.04,-0.01,0.05,-0.03,
0.536,-0.26,-0.28,0.00,-0.01,0.05,-0.03,
0.536,-0.26,-0.28,0.00,-0.01,0.05,-0.03,
0.537,-0.26,-0.28,0.00,-0.01,0.04,-0.03,
0.54,-0.26,-0.28,0.00,-0.01,0.04,-0.04,
0.54,-0.30,-0.30,0.05,-0.01,0.04,-0.04,
0.542,-0.30,-0.30,0.05,-0.00,0.03,-0.04,
0.556,-0.30,-0.30,0.05,-0.00,0.03,-0.04,
0.557,-0.31,-0.32,0.07,-0.00,0.03,-0.04,
0.557,-0.31,-0.32,0.07,0.00,0.02,-0.04,
0.557,-0.31,-0.32,0.07,0.01,0.02,-0.05,
0.557,-0.29,-0.29,0.03,0.01,0.02,-0.05,
0.558,-0.29,-0.29,0.03,0.02,0.01,-0.05,
0.558,-0.29,-0.29,0.03,0.02,0.01,-0.06,
0.558,-0.28,-0.26,-0.06,0.02,0.01,-0.06,
0.558,-0.28,-0.26,-0.06,0.03,0.01,-0.06,
0.56,-0.28,-0.26,-0.06,0.03,0.01,-0.07,
0.56,-0.27,-0.22,-0.18,0.03,0.01,-0.07,
0.575,-0.27,-0.22,-0.18,0.03,0.01,-0.07,
0.575,-0.27,-0.17,-0.28,0.03,0.01,-0.07,
0.575,-0.27,-0.17,-0.28,0.03,0.02,-0.08,
0.576,-0.27,-0.17,-0.28,0.03,0.02,-0.08,
0.576,-0.27,-0.17,-0.28,0.03,0.03,-0.08,
0.576,-0.27,-0.09,-0.35,0.03,0.03,-0.08,
0.576,-0.27,-0.09,-0.35,0.03,0.04,-0.08,
0.577,-0.30,-0.06,-0.34,0.03,0.04,-0.08,
0.577,-0.30,-0.06,-0.34,0.03,0.04,-0.08,
0.583,-0.33,0.00,-0.24,0.03,0.04,-0.08,
0.583,-0.33,0.00,-0.24,0.02,0.05,-0.08,
0.583,-0.33,0.00,-0.24,0.02,0.05,-0.08,
0.584,-0.33,0.00,-0.24,0.02,0.05,-0.08,
0.585,-0.33,0.00,-0.24,0.02,0.06,-0.08,
0.587,-0.33,0.00,-0.24,0.02,0.05,-0.08,
0.59,-0.33,0.00,-0.24,0.02,0.05,-0.08,
0.59,-0.32,0.05,-0.12,0.02,0.05,-0.08,
0.59,-0.30,0.06,-0.03,0.02,0.05,-0.08,
0.592,-0.30,0.06,-0.03,0.02,0.05,-0.08,
0.595,-0.27,0.07,-0.00,0.02,0.05,-0.08,
0.595,-0.27,0.07,-0.00,0.02,0.05,-0.08,
0.599,-0.27,0.07,-0.00,0.03,0.05,-0.08,
0.6,-0.25,0.08,0.06,0.03,0.05,-0.08,
0.601,-0.25,0.08,0.06,0.03,0.05,-0.09,
0.603,-0.25,0.08,0.06,0.03,0.05,-0.09,
0.605,-0.26,0.11,0.07,0.03,0.05,-0.09,
0.605,-0.26,0.11,0.07,0.03,0.04,-0.09,
0.607,-0.26,0.11,0.07,0.03,0.04,-0.08,
0.611,-0.26,0.08,0.03,0.03,0.04,-0.08,
0.611,-0.26,0.08,0.03,0.03,0.04,-0.08,
0.612,-0.26,0.08,0.03,0.03,0.04,-0.08,
0.616,-0.26,0.04,-0.01,0.03,0.04,-0.08,
0.616,-0.26,0.04,-0.01,0.03,0.04,-0.07,
0.62,-0.26,0.04,-0.01,0.03,0.04,-0.07,
0.621,-0.24,0.03,-0.01,0.03,0.04,-0.07,
0.621,-0.24,0.03,-0.01,0.03,0.03,-0.07,
0.623,-0.24,0.03,-0.01,0.03,0.03,-0.06,
0.625,-0.24,0.03,-0.01,0.02,0.02,-0.06,
0.625,-0.18,0.02,-0.03,0.02,0.02,-0.06,
0.627,-0.18,0.02,-0.03,0.02,0.02,-0.05,
0.629,-0.18,0.02,-0.03,0.02,0.01,-0.05,
0.629,-0.14,-0.02,-0.02,0.02,0.01,-0.05,
0.632,-0.14,-0.02,-0.02,0.01,-0.00,-0.05,
0.635,-0.09,-0.06,0.04,0.01,-0.00,-0.05,
0.635,-0.09,-0.06,0.04,0.01,-0.01,-0.05,
0.637,-0.09,-0.06,0.04,0.01,-0.01,-0.05,
0.639,-0.03,-0.06,0.12,0.01,-0.01,-0.05,
0.639,-0.03,-0.06,0.12,0.01,-0.02,-0.05,
0.641,-0.03,-0.06,0.12,0.01,-0.03,-0.06,
0.644,-0.03,-0.06,0.12,0.00,-0.05,-0.06,
0.644,0.03,-0.05,0.22,0.00,-0.05,-0.06,
0.647,0.03,-0.05,0.22,0.00,-0.06,-0.06,
0.649,0.03,-0.05,0.22,0.00,-0.08,-0.07,
0.65,0.10,-0.05,0.24,0.00,-0.08,-0.07,
0.652,0.10,-0.05,0.24,-0.00,-0.10,-0.07,
0.654,0.22,-0.08,0.18,-0.00,-0.10,-0.07,
0.655,0.22,-0.08,0.18,-0.00,-0.11,-0.07,
0.656,0.22,-0.08,0.18,-0.00,-0.12,-0.08,
0.659,0.22,-0.08,0.18,-0.00,-0.12,-0.09,
0.659,0.29,-0.09,0.06,-0.00,-0.12,-0.09,
0.661,0.29,-0.09,0.06,-0.00,-0.11,-0.10,
0.664,0.25,-0.12,-0.06,-0.00,-0.11,-0.10,
0.665,0.25,-0.12,-0.06,0.00,-0.11,-0.10,
0.667,0.25,-0.12,-0.06,0.01,-0.10,-0.11,
0.669,0.25,-0.12,-0.06,0.01,-0.09,-0.11,
0.67,-0.14,-0.97,-0.36,0.01,-0.09,-0.11,
0.671,-0.14,-0.97,-0.36,-0.00,-0.06,-0.10,
0.674,-0.14,-0.97,-0.36,-0.02,-0.01,-0.10,
0.675,0.06,-1.22,-0.69,-0.02,-0.01,-0.10,
0.676,0.06,-1.22,-0.69,-0.03,0.03,-0.11,
0.679,0.06,-1.22,-0.69,-0.04,0.04,-0.10,
0.679,-0.06,-0.94,-0.60,-0.04,0.04,-0.10,
0.681,-0.06,-0.94,-0.60,-0.05,0.02,-0.08,
0.684,-0.39,-0.47,-0.46,-0.05,0.02,-0.08,
0.684,-0.39,-0.47,-0.46,-0.06,-0.00,-0.06,
0.686,-0.39,-0.47,-0.46,-0.07,-0.05,-0.05,
0.689,-0.39,-0.47,-0.46,-0.08,-0.08,-0.04,
0.689,-0.58,-0.03,-0.26,-0.08,-0.08,-0.04,
0.691,-0.58,-0.03,-0.26,-0.09,-0.09,-0.04,
0.693,-0.58,-0.03,-0.26,-0.10,-0.09,-0.03,
0.694,-0.38,0.36,-0.11,-0.10,-0.09,-0.03,
0.699,-0.38,0.36,-0.11,-0.11,-0.09,-0.04,
0.701,-0.13,0.60,-0.01,-0.11,-0.09,-0.04,
0.701,-0.13,0.60,-0.01,-0.13,-0.08,-0.05,
0.702,-0.13,0.60,-0.01,-0.14,-0.07,-0.06,
0.71,-0.13,0.60,-0.01,-0.15,-0.07,-0.07,
0.711,0.09,0.66,0.08,-0.15,-0.07,-0.07,
0.711,0.18,0.59,0.09,-0.15,-0.07,-0.07,
0.711,0.18,0.59,0.09,-0.15,-0.07,-0.08,
0.728,0.18,0.59,0.09,-0.16,-0.07,-0.09,
0.728,0.18,0.59,0.09,-0.16,-0.07,-0.10,
0.728,0.07,0.34,0.09,-0.16,-0.07,-0.10,
0.729,0.07,0.34,0.09,-0.17,-0.07,-0.10,
0.729,0.07,0.34,0.09,-0.17,-0.06,-0.10,
0.73,-0.08,0.03,0.07,-0.17,-0.06,-0.10,
0.73,-0.08,0.03,0.07,-0.17,-0.06,-0.10,
0.73,-0.08,0.03,0.07,-0.17,-0.04,-0.10,
0.73,-0.08,0.03,0.07,-0.16,-0.02,-0.09,
0.73,-0.16,-0.29,0.10,-0.16,-0.02,-0.09,
0.73,-0.16,-0.29,0.10,-0.16,-0.00,-0.09,
0.731,-0.16,-0.29,0.10,-0.15,0.02,-0.09,
0.731,-0.16,-0.52,0.12,-0.15,0.02,-0.09,
0.734,-0.16,-0.52,0.12,-0.15,0.04,-0.08,
0.735,-0.16,-0.52,0.12,-0.14,0.06,-0.08,
0.735,-0.19,-0.60,0.13,-0.14,0.06,-0.08,
0.736,-0.19,-0.60,0.13,-0.13,0.08,-0.07,
0.738,-0.19,-0.60,0.13,-0.12,0.10,-0.07,
0.738,-0.21,-0.57,0.13,-0.12,0.10,-0.07,
0.741,-0.21,-0.57,0.13,-0.12,0.12,-0.06,
0.743,-0.21,-0.57,0.13,-0.11,0.13,-0.05,
0.743,-0.26,-0.49,0.16,-0.11,0.13,-0.05,
0.746,-0.26,-0.49,0.16,-0.11,0.14,-0.05,
0.75,-0.26,-0.49,0.16,-0.11,0.15,-0.04,
0.751,-0.34,-0.35,0.21,-0.11,0.15,-0.04,
0.751,-0.34,-0.35,0.21,-0.11,0.15,-0.02,
0.755,-0.34,-0.35,0.21,-0.11,0.14,-0.01,
0.755,-0.38,-0.22,0.29,-0.11,0.14,-0.01,
0.756,-0.38,-0.22,0.29,-0.12,0.13,0.00,
0.759,-0.38,-0.22,0.29,-0.13,0.11,0.01,
0.759,-0.35,-0.15,0.32,-0.13,0.11,0.01,
0.761,-0.35,-0.15,0.32,-0.14,0.09,0.02,
0.764,-0.35,-0.15,0.32,-0.15,0.06,0.04,
0.764,-0.33,-0.08,0.33,-0.15,0.06,0.04,
0.766,-0.33,-0.08,0.33,-0.16,0.03,0.05,
0.768,-0.33,-0.08,0.33,-0.18,0.01,0.06,
0.768,-0.30,-0.05,0.30,-0.18,0.01,0.06,
0.77,-0.30,-0.05,0.30,-0.19,-0.02,0.06,
0.773,-0.30,-0.05,0.30,-0.20,-0.04,0.07,
0.773,-0.31,-0.03,0.26,-0.20,-0.04,0.07,
0.775,-0.31,-0.03,0.26,-0.22,-0.06,0.07,
0.778,-0.31,-0.03,0.26,-0.24,-0.08,0.08,
0.778,-0.40,-0.03,0.25,-0.24,-0.08,0.08,
0.781,-0.40,-0.03,0.25,-0.25,-0.10,0.08,
0.783,-0.40,-0.03,0.25,-0.27,-0.12,0.09,
0.783,-0.33,0.02,0.33,-0.27,-0.12,0.09,
0.785,-0.33,0.02,0.33,-0.28,-0.14,0.09,
0.788,-0.33,0.02,0.33,-0.29,-0.17,0.10,
0.788,-0.28,0.10,0.41,-0.29,-0.17,0.10,
0.79,-0.28,0.10,0.41,-0.30,-0.19,0.11,
0.793,-0.28,0.10,0.41,-0.31,-0.21,0.12,
0.793,-0.17,0.01,0.49,-0.31,-0.21,0.12,
0.795,-0.17,0.01,0.49,-0.33,-0.23,0.12,
0.802,0.35,-1.38,0.16,-0.33,-0.23,0.12,
0.803,0.35,-1.38,0.16,-0.34,-0.23,0.09,
0.803,0.35,-1.38,0.16,-0.36,-0.19,0.07,
0.804,0.35,-1.38,0.16,-0.39,-0.10,0.05,
0.804,0.19,-1.72,-0.49,-0.39,-0.10,0.05,
0.806,0.19,-1.72,-0.49,-0.43,0.01,0.04,
0.809,0.19,-1.72,-0.49,-0.46,0.13,0.05,
0.809,-0.22,-1.23,-0.12,-0.46,0.13,0.05,
0.811,-0.22,-1.23,-0.12,-0.50,0.24,0.07,
0.819,-0.22,-1.23,-0.12,-0.53,0.33,0.10,
0.819,-0.75,-0.62,0.55,-0.53,0.33,0.10,
0.82,-0.75,-0.62,0.55,-0.55,0.40,0.14,
0.82,-0.75,-0.62,0.55,-0.57,0.45,0.18,
0.82,-1.24,-0.21,1.02,-0.57,0.45,0.18,
0.821,-1.24,-0.21,1.02,-0.59,0.47,0.21,
0.823,-1.24,-0.21,1.02,-0.59,0.47,0.23,
0.823,-1.39,-0.01,1.18,-0.59,0.47,0.23,
0.825,-1.39,-0.01,1.18,-0.60,0.45,0.24,
0.827,-1.39,-0.01,1.18,-0.61,0.41,0.25,
0.828,-1.30,0.05,1.03,-0.61,0.41,0.25,
0.83,-1.30,0.05,1.03,-0.63,0.36,0.26,
0.833,-1.30,0.05,1.03,-0.65,0.29,0.26,
0.833,-1.01,0.03,0.77,-0.65,0.29,0.26,
0.836,-1.01,0.03,0.77,-0.67,0.21,0.26,
0.838,-0.77,0.07,0.45,-0.67,0.21,0.26,
0.838,-0.77,0.07,0.45,-0.70,0.12,0.25,
0.84,-0.77,0.07,0.45,-0.74,0.04,0.24,
0.842,-0.77,0.07,0.45,-0.79,-0.06,0.23,
0.843,-0.10,-0.55,0.27,-0.79,-0.06,0.23,
0.845,-0.10,-0.55,0.27,-0.85,-0.16,0.22,
0.848,-0.10,-0.55,0.27,-0.91,-0.21,0.20,
0.848,-0.03,-0.77,-0.23,-0.91,-0.21,0.20,
0.85,-0.03,-0.77,-0.23,-0.97,-0.26,0.18,
0.853,-0.03,-0.77,-0.23,-1.02,-0.30,0.16,
0.853,-0.26,-0.63,-0.33,-1.02,-0.30,0.16,
0.855,-0.26,-0.63,-0.33,-1.08,-0.32,0.14,
0.858,-0.26,-0.63,-0.33,-1.12,-0.34,0.12,
0.858,-0.69,-0.76,-0.09,-1.12,-0.34,0.12,
0.86,-0.69,-0.76,-0.09,-1.16,-0.35,0.11,
0.862,-0.69,-0.76,-0.09,-1.20,-0.35,0.09,
0.863,-0.80,-0.55,-0.10,-1.20,-0.35,0.09,
0.865,-0.80,-0.55,-0.10,-1.24,-0.33,0.07,
0.868,-0.80,-0.55,-0.10,-1.28,-0.31,0.05,
0.868,-0.69,-0.30,-0.07,-1.28,-0.31,0.05,
0.87,-0.69,-0.30,-0.07,-1.31,-0.28,0.02,
0.872,-0.69,-0.30,-0.07,-1.35,-0.27,0.00,
0.873,-0.48,-0.12,0.10,-1.35,-0.27,0.00,
0.91,-0.48,-0.12,0.10,-1.38,-0.27,-0.02,
0.91,-0.03,-0.15,0.36,-1.38,-0.27,-0.02,
0.911,-0.03,-0.15,0.36,-1.41,-0.30,-0.04,
0.911,-0.03,-0.15,0.36,-1.44,-0.32,-0.06,
0.912,-0.03,-0.15,0.36,-1.47,-0.35,-0.08,
0.912,0.29,-0.26,0.30,-1.47,-0.35,-0.08,
0.913,0.50,-0.43,0.31,-1.47,-0.35,-0.08,
0.913,0.98,-0.65,-0.11,-1.47,-0.35,-0.08,
0.914,0.98,-0.65,-0.11,-1.49,-0.39,-0.11,
0.914,0.98,-0.65,-0.11,-1.51,-0.44,-0.13,
0.914,0.98,-0.65,-0.11,-1.54,-0.48,-0.16,
0.915,0.98,-0.65,-0.11,-1.57,-0.53,-0.20,
0.915,0.98,-0.65,-0.11,-1.60,-0.57,-0.24,
0.915,0.82,-0.72,-0.23,-1.60,-0.57,-0.24,
0.915,0.82,-0.72,-0.23,-1.64,-0.63,-0.29,
0.916,0.82,-0.72,-0.23,-1.67,-0.69,-0.32,
0.916,0.55,-0.74,-0.25,-1.67,-0.69,-0.32,
0.916,0.55,-0.74,-0.25,-1.71,-0.76,-0.36,
0.917,0.55,-0.74,-0.25,-1.75,-0.84,-0.39,
0.917,0.55,-0.74,-0.25,-1.78,-0.92,-0.42,
0.917,0.32,-0.63,-0.19,-1.78,-0.92,-0.42,
0.917,0.32,-0.63,-0.19,-1.81,-1.02,-0.45,
0.918,0.32,-0.63,-0.19,-1.85,-1.12,-0.48,
0.918,0.15,-0.44,-0.15,-1.85,-1.12,-0.48,
0.918,0.15,-0.44,-0.15,-1.87,-1.20,-0.51,
0.918,-0.01,-0.24,-0.08,-1.87,-1.20,-0.51,
0.919,-0.01,-0.24,-0.08,-1.89,-1.28,-0.54,
0.92,-0.01,-0.24,-0.08,-1.91,-1.34,-0.57,
0.922,-0.01,-0.24,-0.08,-1.93,-1.40,-0.59,
0.923,-0.10,-0.00,-0.02,-1.93,-1.40,-0.59,
0.925,-0.10,-0.00,-0.02,-1.94,-1.45,-0.62,
0.927,-0.10,-0.00,-0.02,-1.95,-1.48,-0.64,
0.927,-0.15,0.35,0.02,-1.95,-1.48,-0.64,
0.929,-0.15,0.35,0.02,-1.95,-1.51,-0.67,
0.932,-0.15,0.35,0.02,-1.95,-1.53,-0.69,
0.932,-0.17,0.72,0.09,-1.95,-1.53,-0.69,
0.935,-0.17,0.72,0.09,-1.95,-1.55,-0.70,
0.937,-0.17,0.72,0.09,-1.94,-1.57,-0.72,
0.937,-0.13,1.09,0.09,-1.94,-1.57,-0.72,
0.939,-0.13,1.09,0.09,-1.93,-1.59,-0.73,
0.942,-0.13,1.09,0.09,-1.92,-1.62,-0.75,
0.942,-0.11,1.30,0.13,-1.92,-1.62,-0.75,
0.944,-0.11,1.30,0.13,-1.90,-1.65,-0.76,
0.951,-0.11,1.30,0.13,-1.88,-1.67,-0.77,
0.952,-0.10,1.39,0.16,-1.88,-1.67,-0.77,
0.952,-0.10,1.39,0.16,-1.86,-1.69,-0.78,
0.953,-0.16,1.45,0.31,-1.86,-1.69,-0.78,
0.954,-0.16,1.45,0.31,-1.83,-1.71,-0.79,
0.955,-0.16,1.45,0.31,-1.80,-1.73,-0.80,
0.956,-0.16,1.45,0.31,-1.76,-1.75,-0.80,
0.957,-0.19,1.38,0.44,-1.76,-1.75,-0.80,
0.959,-0.19,1.38,0.44,-1.72,-1.77,-0.81,
0.961,-0.19,1.38,0.44,-1.67,-1.78,-0.82,
0.962,-0.26,1.15,0.55,-1.67,-1.78,-0.82,
0.967,-0.26,1.15,0.55,-1.63,-1.78,-0.82,
0.967,-0.26,1.15,0.55,-1.58,-1.77,-0.83,
0.968,-0.40,0.77,0.49,-1.58,-1.77,-0.83,
0.97,-0.40,0.77,0.49,-1.52,-1.76,-0.82,
0.973,-0.40,0.77,0.49,-1.47,-1.74,-0.82,
0.973,-0.59,0.31,0.33,-1.47,-1.74,-0.82,
0.974,-0.59,0.31,0.33,-1.41,-1.71,-0.81,
0.977,-0.76,-0.05,0.13,-1.41,-1.71,-0.81,
0.977,-0.76,-0.05,0.13,-1.35,-1.67,-0.80,
0.979,-0.76,-0.05,0.13,-1.30,-1.63,-0.79,
0.982,-0.76,-0.05,0.13,-1.24,-1.58,-0.77,
0.982,-0.84,-0.25,-0.02,-1.24,-1.58,-0.77,
0.984,-0.84,-0.25,-0.02,-1.17,-1.51,-0.76,
0.987,-0.84,-0.25,-0.02,-1.11,-1.45,-0.74,
0.987,-0.80,-0.28,-0.03,-1.11,-1.45,-0.74,
0.989,-0.80,-0.28,-0.03,-1.04,-1.38,-0.73,
0.991,-0.80,-0.28,-0.03,-0.98,-1.31,-0.72,
0.991,-0.76,-0.23,-0.01,-0.98,-1.31,-0.72,
0.993,-0.76,-0.23,-0.01,-0.91,-1.24,-0.70,
0.997,-0.76,-0.23,-0.01,-0.83,-1.16,-0.69,
0.997,-0.68,-0.12,0.05,-0.83,-1.16,-0.69,
1.0,-0.68,-0.12,0.05,-0.76,-1.09,-0.67,
1.001,-0.59,0.07,0.16,-0.76,-1.09,-0.67,
1.001,-0.59,0.07,0.16,-0.68,-1.01,-0.66,
1.004,-0.59,0.07,0.16,-0.59,-0.94,-0.64,
1.006,-0.59,0.07,0.16,-0.51,-0.87,-0.62,
1.006,-0.54,0.21,0.27,-0.51,-0.87,-0.62,
1.009,-0.54,0.21,0.27,-0.42,-0.80,-0.61,
1.011,-0.54,0.21,0.27,-0.34,-0.73,-0.60,
1.017,-0.53,0.30,0.38,-0.34,-0.73,-0.60,
1.017,-0.53,0.30,0.38,-0.25,-0.67,-0.58,
1.018,-0.53,0.30,0.38,-0.17,-0.63,-0.56,
1.018,-0.53,0.39,0.57,-0.17,-0.63,-0.56,
1.019,-0.53,0.39,0.57,-0.10,-0.60,-0.54,
1.035,-0.52,0.45,0.66,-0.10,-0.60,-0.54,
1.036,-0.51,0.35,0.62,-0.10,-0.60,-0.54,
1.036,-0.51,0.35,0.62,-0.03,-0.58,-0.52,
1.036,-0.51,0.35,0.62,0.04,-0.58,-0.50,
1.036,-0.51,0.35,0.62,0.10,-0.58,-0.47,
1.036,-0.51,0.15,0.28,0.10,-0.58,-0.47,
1.037,-0.51,0.15,0.28,0.17,-0.58,-0.44,
1.037,-0.51,0.15,0.28,0.24,-0.57,-0.42,
1.037,-0.51,0.15,0.28,0.31,-0.54,-0.41,
1.037,-0.48,-0.25,0.07,0.31,-0.54,-0.41,
1.037,-0.48,-0.25,0.07,0.39,-0.52,-0.40,
1.042,-0.48,-0.25,0.07,0.46,-0.52,-0.39,
1.056,-0.48,-0.13,0.42,0.46,-0.52,-0.39,
1.056,-0.48,-0.13,0.42,0.51,-0.57,-0.37,
1.056,-0.48,-0.13,0.42,0.53,-0.69,-0.34,
1.056,-0.48,-0.13,0.42,0.54,-0.83,-0.31,
1.056,-0.22,-0.23,0.72,0.54,-0.83,-0.31,
1.056,-0.22,-0.23,0.72,0.56,-0.92,-0.28,
1.057,0.24,-0.51,0.49,0.56,-0.92,-0.28,
1.057,0.24,-0.51,0.49,0.57,-0.98,-0.25,
1.057,0.24,-0.51,0.49,0.58,-1.09,-0.23,
1.057,0.67,-1.19,2.15,0.58,-1.09,-0.23,
1.057,0.67,-1.19,2.15,0.59,-1.31,-0.22,
1.058,0.67,-1.19,2.15,0.61,-1.60,-0.21,
1.061,0.67,-1.19,2.15,0.64,-1.80,-0.19,
1.061,0.15,-1.08,2.11,0.64,-1.80,-0.19,
1.063,0.15,-1.08,2.11,0.66,-1.85,-0.18,
1.066,0.15,-1.08,2.11,0.68,-1.81,-0.16,
1.067,-0.79,-0.66,0.45,0.68,-1.81,-0.16,
1.068,-0.79,-0.66,0.45,0.70,-1.77,-0.16,
1.071,-0.71,-0.29,0.39,0.70,-1.77,-0.16,
1.071,-0.71,-0.29,0.39,0.72,-1.74,-0.18,
1.073,-0.71,-0.29,0.39,0.74,-1.74,-0.21,
1.075,-0.71,-0.29,0.39,0.77,-1.77,-0.25,
1.076,-0.13,-0.14,0.71,0.77,-1.77,-0.25,
1.078,-0.13,-0.14,0.71,0.80,-1.81,-0.29,
1.081,-0.22,-0.10,0.53,0.80,-1.81,-0.29,
1.082,-0.22,-0.10,0.53,0.83,-1.85,-0.33,
1.084,-0.22,-0.10,0.53,0.85,-1.87,-0.37,
1.086,-0.22,-0.10,0.53,0.86,-1.87,-0.39,
1.086,-0.75,-0.14,0.04,0.86,-1.87,-0.39,
1.088,-0.75,-0.14,0.04,0.87,-1.85,-0.41,
1.09,-0.75,-0.14,0.04,0.87,-1.78,-0.41,
1.09,-0.97,-0.03,-0.67,0.87,-1.78,-0.41,
1.093,-0.97,-0.03,-0.67,0.85,-1.67,-0.41,
1.095,-0.97,-0.03,-0.67,0.80,-1.51,-0.40,
1.095,-0.81,0.25,-1.72,0.80,-1.51,-0.40,
1.099,-0.81,0.25,-1.72,0.73,-1.29,-0.38,
1.1,-0.69,0.76,-3.00,0.73,-1.29,-0.38,
1.101,-0.69,0.76,-3.00,0.62,-1.04,-0.34,
1.106,-0.61,1.16,-4.12,0.62,-1.04,-0.34,
1.106,-0.61,1.16,-4.12,0.48,-0.77,-0.29,
1.106,-0.61,1.16,-4.12,0.30,-0.47,-0.23,
1.108,-0.61,1.16,-4.12,0.10,-0.16,-0.16,
1.11,-0.61,1.16,-4.12,-0.09,0.13,-0.09,
1.111,-0.73,1.43,-4.64,-0.09,0.13,-0.09,
1.113,-0.73,1.43,-4.64,-0.27,0.39,0.00,
1.116,-1.94,1.19,-3.90,-0.27,0.39,0.00,
1.116,-1.94,1.19,-3.90,-0.42,0.61,0.12,
1.118,-1.94,1.19,-3.90,-0.54,0.78,0.24,
1.12,-1.94,1.19,-3.90,-0.62,0.90,0.36,
1.12,-1.77,1.60,-2.56,-0.62,0.90,0.36,
1.122,-1.77,1.60,-2.56,-0.66,1.00,0.46,
1.125,-1.77,1.60,-2.56,-0.67,1.11,0.54,
1.125,-1.42,1.82,-1.16,-0.67,1.11,0.54,
1.127,-1.42,1.82,-1.16,-0.65,1.22,0.61,
1.13,-1.42,1.82,-1.16,-0.61,1.35,0.68,
1.13,-1.27,1.70,-0.20,-0.61,1.35,0.68,
1.134,-1.27,1.70,-0.20,-0.54,1.48,0.73,
1.135,-1.30,1.33,0.43,-0.54,1.48,0.73,
1.135,-1.30,1.33,0.43,-0.47,1.62,0.79,
1.137,-1.30,1.33,0.43,-0.38,1.78,0.84,
1.14,-1.35,0.82,0.78,-0.38,1.78,0.84,
1.14,-1.35,0.82,0.78,-0.28,1.94,0.90,
1.142,-1.35,0.82,0.78,-0.19,2.10,0.95,
1.145,-1.35,0.82,0.78,-0.09,2.24,1.00,
1.145,-1.37,0.31,1.04,-0.09,2.24,1.00,
1.148,-1.37,0.31,1.04,0.01,2.37,1.04,
1.151,-1.17,-0.03,1.25,0.01,2.37,1.04,
1.151,-1.17,-0.03,1.25,0.12,2.47,1.07,
1.152,-1.17,-0.03,1.25,0.22,2.54,1.10,
1.156,-1.05,-0.33,1.29,0.22,2.54,1.10,
1.156,-1.05,-0.33,1.29,0.32,2.60,1.13,
1.157,-1.05,-0.33,1.29,0.42,2.64,1.15,
1.16,-1.05,-0.33,1.29,0.50,2.65,1.16,
1.16,-0.74,-0.60,1.15,0.50,2.65,1.16,
1.162,-0.74,-0.60,1.15,0.58,2.64,1.17,
1.165,-0.18,-0.77,0.84,0.58,2.64,1.17,
1.166,-0.18,-0.77,0.84,0.65,2.62,1.15,
1.169,-0.18,-0.77,0.84,0.71,2.60,1.14,
1.17,0.06,-0.93,0.35,0.71,2.60,1.14,
1.171,0.06,-0.93,0.35,0.75,2.58,1.12,
1.173,0.06,-0.93,0.35,0.77,2.55,1.09,
1.175,0.37,-1.07,-0.07,0.77,2.55,1.09,
1.176,0.37,-1.07,-0.07,0.78,2.53,1.06,
1.178,0.37,-1.07,-0.07,0.77,2.52,1.02,
1.184,0.37,-1.07,-0.07,0.75,2.50,0.97,
1.184,0.37,-1.07,-0.07,0.72,2.49,0.92,
1.184,0.67,-1.17,-0.50,0.72,2.49,0.92,
1.187,0.66,-1.21,-0.99,0.72,2.49,0.92,
1.188,0.66,-1.21,-0.99,0.67,2.49,0.86,
1.189,0.66,-1.21,-0.99,0.61,2.50,0.80,
1.19,0.70,-1.13,-1.24,0.61,2.50,0.80,
1.191,0.70,-1.13,-1.24,0.54,2.51,0.73,
1.192,0.70,-1.13,-1.24,0.47,2.51,0.66,
1.195,0.70,-0.98,-1.20,0.47,2.51,0.66,
1.196,0.70,-0.98,-1.20,0.40,2.49,0.60,
1.203,0.70,-0.98,-1.20,0.34,2.46,0.53,
1.206,0.92,-0.71,-0.82,0.34,2.46,0.53,
1.206,0.92,-0.71,-0.82,0.29,2.39,0.47,
1.207,0.92,-0.71,-0.82,0.24,2.30,0.41,
1.208,1.02,-0.48,-0.43,0.24,2.30,0.41,
1.236,1.02,-0.48,-0.43,0.21,2.19,0.35,
1.236,1.02,-0.48,-0.43,0.18,2.08,0.30,
1.236,1.14,-0.35,-0.16,0.18,2.08,0.30,
1.237,1.14,-0.35,-0.16,0.16,1.96,0.25,
1.237,1.14,-0.35,-0.16,0.14,1.84,0.20,
1.237,1.14,-0.45,-0.17,0.14,1.84,0.20,
1.237,1.14,-0.45,-0.17,0.12,1.74,0.15,
1.237,1.14,-0.45,-0.17,0.09,1.64,0.11,
1.238,1.01,-0.73,-0.35,0.09,1.64,0.11,
1.238,1.01,-0.73,-0.35,0.07,1.56,0.06,
1.238,1.01,-0.73,-0.35,0.04,1.50,0.02,
1.238,1.01,-0.73,-0.35,0.01,1.45,-0.02,
1.239,0.78,-1.08,-0.61,0.01,1.45,-0.02,
1.239,0.78,-1.08,-0.61,-0.01,1.41,-0.07,
1.239,0.78,-1.08,-0.61,-0.04,1.39,-0.11,
1.239,0.50,-1.35,-0.87,-0.04,1.39,-0.11,
1.24,0.50,-1.35,-0.87,-0.05,1.39,-0.15,
1.24,0.50,-1.35,-0.87,-0.07,1.40,-0.19,
1.24,0.16,-1.42,-1.04,-0.07,1.40,-0.19,
1.24,0.16,-1.42,-1.04,-0.07,1.43,-0.23,
1.24,0.16,-1.42,-1.04,-0.06,1.47,-0.27,
1.241,-0.28,-1.33,-1.11,-0.06,1.47,-0.27,
1.242,-0.28,-1.33,-1.11,-0.05,1.53,-0.30,
1.245,-0.75,-1.17,-1.05,-0.05,1.53,-0.30,
1.246,-0.75,-1.17,-1.05,-0.03,1.60,-0.33,
1.247,-0.75,-1.17,-1.05,0.00,1.68,-0.34,
1.25,-0.75,-1.17,-1.05,0.04,1.77,-0.35,
1.251,-1.27,-1.00,-0.83,0.04,1.77,-0.35,
1.252,-1.27,-1.00,-0.83,0.09,1.88,-0.35,
1.254,-1.27,-1.00,-0.83,0.14,1.99,-0.35,
1.255,-1.69,-0.85,-0.46,0.14,1.99,-0.35,
1.258,-1.69,-0.85,-0.46,0.21,2.10,-0.34,
1.26,-1.69,-0.85,-0.46,0.27,2.22,-0.32,
1.26,-2.03,-0.80,-0.16,0.27,2.22,-0.32,
1.261,-2.03,-0.80,-0.16,0.34,2.34,-0.30,
1.265,-2.03,-0.80,-0.16,0.41,2.46,-0.28,
1.267,-2.27,-0.84,-0.09,0.41,2.46,-0.28,
1.267,-2.27,-0.84,-0.09,0.48,2.59,-0.25,
1.269,-2.27,-0.84,-0.09,0.54,2.70,-0.23,
1.269,-2.45,-0.92,-0.04,0.54,2.70,-0.23,
1.271,-2.45,-0.92,-0.04,0.59,2.76,-0.22,
1.274,-2.45,-0.92,-0.04,0.63,2.65,-0.19,
1.274,-2.87,-0.95,1.77,0.63,2.65,-0.19,
1.276,-2.87,-0.95,1.77,0.62,2.32,-0.17,
1.279,-2.87,-0.95,1.77,0.59,1.98,-0.17,
1.279,-3.18,-1.34,1.90,0.59,1.98,-0.17,
1.282,-3.18,-1.34,1.90,0.57,1.81,-0.20,
1.284,-3.18,-1.34,1.90,0.58,1.75,-0.25,
1.284,-2.76,-1.72,0.60,0.58,1.75,-0.25,
1.286,-2.76,-1.72,0.60,0.62,1.68,-0.32,
1.288,-2.76,-1.72,0.60,0.66,1.57,-0.38,
1.289,-2.52,-2.15,0.93,0.66,1.57,-0.38,
1.291,-2.52,-2.15,0.93,0.72,1.46,-0.45,
1.294,-2.52,-2.15,0.93,0.78,1.39,-0.51,
1.294,-2.57,-2.42,0.26,0.78,1.39,-0.51,
1.296,-2.57,-2.42,0.26,0.83,1.35,-0.55,
1.301,-2.60,-2.40,-0.07,0.83,1.35,-0.55,
1.302,-2.60,-2.40,-0.07,0.88,1.35,-0.59,
1.302,-2.60,-2.40,-0.07,0.93,1.37,-0.62,
1.303,-2.60,-2.40,-0.07,0.96,1.42,-0.66,
1.304,-2.38,-2.33,-0.12,0.96,1.42,-0.66,
1.309,-2.38,-2.33,-0.12,0.99,1.50,-0.69,
1.309,-2.14,-2.30,-0.41,0.99,1.50,-0.69,
1.31,-2.14,-2.30,-0.41,1.01,1.59,-0.72,
1.311,-2.14,-2.30,-0.41,1.01,1.68,-0.75,
1.313,-2.14,-2.30,-0.41,1.02,1.76,-0.79,
1.314,-1.91,-2.23,-0.75,1.02,1.76,-0.79,
1.32,-1.91,-2.23,-0.75,1.02,1.84,-0.83,
1.32,-1.91,-2.23,-0.75,1.04,1.90,-0.87,
1.32,-1.63,-2.47,-0.93,1.04,1.90,-0.87,
1.324,-1.63,-2.47,-0.93,1.06,1.95,-0.94,
1.324,-1.63,-2.47,-0.93,1.08,2.00,-1.03,
1.324,-1.07,-3.62,-1.20,1.08,2.00,-1.03,
1.326,-1.07,-3.62,-1.20,1.12,2.06,-1.14,
1.328,-1.07,-3.62,-1.20,1.16,2.13,-1.26,
1.329,-0.98,-3.78,-1.43,1.16,2.13,-1.26,
1.331,-0.98,-3.78,-1.43,1.21,2.20,-1.37,
1.333,-0.98,-3.78,-1.43,1.27,2.28,-1.47,
1.334,-1.27,-3.34,-1.23,1.27,2.28,-1.47,
1.339,-1.46,-3.13,-1.70,1.27,2.28,-1.47,
1.339,-1.46,-3.13,-1.70,1.33,2.37,-1.56,
1.34,-1.46,-3.13,-1.70,1.39,2.50,-1.65,
1.34,-1.46,-3.13,-1.70,1.43,2.67,-1.75,
1.343,-1.46,-3.13,-1.70,1.47,2.86,-1.85,
1.344,-1.10,-3.15,-2.53,1.47,2.86,-1.85,
1.346,-1.10,-3.15,-2.53,1.50,3.05,-1.95,
1.348,-0.60,-3.14,-2.89,1.50,3.05,-1.95,
1.349,-0.60,-3.14,-2.89,1.52,3.25,-2.05,
1.35,-0.60,-3.14,-2.89,1.55,3.44,-2.13,
1.354,-0.60,-3.14,-2.89,1.56,3.64,-2.21,
1.354,-0.35,-3.10,-3.13,1.56,3.64,-2.21,
1.356,-0.35,-3.10,-3.13,1.57,3.82,-2.28,
1.358,-0.35,-3.10,-3.13,1.58,3.99,-2.34,
1.358,-0.51,-2.99,-3.27,1.58,3.99,-2.34,
1.36,-0.51,-2.99,-3.27,1.59,4.15,-2.38,
1.363,-0.51,-2.99,-3.27,1.60,4.30,-2.40,
1.363,-0.85,-2.76,-3.18,1.60,4.30,-2.40,
1.366,-0.85,-2.76,-3.18,1.62,4.45,-2.41,
1.368,-0.85,-2.76,-3.18,1.65,4.58,-2.41,
1.369,-1.28,-2.64,-2.91,1.65,4.58,-2.41,
1.395,-1.28,-2.64,-2.91,1.68,4.72,-2.39,
1.395,-1.28,-2.64,-2.91,1.71,4.84,-2.37,
1.395,-1.49,-2.70,-2.69,1.71,4.84,-2.37,
1.396,-1.49,-2.70,-2.69,1.75,4.96,-2.36,
1.396,-1.49,-2.70,-2.69,1.79,5.08,-2.36,
1.396,-1.40,-2.93,-2.58,1.79,5.08,-2.36,
1.396,-1.40,-2.93,-2.58,1.84,5.19,-2.36,
1.397,-0.97,-3.21,-2.52,1.84,5.19,-2.36,
1.397,-0.97,-3.21,-2.52,1.88,5.29,-2.38,
1.397,-0.97,-3.21,-2.52,1.93,5.39,-2.40,
1.397,-0.97,-3.21,-2.52,1.98,5.49,-2.44,
1.398,-0.28,-3.50,-2.56,1.98,5.49,-2.44,
1.398,-0.28,-3.50,-2.56,2.03,5.59,-2.47,
1.398,0.53,-3.86,-2.68,2.03,5.59,-2.47,
1.398,0.53,-3.86,-2.68,2.08,5.69,-2.52,
1.399,0.53,-3.86,-2.68,2.12,5.80,-2.57,
1.399,1.30,-4.24,-2.79,2.12,5.80,-2.57,
1.399,1.30,-4.24,-2.79,2.17,5.91,-2.63,
1.402,1.30,-4.24,-2.79,2.21,6.02,-2.70,
1.403,1.30,-4.24,-2.79,2.26,6.13,-2.78,
1.403,2.05,-4.65,-2.92,2.26,6.13,-2.78,
1.406,2.05,-4.65,-2.92,2.30,6.24,-2.86,
1.409,2.05,-4.65,-2.92,2.35,6.35,-2.95,
1.409,2.75,-5.02,-3.03,2.35,6.35,-2.95,
1.411,2.75,-5.02,-3.03,2.40,6.46,-3.05,
1.414,2.75,-5.02,-3.03,2.45,6.58,-3.15,
1.414,3.35,-5.35,-3.13,2.45,6.58,-3.15,
1.427,3.35,-5.35,-3.13,2.50,6.70,-3.26,
1.429,3.35,-5.35,-3.13,2.56,6.81,-3.38,
1.429,3.66,-5.65,-2.93,2.56,6.81,-3.38,
1.429,3.66,-5.65,-2.93,2.62,6.91,-3.49,
1.43,3.66,-5.65,-2.93,2.70,6.98,-3.59,
1.43,3.57,-5.99,-2.21,2.70,6.98,-3.59,
1.431,3.57,-5.99,-2.21,2.78,7.03,-3.69,
1.44,3.57,-5.99,-2.21,2.87,7.07,-3.80,
1.441,3.57,-5.99,-2.21,2.96,7.09,-3.91,
1.441,3.23,-6.23,-1.14,2.96,7.09,-3.91,
1.441,3.23,-6.23,-1.14,3.05,7.11,-4.02,
1.441,2.83,-6.45,-0.67,3.05,7.11,-4.02,
1.442,2.83,-6.45,-0.67,3.15,7.15,-4.14,
1.442,2.83,-6.45,-0.67,3.24,7.18,-4.26,
1.442,2.64,-6.68,-0.68,3.24,7.18,-4.26,
1.442,2.64,-6.68,-0.68,3.33,7.21,-4.37,
1.442,2.64,-6.68,-0.68,3.43,7.21,-4.49,
1.443,2.38,-6.86,-0.22,3.43,7.21,-4.49,
1.446,2.38,-6.86,-0.22,3.52,7.17,-4.60,
1.448,2.38,-6.86,-0.22,3.61,7.10,-4.71,
1.449,2.17,-6.86,0.27,3.61,7.10,-4.71,
1.454,2.17,-6.86,0.27,3.69,6.99,-4.82,
1.455,2.17,-6.86,0.27,3.75,6.86,-4.93,
1.456,2.06,-6.80,0.61,3.75,6.86,-4.93,
1.456,2.06,-6.80,0.61,3.81,6.71,-5.04,
1.458,2.06,-6.80,0.61,3.86,6.54,-5.15,
1.458,2.17,-6.76,0.70,3.86,6.54,-5.15,
1.459,2.17,-6.76,0.70,3.89,6.36,-5.26,
1.464,2.17,-6.76,0.70,3.91,6.17,-5.38,
1.464,2.35,-6.78,0.71,3.91,6.17,-5.38,
1.467,2.35,-6.78,0.71,3.93,5.99,-5.50,
1.468,2.35,-6.78,0.71,3.94,5.81,-5.62,
1.468,2.76,-6.73,0.80,3.94,5.81,-5.62,
1.469,2.76,-6.73,0.80,3.94,5.64,-5.76,
1.472,2.76,-6.73,0.80,3.95,5.49,-5.88,
1.472,2.32,-6.99,0.72,3.95,5.49,-5.88,
1.474,2.32,-6.99,0.72,3.95,5.36,-5.99,
1.477,2.32,-6.99,0.72,3.95,5.24,-6.08,
1.477,1.27,-7.27,0.80,3.95,5.24,-6.08,
1.479,1.27,-7.27,0.80,3.95,5.11,-6.15,
1.482,1.27,-7.27,0.80,3.95,4.98,-6.21,
1.482,0.40,-7.37,1.24,3.95,4.98,-6.21,
1.484,0.40,-7.37,1.24,3.96,4.84,-6.27,
1.487,0.40,-7.37,1.24,3.97,4.68,-6.33,
1.487,0.32,-7.18,1.84,3.97,4.68,-6.33,
1.489,0.32,-7.18,1.84,3.98,4.51,-6.38,
1.492,0.32,-7.18,1.84,4.00,4.34,-6.45,
1.492,0.45,-6.96,2.39,4.00,4.34,-6.45,
1.494,0.45,-6.96,2.39,4.03,4.15,-6.52,
1.497,0.45,-6.96,2.39,4.06,3.97,-6.59,
1.497,0.06,-7.07,2.98,4.06,3.97,-6.59,
1.5,0.06,-7.07,2.98,4.10,3.78,-6.66,
1.503,-0.67,-7.15,3.66,4.10,3.78,-6.66,
1.503,-0.67,-7.15,3.66,4.13,3.59,-6.73,
1.507,-1.24,-6.85,4.31,4.13,3.59,-6.73,
1.509,-1.24,-6.85,4.31,4.18,3.38,-6.80,
1.51,-1.24,-6.85,4.31,4.23,3.17,-6.86,
1.51,-1.24,-6.85,4.31,4.27,2.95,-6.92,
1.513,-1.81,-6.38,4.65,4.27,2.95,-6.92,
1.514,-1.81,-6.38,4.65,4.32,2.74,-6.97,
1.528,-1.81,-6.38,4.65,4.37,2.52,-7.01,
1.528,-1.81,-6.38,4.65,4.41,2.32,-7.04,
1.528,-2.49,-5.80,4.66,4.41,2.32,-7.04,
1.529,-2.49,-5.80,4.66,4.44,2.11,-7.06,
1.529,-2.49,-5.80,4.66,4.47,1.92,-7.07,
1.529,-3.32,-5.11,4.41,4.47,1.92,-7.07,
1.529,-3.32,-5.11,4.41,4.49,1.72,-7.07,
1.529,-3.32,-5.11,4.41,4.50,1.54,-7.06,
1.529,-4.11,-4.29,4.05,4.50,1.54,-7.06,
1.53,-4.11,-4.29,4.05,4.50,1.36,-7.04,
1.535,-4.81,-3.30,3.62,4.50,1.36,-7.04,
1.535,-4.81,-3.30,3.62,4.50,1.18,-7.00,
1.535,-4.81,-3.30,3.62,4.48,1.02,-6.95,
1.55,-5.51,-2.26,3.14,4.48,1.02,-6.95,
1.55,-5.51,-2.26,3.14,4.47,0.86,-6.88,
1.551,-5.51,-2.26,3.14,4.44,0.71,-6.81,
1.551,-5.51,-2.26,3.14,4.42,0.57,-6.73,
1.551,-6.20,-1.43,2.59,4.42,0.57,-6.73,
1.551,-6.20,-1.43,2.59,4.39,0.45,-6.64,
1.552,-6.20,-1.43,2.59,4.36,0.33,-6.53,
1.552,-6.96,-0.27,2.08,4.36,0.33,-6.53,
1.552,-6.96,-0.27,2.08,4.33,0.20,-6.41,
1.552,-6.96,-0.27,2.08,4.29,0.07,-6.26,
1.553,-7.83,0.72,1.78,4.29,0.07,-6.26,
1.555,-7.83,0.72,1.78,4.25,-0.05,-6.10,
1.558,-7.83,0.72,1.78,4.21,-0.17,-5.95,
1.558,-8.16,2.13,1.49,4.21,-0.17,-5.95,
1.558,-8.16,2.13,1.49,4.16,-0.27,-5.78,
1.561,-8.16,2.13,1.49,4.12,-0.37,-5.61,
1.561,-8.93,3.12,1.16,4.12,-0.37,-5.61,
1.565,-8.93,3.12,1.16,4.07,-0.46,-5.42,
1.566,-8.93,3.12,1.16,4.02,-0.55,-5.23,
1.568,-9.36,3.83,0.46,4.02,-0.55,-5.23,
1.569,-9.36,3.83,0.46,3.96,-0.63,-5.04,
1.571,-9.36,3.83,0.46,3.89,-0.71,-4.86,
1.571,-9.40,4.24,-0.31,3.89,-0.71,-4.86,
1.574,-9.40,4.24,-0.31,3.82,-0.81,-4.69,
1.576,-9.40,4.24,-0.31,3.74,-0.90,-4.52,
1.576,-9.32,4.52,-0.97,3.74,-0.90,-4.52,
1.578,-9.32,4.52,-0.97,3.66,-1.00,-4.35,
1.582,-9.32,4.52,-0.97,3.57,-1.09,-4.19,
1.582,-9.30,4.77,-1.64,3.57,-1.09,-4.19,
1.584,-9.30,4.77,-1.64,3.48,-1.16,-4.03,
1.586,-9.30,4.77,-1.64,3.37,-1.25,-3.88,
1.586,-9.15,4.93,-2.47,3.37,-1.25,-3.88,
1.588,-9.15,4.93,-2.47,3.27,-1.35,-3.74,
1.592,-8.28,5.21,-2.31,3.27,-1.35,-3.74,
1.592,-8.28,5.21,-2.31,3.19,-1.45,-3.62,
1.593,-8.28,5.21,-2.31,3.10,-1.54,-3.52,
1.596,-8.28,5.21,-2.31,3.02,-1.62,-3.42,
1.596,-7.80,5.27,-2.44,3.02,-1.62,-3.42,
1.599,-7.80,5.27,-2.44,2.94,-1.67,-3.33,
1.602,-7.80,5.27,-2.44,2.87,-1.71,-3.24,
1.603,-7.69,5.17,-2.37,2.87,-1.71,-3.24,
1.604,-7.69,5.17,-2.37,2.80,-1.72,-3.17,
1.606,-7.69,5.17,-2.37,2.72,-1.71,-3.09,
1.606,-7.58,5.25,-2.47,2.72,-1.71,-3.09,
1.609,-7.58,5.25,-2.47,2.64,-1.68,-3.01,
1.612,-7.58,5.25,-2.47,2.57,-1.64,-2.94,
1.612,-7.45,5.49,-2.74,2.57,-1.64,-2.94,
1.614,-7.45,5.49,-2.74,2.48,-1.58,-2.86,
1.622,-7.59,5.77,-3.07,2.48,-1.58,-2.86,
1.623,-7.59,5.77,-3.07,2.40,-1.51,-2.77,
1.624,-7.59,5.77,-3.07,2.33,-1.42,-2.70,
1.624,-7.59,5.77,-3.07,2.25,-1.30,-2.69,
1.624,-7.59,5.10,-3.05,2.25,-1.30,-2.69,
1.625,-7.59,5.10,-3.05,2.18,-1.19,-2.70,
1.626,-7.94,5.59,-2.34,2.18,-1.19,-2.70,
1.627,-7.94,5.59,-2.34,2.15,-1.13,-2.69,
1.631,-7.94,5.59,-2.34,2.14,-1.06,-2.65,
1.632,-8.70,6.55,-3.07,2.14,-1.06,-2.65,
1.632,-8.70,6.55,-3.07,2.12,-1.00,-2.57,
1.643,-8.70,6.55,-3.07,2.10,-0.96,-2.46,
1.643,-8.70,6.55,-3.07,2.09,-0.91,-2.32,
1.644,-9.35,7.17,-3.71,2.09,-0.91,-2.32,
1.644,-9.35,7.17,-3.71,2.08,-0.89,-2.16,
1.645,-9.35,7.17,-3.71,2.05,-0.87,-1.98,
1.645,-9.93,7.68,-4.74,2.05,-0.87,-1.98,
1.645,-9.93,7.68,-4.74,2.01,-0.85,-1.77,
1.646,-9.93,7.68,-4.74,1.97,-0.82,-1.54,
1.647,-10.57,8.20,-5.81,1.97,-0.82,-1.54,
1.649,-10.57,8.20,-5.81,1.91,-0.78,-1.31,
1.651,-10.57,8.20,-5.81,1.84,-0.73,-1.05,
1.652,-10.98,8.52,-7.08,1.84,-0.73,-1.05,
1.653,-10.98,8.52,-7.08,1.75,-0.67,-0.80,
1.656,-10.94,8.38,-8.22,1.75,-0.67,-0.80,
1.657,-10.94,8.38,-8.22,1.64,-0.59,-0.57,
1.659,-10.94,8.38,-8.22,1.52,-0.51,-0.37,
1.66,-10.94,8.38,-8.22,1.38,-0.44,-0.19,
1.66,-10.45,7.99,-9.08,1.38,-0.44,-0.19,
1.663,-10.45,7.99,-9.08,1.23,-0.37,-0.02,
1.666,-9.83,7.67,-9.72,1.23,-0.37,-0.02,
1.667,-9.83,7.67,-9.72,1.06,-0.30,0.13,
1.669,-9.83,7.67,-9.72,0.90,-0.24,0.27,
1.67,-9.83,7.67,-9.72,0.73,-0.18,0.42,
1.671,-9.19,7.45,-10.44,0.73,-0.18,0.42,
1.673,-9.19,7.45,-10.44,0.54,-0.13,0.57,
1.675,-9.19,7.45,-10.44,0.35,-0.10,0.72,
1.675,-8.57,7.18,-11.01,0.35,-0.10,0.72,
1.678,-8.57,7.18,-11.01,0.16,-0.07,0.87,
1.68,-8.57,7.18,-11.01,-0.02,-0.05,1.01,
1.681,-7.62,6.62,-11.06,-0.02,-0.05,1.01,
1.683,-7.62,6.62,-11.06,-0.20,-0.04,1.13,
1.685,-7.62,6.62,-11.06,-0.35,-0.02,1.24,
1.686,-6.47,5.76,-10.31,-0.35,-0.02,1.24,
1.688,-6.47,5.76,-10.31,-0.48,0.01,1.34,
1.69,-6.47,5.76,-10.31,-0.59,0.06,1.43,
1.691,-5.51,4.87,-9.37,-0.59,0.06,1.43,
1.693,-5.51,4.87,-9.37,-0.70,0.13,1.51,
1.695,-5.51,4.87,-9.37,-0.79,0.21,1.59,
1.696,-4.51,3.92,-8.65,-0.79,0.21,1.59,
1.698,-4.51,3.92,-8.65,-0.88,0.30,1.64,
1.703,-3.48,2.86,-7.93,-0.88,0.30,1.64,
1.736,-3.48,2.86,-7.93,-0.97,0.40,1.68,
1.737,-3.48,2.86,-7.93,-1.05,0.49,1.71,
1.737,-2.16,1.63,-6.73,-1.05,0.49,1.71,
1.737,-2.16,1.63,-6.73,-1.13,0.59,1.71,
1.738,-2.16,1.63,-6.73,-1.18,0.67,1.70,
1.738,-1.05,0.38,-5.13,-1.18,0.67,1.70,
1.738,-1.05,0.38,-5.13,-1.21,0.74,1.67,
1.739,-1.05,0.38,-5.13,-1.24,0.80,1.63,
1.739,-0.34,-0.76,-3.96,-1.24,0.80,1.63,
1.739,-0.34,-0.76,-3.96,-1.26,0.84,1.57,
1.74,-0.34,-0.76,-3.96,-1.26,0.88,1.52,
1.74,0.55,-1.97,-2.86,-1.26,0.88,1.52,
1.74,0.55,-1.97,-2.86,-1.25,0.90,1.45,
1.741,0.55,-1.97,-2.86,-1.25,0.96,1.31,
1.741,1.55,-3.37,-1.65,-1.25,0.96,1.31,
1.741,1.55,-3.37,-1.65,-1.22,1.00,1.13,
1.742,1.55,-3.37,-1.65,-1.19,1.01,0.95,
1.742,1.55,-3.37,-1.65,-1.14,1.02,0.80,
1.742,1.78,-3.55,-0.75,-1.14,1.02,0.80,
1.743,1.78,-3.55,-0.75,-1.08,1.02,0.65,
1.743,2.04,-3.50,-0.47,-1.08,1.02,0.65,
1.743,2.04,-3.50,-0.47,-1.03,1.04,0.54,
1.744,2.04,-3.50,-0.47,-0.97,1.06,0.45,
1.744,2.15,-3.73,-0.06,-0.97,1.06,0.45,
1.744,2.15,-3.73,-0.06,-0.90,1.08,0.37,
1.745,2.15,-3.73,-0.06,-0.82,1.11,0.33,
1.745,2.08,-3.60,-0.31,-0.82,1.11,0.33,
1.745,2.08,-3.60,-0.31,-0.77,1.16,0.29,
1.747,2.08,-3.60,-0.31,-0.70,1.21,0.28,
1.75,2.26,-3.51,0.17,-0.70,1.21,0.28,
1.751,2.26,-3.51,0.17,-0.62,1.27,0.26,
1.752,2.26,-3.51,0.17,-0.55,1.33,0.25,
1.755,2.31,-3.22,-0.38,-0.55,1.33,0.25,
1.755,2.31,-3.22,-0.38,-0.48,1.41,0.25,
1.758,2.31,-3.22,-0.38,-0.43,1.49,0.25,
1.759,2.31,-3.22,-0.38,-0.38,1.58,0.26,
1.76,2.11,-2.75,-0.97,-0.38,1.58,0.26,
1.762,2.11,-2.75,-0.97,-0.34,1.66,0.27,
1.764,2.11,-2.75,-0.97,-0.30,1.74,0.27,
1.765,2.11,-2.53,-1.60,-0.30,1.74,0.27,
1.768,2.11,-2.53,-1.60,-0.27,1.81,0.27,
1.769,1.64,-1.91,-1.82,-0.27,1.81,0.27,
1.77,1.64,-1.91,-1.82,-0.25,1.86,0.27,
1.772,1.64,-1.91,-1.82,-0.23,1.91,0.28,
1.775,1.64,-1.91,-1.82,-0.22,1.94,0.28,
1.775,0.96,-1.35,-2.36,-0.22,1.94,0.28,
1.777,0.96,-1.35,-2.36,-0.21,1.96,0.30,
1.78,0.96,-1.35,-2.36,-0.22,1.99,0.32,
1.78,0.20,-0.94,-2.64,-0.22,1.99,0.32,
1.782,0.20,-0.94,-2.64,-0.23,2.03,0.36,
1.784,-0.29,-0.62,-2.70,-0.23,2.03,0.36,
1.785,-0.29,-0.62,-2.70,-0.24,2.06,0.40,
1.787,-0.29,-0.62,-2.70,-0.27,2.10,0.44,
1.789,-0.29,-0.62,-2.70,-0.31,2.15,0.49,
1.789,-0.68,0.03,-3.61,-0.31,2.15,0.49,
1.791,-0.68,0.03,-3.61,-0.39,2.23,0.55,
1.795,-1.20,0.93,-4.06,-0.39,2.23,0.55,
1.795,-1.20,0.93,-4.06,-0.47,2.30,0.62,
1.797,-1.20,0.93,-4.06,-0.55,2.36,0.69,
1.8,-1.44,1.36,-3.97,-0.55,2.36,0.69,
1.8,-1.44,1.36,-3.97,-0.64,2.41,0.77,
1.802,-1.44,1.36,-3.97,-0.75,2.42,0.83,
1.804,-1.44,1.36,-3.97,-0.89,2.41,0.87,
1.805,-0.99,1.28,-4.21,-0.89,2.41,0.87,
1.807,-0.99,1.28,-4.21,-1.01,2.35,0.91,
1.809,-0.99,1.28,-4.21,-1.16,2.22,0.94,
1.809,-1.31,0.66,-3.04,-1.16,2.22,0.94,
1.811,-1.31,0.66,-3.04,-1.29,2.04,0.97,
1.814,-1.31,0.66,-3.04,-1.44,1.83,0.99,
1.815,-2.21,1.02,-2.48,-1.44,1.83,0.99,
1.821,-2.21,1.02,-2.48,-1.57,1.61,1.01,
1.822,-2.21,1.02,-2.48,-1.69,1.40,1.01,
1.822,-2.29,0.61,-1.19,-1.69,1.40,1.01,
1.823,-2.29,0.61,-1.19,-1.81,1.20,1.00,
1.824,-1.98,-0.25,0.43,-1.81,1.20,1.00,
1.825,-1.98,-0.25,0.43,-1.90,1.00,0.98,
1.827,-1.98,-0.25,0.43,-1.98,0.81,0.96,
1.829,-1.47,-1.09,2.21,-1.98,0.81,0.96,
1.83,-1.47,-1.09,2.21,-2.02,0.60,0.93,
1.832,-1.47,-1.09,2.21,-2.05,0.40,0.90,
1.841,-1.47,-1.09,2.21,-2.09,0.22,0.88,
1.842,-1.06,-1.49,2.88,-2.09,0.22,0.88,
1.842,-1.06,-1.49,2.88,-2.11,0.04,0.86,
1.842,-1.06,-1.49,2.88,-2.10,-0.13,0.84,
1.843,-0.71,-2.56,4.78,-2.10,-0.13,0.84,
1.843,-0.71,-2.56,4.78,-2.06,-0.26,0.82,
1.844,-0.71,-2.56,4.78,-1.98,-0.37,0.80,
1.844,-0.50,-2.88,6.12,-1.98,-0.37,0.80,
1.846,-0.50,-2.88,6.12,-1.88,-0.43,0.78,
1.849,-0.50,-2.88,6.12,-1.77,-0.44,0.77,
1.849,-0.30,-2.64,6.66,-1.77,-0.44,0.77,
1.851,-0.30,-2.64,6.66,-1.65,-0.43,0.77,
1.854,-0.30,-2.64,6.66,-1.53,-0.37,0.77,
1.855,-0.46,-2.10,6.43,-1.53,-0.37,0.77,
1.856,-0.46,-2.10,6.43,-1.38,-0.29,0.79,
1.859,-0.46,-2.10,6.43,-1.22,-0.21,0.79,
1.859,-0.17,-2.25,6.45,-1.22,-0.21,0.79,
1.861,-0.17,-2.25,6.45,-1.05,-0.11,0.77,
1.864,-0.17,-2.25,6.45,-0.86,-0.01,0.70,
1.864,0.52,-2.34,6.15,-0.86,-0.01,0.70,
1.887,0.52,-2.34,6.15,-0.68,0.09,0.62,
1.888,-0.02,-1.18,4.47,-0.68,0.09,0.62,
1.888,-0.02,-1.18,4.47,-0.53,0.19,0.60,
1.888,-0.02,-1.18,4.47,-0.40,0.30,0.60,
1.889,-0.02,-1.18,4.47,-0.29,0.44,0.65,
1.889,-0.21,0.64,2.13,-0.29,0.44,0.65,
1.889,-0.21,0.64,2.13,-0.22,0.61,0.72,
1.89,-0.21,0.64,2.13,-0.19,0.81,0.83,
1.89,-0.70,2.53,-0.46,-0.19,0.81,0.83,
1.89,-0.70,2.53,-0.46,-0.19,1.01,0.95,
1.891,-1.43,4.12,-2.32,-0.19,1.01,0.95,
1.891,-1.43,4.12,-2.32,-0.23,1.21,1.09,
1.891,-1.43,4.12,-2.32,-0.29,1.40,1.24,
1.892,-1.43,4.12,-2.32,-0.35,1.53,1.40,
1.892,-1.62,5.90,-2.57,-0.35,1.53,1.40,
1.892,-1.62,5.90,-2.57,-0.38,1.61,1.56,
1.894,-1.62,5.90,-2.57,-0.38,1.67,1.70,
1.896,-1.25,6.08,-1.10,-0.38,1.67,1.70,
1.896,-1.25,6.08,-1.10,-0.38,1.76,1.82,
1.9,-1.25,6.08,-1.10,-0.37,1.88,1.92,
1.901,-0.76,4.36,-1.49,-0.37,1.88,1.92,
1.902,-0.76,4.36,-1.49,-0.38,2.00,1.99,
1.904,-0.76,4.36,-1.49,-0.39,2.10,2.05,
1.904,0.50,3.19,-1.72,-0.39,2.10,2.05,
1.907,0.50,3.19,-1.72,-0.41,2.19,2.07,
1.909,0.50,3.19,-1.72,-0.45,2.28,2.06,
1.909,2.03,2.50,-1.51,-0.45,2.28,2.06,
1.911,2.03,2.50,-1.51,-0.49,2.36,2.01,
1.913,2.03,2.50,-1.51,-0.55,2.46,1.95,
1.913,2.64,1.60,-1.30,-0.55,2.46,1.95,
1.923,2.64,1.60,-1.30,-0.62,2.55,1.87,
1.924,2.64,1.60,-1.30,-0.71,2.63,1.74,
1.925,3.36,0.58,-1.09,-0.71,2.63,1.74,
1.925,3.36,0.58,-1.09,-0.80,2.69,1.59,
1.925,3.36,0.58,-1.09,-0.88,2.73,1.43,
1.925,3.61,-0.60,-0.15,-0.88,2.73,1.43,
1.926,3.61,-0.60,-0.15,-0.95,2.74,1.24,
1.929,3.61,-0.60,-0.15,-1.01,2.71,1.04,
1.929,4.00,-1.18,1.32,-1.01,2.71,1.04,
1.934,4.41,-1.30,2.60,-1.01,2.71,1.04,
1.934,4.41,-1.30,2.60,-1.05,2.66,0.83,
1.934,4.41,-1.30,2.60,-1.08,2.57,0.62,
1.941,4.41,-1.30,2.60,-1.09,2.44,0.43,
1.941,4.41,-1.30,2.60,-1.09,2.26,0.25,
1.941,4.69,-1.43,3.20,-1.09,2.26,0.25,
1.941,4.69,-1.43,3.20,-1.10,2.04,0.06,
1.943,4.69,-1.43,3.20,-1.10,1.81,-0.12,
1.943,5.17,-1.53,3.37,-1.10,1.81,-0.12,
1.945,5.17,-1.53,3.37,-1.10,1.59,-0.29,
1.948,5.17,-1.53,3.37,-1.08,1.40,-0.45,
1.948,4.81,-1.70,3.62,-1.08,1.40,-0.45,
1.951,4.81,-1.70,3.62,-1.06,1.25,-0.59,
1.953,4.81,-1.70,3.62,-1.04,1.13,-0.72,
1.953,4.31,-1.69,3.63,-1.04,1.13,-0.72,
1.955,4.31,-1.69,3.63,-1.03,1.04,-0.84,
1.959,4.31,-1.69,3.63,-1.02,0.97,-0.94,
1.959,3.88,-1.72,2.83,-1.02,0.97,-0.94,
1.961,3.88,-1.72,2.83,-1.02,0.96,-1.03,
1.964,3.88,-1.72,2.83,-1.02,0.95,-1.11,
1.964,3.71,-1.41,1.85,-1.02,0.95,-1.11,
1.966,3.71,-1.41,1.85,-1.03,0.96,-1.18,
1.968,3.71,-1.41,1.85,-1.05,1.00,-1.24,
1.968,2.77,-0.67,1.07,-1.05,1.00,-1.24,
1.971,2.77,-0.67,1.07,-1.07,1.03,-1.28,
1.973,2.77,-0.67,1.07,-1.09,1.05,-1.32,
1.973,2.59,-0.54,0.22,-1.09,1.05,-1.32,
1.975,2.59,-0.54,0.22,-1.13,1.08,-1.36,
1.978,2.59,-0.54,0.22,-1.19,1.09,-1.39,
1.978,2.21,-0.57,-0.62,-1.19,1.09,-1.39,
1.98,2.21,-0.57,-0.62,-1.25,1.09,-1.41,
1.983,2.21,-0.57,-0.62,-1.32,1.05,-1.42,
1.984,1.36,-0.56,-1.25,-1.32,1.05,-1.42,
1.985,1.36,-0.56,-1.25,-1.41,1.04,-1.43,
1.988,1.36,-0.56,-1.25,-1.51,1.07,-1.46,
1.988,1.34,0.53,-1.84,-1.51,1.07,-1.46,
1.99,1.34,0.53,-1.84,-1.62,1.09,-1.49,
1.992,0.43,0.75,-2.75,-1.62,1.09,-1.49,
1.993,0.43,0.75,-2.75,-1.75,1.17,-1.52,
1.995,0.43,0.75,-2.75,-1.90,1.22,-1.55,
1.998,0.43,0.75,-2.75,-2.05,1.28,-1.59,
1.998,0.35,0.90,-3.10,-2.05,1.28,-1.59,
2.005,0.35,0.90,-3.10,-2.20,1.35,-1.62,
2.005,0.35,0.90,-3.10,-2.36,1.40,-1.66,
2.006,0.37,1.35,-3.32,-2.36,1.40,-1.66,
2.006,0.37,1.35,-3.32,-2.51,1.46,-1.71,
2.008,0.37,1.35,-3.32,-2.65,1.52,-1.77,
2.008,0.30,1.34,-2.96,-2.65,1.52,-1.77,
2.015,0.30,1.34,-2.96,-2.78,1.54,-1.83,
2.025,0.30,1.34,-2.96,-2.89,1.57,-1.90,
2.025,0.30,1.34,-2.96,-2.99,1.62,-2.00,
2.026,0.33,1.13,-2.23,-2.99,1.62,-2.00,
2.026,0.95,0.65,-1.48,-2.99,1.62,-2.00,
2.026,0.95,0.65,-1.48,-3.08,1.66,-2.11,
2.027,0.95,0.65,-1.48,-3.15,1.73,-2.23,
2.027,0.95,0.65,-1.48,-3.22,1.82,-2.36,
2.027,1.20,0.18,-1.31,-3.22,1.82,-2.36,
2.028,1.20,0.18,-1.31,-3.29,1.92,-2.52,
2.028,1.36,-0.58,-1.14,-3.29,1.92,-2.52,
2.028,1.36,-0.58,-1.14,-3.35,2.06,-2.69,
2.03,1.36,-0.58,-1.14,-3.41,2.20,-2.88,
2.046,1.57,-1.67,-0.91,-3.41,2.20,-2.88,
2.047,1.57,-1.67,-0.91,-3.46,2.35,-3.09,
2.047,1.57,-1.67,-0.91,-3.50,2.51,-3.32,
2.047,1.84,-2.89,-0.56,-3.50,2.51,-3.32,
2.047,1.84,-2.89,-0.56,-3.54,2.66,-3.56,
2.048,1.84,-2.89,-0.56,-3.57,2.82,-3.81,
2.048,1.84,-2.89,-0.56,-3.58,2.99,-4.06,
2.048,1.95,-3.91,-0.32,-3.58,2.99,-4.06,
2.048,1.95,-3.91,-0.32,-3.59,3.16,-4.32,
2.049,1.95,-3.91,-0.32,-3.59,3.30,-4.59,
2.049,1.89,-4.73,0.27,-3.59,3.30,-4.59,
2.051,1.89,-4.73,0.27,-3.58,3.45,-4.85,
2.054,1.89,-5.21,0.17,-3.58,3.45,-4.85,
2.054,1.89,-5.21,0.17,-3.57,3.61,-5.10,
2.054,1.89,-5.21,0.17,-3.56,3.77,-5.35,
2.057,1.89,-5.21,0.17,-3.55,3.90,-5.56,
2.057,1.67,-4.81,0.25,-3.55,3.90,-5.56,
2.059,1.67,-4.81,0.25,-3.54,3.99,-5.76,
2.063,1.67,-4.81,0.25,-3.51,4.06,-5.92,
2.063,0.86,-4.58,-0.07,-3.51,4.06,-5.92,
2.065,0.86,-4.58,-0.07,-3.49,4.13,-6.06,
2.068,-0.29,-3.88,-2.31,-3.49,4.13,-6.06,
2.068,-0.29,-3.88,-2.31,-3.44,4.13,-6.14,
2.071,-0.29,-3.88,-2.31,-3.38,4.03,-6.16,
2.072,-0.29,-3.88,-2.31,-3.22,3.71,-6.07,
2.073,-9.49,-4.30,-1.60,-3.22,3.71,-6.07,
2.074,-9.49,-4.30,-1.60,-2.95,3.14,-5.41,
2.078,-9.49,-4.30,-1.60,-2.62,2.41,-4.77,
2.079,-10.97,-4.84,-2.57,-2.62,2.41,-4.77,
2.08,-10.97,-4.84,-2.57,-2.27,1.58,-4.44,
2.083,-10.97,-4.84,-2.57,-1.93,0.79,-4.13,
2.084,-1.80,-3.15,-6.03,-1.93,0.79,-4.13,
2.087,-1.80,-3.15,-6.03,-1.56,0.02,-3.63,
2.087,-9.11,-2.38,-3.65,-1.56,0.02,-3.63,
2.088,-9.11,-2.38,-3.65,-1.16,-0.71,-2.93,
2.089,-9.11,-2.38,-3.65,-0.80,-1.25,-2.28,
2.092,-9.11,-2.38,-3.65,-0.48,-1.48,-1.71,
2.092,-5.70,-1.67,-3.64,-0.48,-1.48,-1.71,
2.094,-5.70,-1.67,-3.64,-0.19,-1.50,-1.16,
2.097,-5.70,-1.67,-3.64,0.07,-1.40,-0.65,
2.097,-5.09,-1.82,-2.88,0.07,-1.40,-0.65,
2.1,-5.09,-1.82,-2.88,0.33,-1.25,-0.23,
2.104,-5.09,-1.82,-2.88,0.58,-1.06,0.11,
2.104,-2.38,-2.45,-1.31,0.58,-1.06,0.11,
2.105,-2.38,-2.45,-1.31,0.82,-0.84,0.38,
2.107,-0.35,-2.93,-0.04,0.82,-0.84,0.38,
2.107,-0.35,-2.93,-0.04,1.04,-0.60,0.58,
2.109,-0.35,-2.93,-0.04,1.26,-0.33,0.72,
2.111,-0.35,-2.93,-0.04,1.45,-0.05,0.83,
2.112,0.79,-3.11,0.62,1.45,-0.05,0.83,
2.114,0.79,-3.11,0.62,1.63,0.24,0.91,
2.119,0.79,-3.11,0.62,1.78,0.55,0.96,
2.119,1.08,-2.96,0.53,1.78,0.55,0.96,
2.12,1.08,-2.96,0.53,1.91,0.84,1.00,
2.125,1.17,-2.95,0.20,1.91,0.84,1.00,
2.126,1.17,-2.95,0.20,2.01,1.13,1.03,
2.126,1.17,-2.95,0.20,2.10,1.40,1.05,
2.126,1.48,-2.81,0.22,2.10,1.40,1.05,
2.127,1.48,-2.81,0.22,2.16,1.64,1.05,
2.129,1.48,-2.81,0.22,2.21,1.87,1.04,
2.132,1.48,-2.81,0.22,2.24,2.07,1.03,
2.132,1.50,-2.52,0.30,2.24,2.07,1.03,
2.135,1.50,-2.52,0.30,2.27,2.23,1.01,
2.136,1.50,-2.52,0.30,2.29,2.36,0.99,
2.136,1.38,-2.11,0.60,2.29,2.36,0.99,
2.14,1.38,-2.11,0.60,2.30,2.48,0.97,
2.141,1.38,-2.11,0.60,2.31,2.58,0.95,
2.142,1.26,-1.75,0.51,2.31,2.58,0.95,
2.144,1.26,-1.75,0.51,2.32,2.67,0.92,
2.146,1.26,-1.75,0.51,2.32,2.74,0.90,
2.146,1.03,-1.44,0.48,2.32,2.74,0.90,
2.149,1.03,-1.44,0.48,2.32,2.82,0.88,
2.151,1.03,-1.44,0.48,2.31,2.88,0.86,
2.152,0.95,-1.02,0.34,2.31,2.88,0.86,
2.154,0.95,-1.02,0.34,2.29,2.93,0.85,
2.156,0.95,-1.02,0.34,2.27,2.96,0.83,
2.157,0.83,-0.75,0.40,2.27,2.96,0.83,
2.159,0.83,-0.75,0.40,2.25,2.98,0.80,
2.161,0.83,-0.75,0.40,2.22,2.99,0.77,
2.161,0.91,-0.46,0.35,2.22,2.99,0.77,
2.163,0.91,-0.46,0.35,2.18,2.99,0.73,
2.166,1.39,-0.34,0.20,2.18,2.99,0.73,
2.166,1.39,-0.34,0.20,2.13,2.96,0.67,
2.169,1.39,-0.34,0.20,2.07,2.91,0.59,
2.171,1.39,-0.34,0.20,2.02,2.83,0.52,
2.171,1.27,-0.34,0.68,2.02,2.83,0.52,
2.174,1.27,-0.34,0.68,2.00,2.67,0.44,
2.176,1.27,-0.34,0.68,1.98,2.47,0.37,
2.176,1.08,-0.12,1.44,1.98,2.47,0.37,
2.178,1.08,-0.12,1.44,1.96,2.28,0.28,
2.181,1.08,-0.12,1.44,1.92,2.08,0.22,
2.181,0.32,0.36,0.20,1.92,2.08,0.22,
2.184,0.32,0.36,0.20,1.86,1.89,0.16,
2.186,-0.31,0.40,-0.44,1.86,1.89,0.16,
2.186,-0.31,0.40,-0.44,1.79,1.70,0.12,
2.188,-0.31,0.40,-0.44,1.70,1.49,0.06,
2.191,-0.31,0.40,-0.44,1.59,1.29,-0.00,
2.192,-0.17,0.69,-0.73,1.59,1.29,-0.00,
2.194,-0.17,0.69,-0.73,1.47,1.10,-0.07,
2.196,-0.17,0.69,-0.73,1.32,0.91,-0.15,
2.22,-0.66,1.00,-1.22,1.32,0.91,-0.15,
2.22,-0.66,1.00,-1.22,1.15,0.72,-0.22,
2.22,-0.99,1.28,-1.33,1.15,0.72,-0.22,
2.221,-0.99,1.28,-1.33,0.98,0.53,-0.30,
2.221,-0.99,1.28,-1.33,0.80,0.36,-0.39,
2.221,-0.99,1.28,-1.33,0.63,0.23,-0.47,
2.221,-1.14,1.69,-1.73,0.63,0.23,-0.47,
2.222,-1.14,1.69,-1.73,0.47,0.14,-0.56,
2.222,-1.14,1.93,-1.52,0.47,0.14,-0.56,
2.222,-1.14,1.93,-1.52,0.33,0.06,-0.65,
2.223,-1.14,1.93,-1.52,0.20,0.01,-0.75,
2.223,-1.29,2.25,-1.57,0.20,0.01,-0.75,
2.223,-1.29,2.25,-1.57,0.09,-0.01,-0.83,
2.223,-1.29,2.25,-1.57,-0.01,0.00,-0.91,
2.224,-1.29,2.25,-1.57,-0.10,0.05,-0.99,
2.224,-1.43,2.66,-1.79,-0.10,0.05,-0.99,
2.224,-1.43,2.66,-1.79,-0.17,0.11,-1.06,
2.231,-1.43,2.66,-1.79,-0.20,0.17,-1.13,
2.231,-1.15,2.81,-1.01,-0.20,0.17,-1.13,
2.231,-1.15,2.81,-1.01,-0.21,0.23,-1.19,
2.232,-1.15,2.81,-1.01,-0.19,0.32,-1.26,
2.232,-0.58,2.78,-0.64,-0.19,0.32,-1.26,
2.251,-0.58,2.78,-0.64,-0.16,0.44,-1.32,
2.251,-0.58,2.78,-0.64,-0.10,0.55,-1.37,
2.251,-0.43,2.55,-0.24,-0.10,0.55,-1.37,
2.252,-0.43,2.55,-0.24,-0.02,0.67,-1.40,
2.252,-0.43,2.55,-0.24,0.07,0.80,-1.40,
2.252,-0.37,2.70,-0.07,0.07,0.80,-1.40,
2.252,-0.37,2.70,-0.07,0.18,0.94,-1.40,
2.252,-0.37,2.70,-0.07,0.29,1.06,-1.38,
2.252,-0.10,2.48,0.11,0.29,1.06,-1.38,
2.253,-0.10,2.48,0.11,0.40,1.16,-1.34,
2.253,-0.10,2.48,0.11,0.53,1.25,-1.29,
2.253,-0.18,2.11,0.30,0.53,1.25,-1.29,
2.253,-0.18,2.11,0.30,0.65,1.34,-1.23,
2.255,-0.18,2.11,0.30,0.76,1.44,-1.18,
2.256,0.57,1.35,0.02,0.76,1.44,-1.18,
2.258,0.57,1.35,0.02,0.86,1.49,-1.14,
2.26,0.57,1.35,0.02,0.95,1.53,-1.10,
2.26,0.39,0.87,0.03,0.95,1.53,-1.10,
2.262,0.39,0.87,0.03,1.03,1.56,-1.07,
2.265,0.39,0.87,0.03,1.08,1.61,-1.04,
2.265,0.42,0.07,-1.04,1.08,1.61,-1.04,
2.268,0.42,0.07,-1.04,1.13,1.66,-1.02,
2.27,0.42,0.07,-1.04,1.16,1.71,-1.01,
2.27,0.40,-1.22,-1.81,1.16,1.71,-1.01,
2.273,0.40,-1.22,-1.81,1.19,1.76,-1.00,
2.277,0.40,-1.22,-1.81,1.23,1.77,-1.01,
2.277,1.06,-2.35,-1.27,1.23,1.77,-1.01,
2.278,1.06,-2.35,-1.27,1.28,1.77,-1.01,
2.281,1.50,-2.55,-0.75,1.28,1.77,-1.01,
2.281,1.50,-2.55,-0.75,1.32,1.74,-1.00,
2.284,1.50,-2.55,-0.75,1.36,1.70,-0.96,
2.286,1.50,-2.55,-0.75,1.39,1.66,-0.91,
2.287,1.20,-2.59,-0.77,1.39,1.66,-0.91,
2.288,1.20,-2.59,-0.77,1.42,1.61,-0.85,
2.29,1.20,-2.59,-0.77,1.44,1.55,-0.78,
2.29,1.68,-2.62,-0.75,1.44,1.55,-0.78,
2.293,1.68,-2.62,-0.75,1.46,1.55,-0.73,
2.295,1.68,-2.62,-0.75,1.48,1.57,-0.68,
2.295,2.32,-2.95,-1.04,1.48,1.57,-0.68,
2.297,2.32,-2.95,-1.04,1.49,1.61,-0.63,
2.3,2.32,-2.95,-1.04,1.49,1.66,-0.58,
2.3,2.66,-2.65,-1.08,1.49,1.66,-0.58,
2.303,2.66,-2.65,-1.08,1.49,1.72,-0.53,
2.305,2.66,-2.65,-1.08,1.49,1.78,-0.48,
2.305,2.87,-2.26,-1.05,1.49,1.78,-0.48,
2.307,2.87,-2.26,-1.05,1.47,1.86,-0.41,
2.31,2.87,-2.26,-1.05,1.45,1.94,-0.34,
2.31,2.86,-1.68,-1.20,1.45,1.94,-0.34,
2.312,2.86,-1.68,-1.20,1.40,2.03,-0.26,
2.315,2.86,-1.68,-1.20,1.34,2.12,-0.18,
2.315,2.39,-0.97,-1.47,1.34,2.12,-0.18,
2.319,2.39,-0.97,-1.47,1.28,2.22,-0.09,
2.32,2.39,-0.97,-1.47,1.21,2.34,-0.00,
2.32,1.40,-0.22,-1.89,1.21,2.34,-0.00,
2.323,1.40,-0.22,-1.89,1.15,2.46,0.09,
2.325,-0.00,0.92,-2.53,1.15,2.46,0.09,
2.325,-0.00,0.92,-2.53,1.10,2.59,0.19,
2.327,-0.00,0.92,-2.53,1.04,2.73,0.31,
2.33,-0.00,0.92,-2.53,1.00,2.88,0.44,
2.331,-1.35,2.60,-3.24,1.00,2.88,0.44,
2.332,-1.35,2.60,-3.24,0.97,3.01,0.59,
2.336,-0.73,3.53,-3.09,0.97,3.01,0.59,
2.336,-0.73,3.53,-3.09,0.97,3.11,0.71,
2.339,-0.73,3.53,-3.09,0.99,3.12,0.78,
2.34,-0.73,3.53,-3.09,1.04,3.07,0.83,
2.34,-0.07,4.46,-1.84,1.04,3.07,0.83,
2.342,-0.07,4.46,-1.84,1.04,2.98,0.93,
2.344,-0.07,4.46,-1.84,1.01,2.91,0.96,
2.345,0.38,5.00,-2.73,1.01,2.91,0.96,
2.347,0.38,5.00,-2.73,0.94,2.86,0.90,
2.355,0.38,5.00,-2.73,0.87,2.81,0.74,
2.356,2.23,2.40,-2.66,0.87,2.81,0.74,
2.356,2.23,2.40,-2.66,0.82,2.75,0.54,
2.356,2.23,2.40,-2.66,0.76,2.69,0.32,
2.356,2.70,0.81,-1.89,0.76,2.69,0.32,
2.357,2.70,0.81,-1.89,0.70,2.66,0.10,
2.36,2.70,0.81,-1.89,0.64,2.68,-0.09,
2.36,2.26,0.63,-1.64,0.64,2.68,-0.09,
2.374,2.26,0.63,-1.64,0.59,2.70,-0.24,
2.375,2.26,0.63,-1.64,0.55,2.72,-0.32,
2.375,1.00,0.86,-0.72,0.55,2.72,-0.32,
2.375,1.00,0.86,-0.72,0.51,2.72,-0.35,
2.375,1.00,0.86,-0.72,0.49,2.66,-0.35,
2.375,0.02,0.52,0.70,0.49,2.66,-0.35,
2.376,0.02,0.52,0.70,0.46,2.53,-0.35,
2.376,-0.67,0.18,2.32,0.46,2.53,-0.35,
2.376,-0.67,0.18,2.32,0.43,2.34,-0.33,
2.378,-0.67,0.18,2.32,0.43,2.14,-0.30,
2.38,-0.67,0.18,2.32,0.44,1.91,-0.28,
2.389,-0.91,-0.09,3.51,0.44,1.91,-0.28,
2.389,-0.91,-0.09,3.51,0.47,1.69,-0.24,
2.389,-0.91,-0.09,3.51,0.51,1.51,-0.21,
2.39,-1.00,-0.38,3.62,0.51,1.51,-0.21,
2.39,-1.00,-0.38,3.62,0.55,1.36,-0.20,
2.39,-0.45,-1.57,3.68,0.55,1.36,-0.20,
2.39,-0.45,-1.57,3.68,0.59,1.24,-0.21,
2.394,-0.45,-1.57,3.68,0.62,1.10,-0.25,
2.394,-0.54,-2.78,3.81,0.62,1.10,-0.25,
2.395,-0.54,-2.78,3.81,0.66,0.95,-0.32,
2.397,-0.54,-2.78,3.81,0.67,0.81,-0.42,
2.399,-1.42,-2.24,2.88,0.67,0.81,-0.42,
2.402,-1.42,-2.24,2.88,0.67,0.72,-0.49,
2.402,-1.42,-2.24,2.88,0.66,0.66,-0.52,
2.404,-1.42,-2.24,2.88,0.65,0.64,-0.52,
2.405,-2.06,-0.14,1.81,0.65,0.64,-0.52,
2.406,-2.06,-0.14,1.81,0.65,0.65,-0.51,
2.411,-2.06,-0.14,1.81,0.66,0.66,-0.51,
2.412,-2.00,1.89,1.19,0.66,0.66,-0.51,
2.412,-2.00,1.89,1.19,0.66,0.65,-0.52,
2.415,-2.00,1.89,1.19,0.65,0.65,-0.55,
2.415,-1.66,2.71,0.53,0.65,0.65,-0.55,
2.418,-1.66,2.71,0.53,0.63,0.62,-0.59,
2.42,-1.66,2.71,0.53,0.61,0.57,-0.62,
2.42,-1.46,3.40,0.09,0.61,0.57,-0.62,
2.422,-1.46,3.40,0.09,0.57,0.50,-0.64,
2.424,-1.46,3.40,0.09,0.52,0.41,-0.65,
2.424,-1.33,4.48,-0.16,0.52,0.41,-0.65,
2.426,-1.33,4.48,-0.16,0.46,0.30,-0.65,
2.429,-1.33,4.48,-0.16,0.39,0.18,-0.63,
2.429,-1.29,6.09,-0.31,0.39,0.18,-0.63,
2.431,-1.29,6.09,-0.31,0.31,0.04,-0.61,
2.435,-1.29,6.09,-0.31,0.25,-0.06,-0.62,
2.436,0.47,4.61,-0.70,0.25,-0.06,-0.62,
2.436,0.47,4.61,-0.70,0.21,-0.11,-0.67,
2.441,0.47,4.61,-0.70,0.18,-0.16,-0.75,
2.441,2.79,0.49,-0.55,0.18,-0.16,-0.75,
2.444,2.79,0.49,-0.55,0.16,-0.24,-0.86,
2.444,2.79,0.49,-0.55,0.12,-0.31,-0.98,
2.444,3.71,-1.41,-0.79,0.12,-0.31,-0.98,
2.446,3.71,-1.41,-0.79,0.06,-0.35,-1.03,
2.449,3.71,-1.41,-0.79,0.01,-0.36,-1.03,
2.449,2.61,-2.48,-0.88,0.01,-0.36,-1.03,
2.451,2.61,-2.48,-0.88,-0.02,-0.38,-0.96,
2.454,2.15,-3.46,-0.41,-0.02,-0.38,-0.96,
2.455,2.15,-3.46,-0.41,-0.04,-0.39,-0.86,
2.456,2.15,-3.46,-0.41,-0.04,-0.45,-0.74,
2.459,2.84,-3.36,0.05,-0.04,-0.45,-0.74,
2.459,2.84,-3.36,0.05,-0.04,-0.54,-0.64,
2.461,2.84,-3.36,0.05,-0.03,-0.64,-0.59,
2.464,2.84,-3.36,0.05,-0.01,-0.73,-0.59,
2.464,3.86,-2.48,0.05,-0.01,-0.73,-0.59,
2.466,3.86,-2.48,0.05,0.03,-0.84,-0.62,
2.469,3.86,-2.48,0.05,0.11,-0.93,-0.68,
2.469,4.70,-2.22,-0.09,0.11,-0.93,-0.68,
2.471,4.70,-2.22,-0.09,0.16,-0.93,-0.70,
2.474,4.04,-3.57,-0.94,0.16,-0.93,-0.70,
2.474,4.04,-3.57,-0.94,0.18,-0.88,-0.68,
2.476,4.04,-3.57,-0.94,0.15,-0.90,-0.68,
2.479,4.04,-3.57,-0.94,0.09,-0.93,-0.68,
2.479,3.41,-3.11,-1.12,0.09,-0.93,-0.68,
2.481,3.41,-3.11,-1.12,0.06,-0.92,-0.67,
2.486,2.61,-2.25,-1.01,0.06,-0.92,-0.67,
2.486,2.61,-2.25,-1.01,0.04,-0.89,-0.65,
2.486,2.61,-2.25,-1.01,0.03,-0.88,-0.63,
2.489,2.61,-2.25,-1.01,0.03,-0.87,-0.62,
2.489,2.42,-2.03,-0.83,0.03,-0.87,-0.62,
2.491,2.42,-2.03,-0.83,0.04,-0.89,-0.60,
2.493,2.42,-2.03,-0.83,0.04,-0.94,-0.57,
2.494,2.20,-2.16,-0.65,0.04,-0.94,-0.57,
2.496,2.20,-2.16,-0.65,0.04,-0.99,-0.54,
2.499,2.32,-2.38,-0.91,0.04,-0.99,-0.54,
2.499,2.32,-2.38,-0.91,0.02,-1.03,-0.52,
2.501,2.32,-2.38,-0.91,0.01,-1.08,-0.52,
2.503,2.09,-1.88,-1.04,0.01,-1.08,-0.52,
2.503,2.09,-1.88,-1.04,0.01,-1.14,-0.53,
2.506,2.09,-1.88,-1.04,0.01,-1.21,-0.53,
2.508,2.09,-1.88,-1.04,0.01,-1.32,-0.55,
2.508,1.73,-1.09,-0.87,0.01,-1.32,-0.55,
2.511,1.73,-1.09,-0.87,0.02,-1.47,-0.60,
2.513,1.73,-1.09,-0.87,0.04,-1.67,-0.67,
2.513,1.39,-0.26,-0.94,0.04,-1.67,-0.67,
2.515,1.39,-0.26,-0.94,0.08,-1.94,-0.77,
2.519,1.39,-0.26,-0.94,0.14,-2.29,-0.93,
2.52,0.61,0.24,-1.36,0.14,-2.29,-0.93,
2.52,0.61,0.24,-1.36,0.22,-2.75,-1.16,
2.524,0.61,0.24,-1.36,0.28,-3.29,-1.43,
2.525,-0.83,0.61,-2.08,0.28,-3.29,-1.43,
2.525,-0.83,0.61,-2.08,0.29,-3.79,-1.58,
2.54,-0.83,0.61,-2.08,0.22,-4.19,-1.57,
2.541,-0.96,1.17,-2.67,0.22,-4.19,-1.57,
2.541,-0.96,1.17,-2.67,0.05,-4.33,-1.44,
2.541,-0.96,1.17,-2.67,-0.17,-4.19,-1.32,
2.541,0.31,-1.60,-4.25,-0.17,-4.19,-1.32,
2.542,0.31,-1.60,-4.25,-0.39,-3.83,-1.30,
2.542,0.31,-1.60,-4.25,-0.55,-3.36,-1.38,
2.542,-0.87,-2.28,-2.93,-0.55,-3.36,-1.38,
2.543,-0.87,-2.28,-2.93,-0.63,-2.88,-1.47,
2.543,-0.87,-2.28,-2.93,-0.65,-2.49,-1.51,
2.543,-2.77,-0.12,0.57,-0.65,-2.49,-1.51,
2.545,-2.77,-0.12,0.57,-0.64,-2.17,-1.51,
2.552,-2.77,-0.12,0.57,-0.62,-1.91,-1.47,
2.552,-2.77,-0.12,0.57,-0.59,-1.71,-1.45,
2.552,-2.41,-0.34,2.07,-0.59,-1.71,-1.45,
2.553,-1.28,-1.37,1.97,-0.59,-1.71,-1.45,
2.554,-1.28,-1.37,1.97,-0.56,-1.54,-1.43,
2.555,-1.28,-1.37,1.97,-0.52,-1.37,-1.42,
2.558,-1.28,-1.37,1.97,-0.49,-1.21,-1.39,
2.558,-0.46,-1.29,0.64,-0.49,-1.21,-1.39,
2.56,-0.46,-1.29,0.64,-0.46,-1.08,-1.34,
2.563,-0.46,-1.29,0.64,-0.43,-0.99,-1.28,
2.563,0.34,-1.27,-0.08,-0.43,-0.99,-1.28,
2.565,0.34,-1.27,-0.08,-0.38,-0.93,-1.22,
2.568,0.34,-1.27,-0.08,-0.34,-0.90,-1.14,
2.569,1.18,-1.33,-0.84,-0.34,-0.90,-1.14,
2.57,1.18,-1.33,-0.84,-0.30,-0.88,-1.07,
2.573,1.18,-1.33,-0.84,-0.27,-0.87,-1.00,
2.573,1.74,-1.23,-1.51,-0.27,-0.87,-1.00,
2.575,1.74,-1.23,-1.51,-0.23,-0.87,-0.93,
2.578,1.74,-1.23,-1.51,-0.20,-0.88,-0.85,
2.578,2.21,-1.07,-1.77,-0.20,-0.88,-0.85,
2.581,2.21,-1.07,-1.77,-0.17,-0.89,-0.78,
2.583,2.21,-1.07,-1.77,-0.15,-0.90,-0.71,
2.584,2.62,-0.72,-1.87,-0.15,-0.90,-0.71,
2.585,2.62,-0.72,-1.87,-0.14,-0.91,-0.65,
2.589,2.62,-0.72,-1.87,-0.14,-0.91,-0.58,
2.589,2.57,-0.30,-1.98,-0.14,-0.91,-0.58,
2.591,2.57,-0.30,-1.98,-0.13,-0.91,-0.52,
2.592,2.58,-0.28,-1.63,-0.13,-0.91,-0.52,
2.592,2.58,-0.28,-1.63,-0.13,-0.92,-0.48,
2.595,2.58,-0.28,-1.63,-0.14,-0.94,-0.46,
2.597,2.58,-0.28,-1.63,-0.15,-0.97,-0.45,
2.598,2.18,-0.08,-1.42,-0.15,-0.97,-0.45,
2.603,2.18,-0.08,-1.42,-0.16,-1.00,-0.44,
2.603,2.18,-0.08,-1.42,-0.18,-1.04,-0.43,
2.603,1.53,0.10,-1.20,-0.18,-1.04,-0.43,
2.605,1.53,0.10,-1.20,-0.19,-1.10,-0.44,
2.607,1.53,0.10,-1.20,-0.20,-1.17,-0.45,
2.608,1.29,-0.02,-0.85,-0.20,-1.17,-0.45,
2.61,1.29,-0.02,-0.85,-0.21,-1.25,-0.47,
2.612,1.29,-0.02,-0.85,-0.22,-1.34,-0.50,
2.613,1.05,0.11,-0.68,-0.22,-1.34,-0.50,
2.614,1.05,0.11,-0.68,-0.23,-1.42,-0.53,
2.617,1.05,0.11,-0.68,-0.24,-1.49,-0.57,
2.617,1.04,0.34,-0.93,-0.24,-1.49,-0.57,
2.62,1.04,0.34,-0.93,-0.25,-1.56,-0.61,
2.622,1.04,0.34,-0.93,-0.26,-1.61,-0.63,
2.622,0.83,0.66,-1.06,-0.26,-1.61,-0.63,
2.624,0.83,0.66,-1.06,-0.26,-1.64,-0.64,
2.627,0.83,0.66,-1.06,-0.25,-1.65,-0.66,
2.627,0.64,0.75,-1.07,-0.25,-1.65,-0.66,
2.629,0.64,0.75,-1.07,-0.24,-1.66,-0.68,
2.632,0.64,0.75,-1.07,-0.24,-1.67,-0.69,
2.632,0.55,0.71,-1.25,-0.24,-1.67,-0.69,
2.635,0.55,0.71,-1.25,-0.24,-1.65,-0.70,
2.637,0.55,0.71,-1.25,-0.24,-1.62,-0.71,
2.637,0.22,1.03,-1.36,-0.24,-1.62,-0.71,
2.639,0.22,1.03,-1.36,-0.24,-1.57,-0.70,
2.642,0.14,1.48,-1.74,-0.24,-1.57,-0.70,
2.642,0.14,1.48,-1.74,-0.25,-1.50,-0.69,
2.644,0.14,1.48,-1.74,-0.26,-1.42,-0.68,
2.647,0.14,1.48,-1.74,-0.26,-1.35,-0.66,
2.647,-0.14,2.13,-1.42,-0.26,-1.35,-0.66,
2.649,-0.14,2.13,-1.42,-0.25,-1.28,-0.64,
2.653,-0.14,2.13,-1.42,-0.25,-1.22,-0.65,
2.653,0.15,2.86,-1.23,-0.25,-1.22,-0.65,
2.654,0.15,2.86,-1.23,-0.29,-1.16,-0.62,
2.657,0.15,2.86,-1.23,-0.38,-1.11,-0.53,
2.657,-0.20,2.65,-2.20,-0.38,-1.11,-0.53,
2.659,-0.20,2.65,-2.20,-0.42,-1.07,-0.46,
2.662,-0.20,2.65,-2.20,-0.40,-0.98,-0.44,
2.662,-0.21,1.42,-0.81,-0.40,-0.98,-0.44,
2.664,-0.21,1.42,-0.81,-0.35,-0.87,-0.43,
2.668,-0.21,1.42,-0.81,-0.32,-0.80,-0.42,
2.668,-0.71,2.76,-0.48,-0.32,-0.80,-0.42,
2.671,-0.71,2.76,-0.48,-0.30,-0.77,-0.41,
2.672,-0.71,2.76,-0.48,-0.29,-0.73,-0.40,
2.672,-0.27,3.15,-0.58,-0.29,-0.73,-0.40,
2.674,-0.27,3.15,-0.58,-0.28,-0.69,-0.41,
2.677,-0.27,3.15,-0.58,-0.26,-0.67,-0.41,
2.677,0.14,2.94,-0.49,-0.26,-0.67,-0.41,
2.679,0.14,2.94,-0.49,-0.24,-0.66,-0.41,
2.682,0.14,2.94,-0.49,-0.22,-0.66,-0.40,
2.683,0.52,2.72,-0.22,-0.22,-0.66,-0.40,
2.686,0.52,2.72,-0.22,-0.19,-0.64,-0.40,
2.687,0.89,2.51,-0.58,-0.19,-0.64,-0.40,
2.687,0.89,2.51,-0.58,-0.15,-0.61,-0.41,
2.689,0.89,2.51,-0.58,-0.13,-0.56,-0.41,
2.692,0.91,2.54,-0.96,-0.13,-0.56,-0.41,
2.702,0.91,2.54,-0.96,-0.10,-0.52,-0.41,
2.702,0.91,2.54,-0.96,-0.08,-0.45,-0.41,
2.703,0.91,2.54,-0.96,-0.06,-0.37,-0.41,
2.703,0.76,2.49,-1.33,-0.06,-0.37,-0.41,
2.703,0.76,2.49,-1.33,-0.03,-0.29,-0.42,
2.703,0.76,2.49,-1.33,-0.01,-0.21,-0.42,
2.703,0.78,2.35,-1.61,-0.01,-0.21,-0.42,
2.707,0.78,2.35,-1.61,0.02,-0.13,-0.42,
2.708,0.78,2.35,-1.61,0.03,-0.06,-0.43,
2.708,0.64,2.41,-1.88,0.03,-0.06,-0.43,
2.709,0.64,2.41,-1.88,0.05,0.03,-0.43,
2.713,0.64,2.41,-1.88,0.08,0.13,-0.43,
2.713,0.38,2.42,-1.81,0.08,0.13,-0.43,
2.714,0.38,2.42,-1.81,0.10,0.22,-0.43,
2.716,0.14,2.48,-1.67,0.10,0.22,-0.43,
2.72,0.14,2.48,-1.67,0.11,0.29,-0.44,
2.721,0.14,2.48,-1.67,0.11,0.35,-0.48,
2.722,0.14,2.48,-1.67,0.11,0.40,-0.53,
2.722,-0.04,2.72,-1.85,0.11,0.40,-0.53,
2.724,-0.04,2.72,-1.85,0.12,0.46,-0.58,
2.727,-0.04,2.72,-1.85,0.13,0.48,-0.66,
2.727,-0.41,3.27,-1.77,0.13,0.48,-0.66,
2.729,-0.41,3.27,-1.77,0.13,0.47,-0.74,
2.731,-0.41,3.27,-1.77,0.13,0.43,-0.79,
2.731,-0.29,2.66,-1.79,0.13,0.43,-0.79,
2.734,-0.29,2.66,-1.79,0.13,0.36,-0.88,
2.737,0.21,0.81,-1.71,0.13,0.36,-0.88,
2.737,0.21,0.81,-1.71,0.14,0.26,-1.00,
2.738,0.21,0.81,-1.71,0.17,0.14,-1.14,
2.742,0.21,0.81,-1.71,0.25,-0.08,-1.35,
2.742,-0.18,-0.61,-0.34,0.25,-0.08,-1.35,
2.744,-0.18,-0.61,-0.34,0.37,-0.49,-1.70,
2.746,-0.18,-0.61,-0.34,0.57,-0.97,-2.14,
2.746,1.53,-5.75,3.50,0.57,-0.97,-2.14,
2.748,1.53,-5.75,3.50,0.85,-1.40,-2.55,
2.751,1.99,-10.49,2.07,0.85,-1.40,-2.55,
2.752,1.99,-10.49,2.07,1.11,-1.68,-2.76,
2.754,1.99,-10.49,2.07,1.24,-1.88,-2.76,
2.756,1.99,-10.49,2.07,1.20,-2.03,-2.67,
2.757,0.98,-9.59,-1.71,1.20,-2.03,-2.67,
2.758,0.98,-9.59,-1.71,1.02,-2.16,-2.59,
2.761,0.98,-9.59,-1.71,0.81,-2.27,-2.54,
2.762,0.29,-5.76,-3.09,0.81,-2.27,-2.54,
2.763,0.29,-5.76,-3.09,0.61,-2.29,-2.51,
2.766,0.29,-5.76,-3.09,0.50,-2.23,-2.48,
2.766,0.74,-2.87,-1.35,0.50,-2.23,-2.48,
2.769,0.74,-2.87,-1.35,0.47,-2.12,-2.43,
2.771,1.98,-2.21,0.07,0.47,-2.12,-2.43,
2.771,1.98,-2.21,0.07,0.47,-2.02,-2.37,
2.773,1.98,-2.21,0.07,0.47,-1.95,-2.28,
2.776,1.98,-2.21,0.07,0.44,-1.93,-2.13,
2.776,2.45,-1.57,0.22,0.44,-1.93,-2.13,
2.778,2.45,-1.57,0.22,0.37,-1.95,-1.98,
2.781,2.91,-0.45,-0.33,0.37,-1.95,-1.98,
2.781,2.91,-0.45,-0.33,0.28,-1.96,-1.83,
2.784,2.91,-0.45,-0.33,0.20,-1.96,-1.67,
2.786,2.91,-0.45,-0.33,0.10,-1.91,-1.49,
2.786,2.53,1.59,-1.05,0.10,-1.91,-1.49,
2.788,2.53,1.59,-1.05,-0.00,-1.80,-1.29,
2.791,2.53,1.59,-1.05,-0.10,-1.63,-1.12,
2.791,2.70,2.63,-2.16,-0.10,-1.63,-1.12,
2.793,2.70,2.63,-2.16,-0.17,-1.41,-0.99,
2.796,2.70,2.63,-2.16,-0.23,-1.19,-0.89,
2.796,2.36,3.59,-2.52,-0.23,-1.19,-0.89,
2.798,2.36,3.59,-2.52,-0.28,-1.00,-0.84,
2.803,2.36,3.59,-2.52,-0.31,-0.82,-0.79,
2.804,1.43,2.95,-2.51,-0.31,-0.82,-0.79,
2.804,1.43,2.95,-2.51,-0.32,-0.66,-0.75,
2.806,1.43,2.95,-2.51,-0.30,-0.51,-0.70,
2.806,0.77,1.73,-2.14,-0.30,-0.51,-0.70,
2.808,0.77,1.73,-2.14,-0.28,-0.39,-0.64,
2.811,0.77,1.73,-2.14,-0.27,-0.34,-0.56,
2.811,0.25,0.20,-1.82,-0.27,-0.34,-0.56,
2.813,0.25,0.20,-1.82,-0.27,-0.34,-0.50,
2.816,0.25,0.20,-1.82,-0.26,-0.38,-0.47,
2.816,0.49,-3.54,-1.27,-0.26,-0.38,-0.47,
2.818,0.49,-3.54,-1.27,-0.24,-0.45,-0.45,
2.821,0.37,-4.69,-0.13,-0.24,-0.45,-0.45,
2.821,0.37,-4.69,-0.13,-0.20,-0.56,-0.40,
2.823,0.37,-4.69,-0.13,-0.16,-0.68,-0.34,
2.825,0.37,-4.69,-0.13,-0.13,-0.79,-0.29,
2.826,0.22,-4.19,-0.07,-0.13,-0.79,-0.29,
2.828,0.22,-4.19,-0.07,-0.10,-0.89,-0.27,
2.83,0.22,-4.19,-0.07,-0.07,-0.99,-0.28,
2.831,0.84,-3.25,-0.06,-0.07,-0.99,-0.28,
2.833,0.84,-3.25,-0.06,-0.03,-1.09,-0.30,
2.836,0.84,-3.25,-0.06,0.01,-1.22,-0.29,
2.836,1.52,-2.30,0.38,0.01,-1.22,-0.29,
2.838,1.52,-2.30,0.38,0.06,-1.35,-0.28,
2.84,1.52,-2.30,0.38,0.14,-1.47,-0.26,
2.841,2.92,-1.87,0.86,0.14,-1.47,-0.26,
2.843,2.92,-1.87,0.86,0.24,-1.59,-0.27,
2.845,2.92,-1.87,0.86,0.39,-1.78,-0.31,
2.845,3.86,-1.66,2.63,0.39,-1.78,-0.31,
2.848,3.86,-1.66,2.63,0.59,-2.05,-0.38,
2.851,3.86,-1.66,2.63,0.82,-2.38,-0.49,
2.851,5.75,-0.80,5.53,0.82,-2.38,-0.49,
2.853,5.75,-0.80,5.53,1.11,-2.79,-0.65,
2.855,5.75,-0.80,5.53,1.44,-3.21,-0.86,
2.856,8.07,0.19,8.02,1.44,-3.21,-0.86,
2.877,8.07,0.19,8.02,1.79,-3.61,-1.13,
2.877,8.07,0.19,8.02,2.10,-3.95,-1.45,
2.877,9.77,0.73,7.26,2.10,-3.95,-1.45,
2.878,9.77,0.73,7.26,2.35,-4.21,-1.80,
2.878,9.77,0.73,7.26,2.49,-4.39,-2.11,
2.878,8.32,0.98,3.77,2.49,-4.39,-2.11,
2.878,8.32,0.98,3.77,2.61,-4.55,-2.40,
2.879,8.32,0.98,3.77,2.68,-4.70,-2.66,
2.879,6.39,0.88,3.17,2.68,-4.70,-2.66,
2.879,6.39,0.88,3.17,2.72,-4.84,-2.89,
2.879,6.39,0.88,3.17,2.73,-4.98,-3.09,
2.88,5.20,1.78,2.38,2.73,-4.98,-3.09,
2.88,5.20,1.78,2.38,2.73,-5.14,-3.22,
2.88,5.20,1.78,2.38,2.68,-5.32,-3.30,
2.88,3.10,5.59,1.54,2.68,-5.32,-3.30,
2.884,3.10,5.59,1.54,2.60,-5.41,-3.35,
2.885,1.30,5.61,-0.88,2.60,-5.41,-3.35,
2.886,1.30,5.61,-0.88,2.48,-5.48,-3.43,
2.887,1.30,5.61,-0.88,2.30,-5.48,-3.44,
2.89,1.30,5.61,-0.88,1.95,-5.17,-3.29,
2.89,-7.79,5.92,-10.60,1.95,-5.17,-3.29,
2.892,-7.79,5.92,-10.60,1.36,-4.31,-2.91,
2.895,-7.79,5.92,-10.60,0.59,-3.11,-2.38,
2.895,-17.17,6.11,-23.83,0.59,-3.11,-2.38,
2.897,-17.17,6.11,-23.83,-0.18,-1.94,-1.87,
2.9,-17.17,6.11,-23.83,-0.86,-1.00,-1.50,
2.901,-13.27,4.11,-18.92,-0.86,-1.00,-1.50,
2.905,-13.27,4.11,-18.92,-1.39,-0.37,-1.29,
2.905,-6.99,2.64,-8.68,-1.39,-0.37,-1.29,
2.905,-6.99,2.64,-8.68,-1.77,-0.00,-1.19,
2.908,-6.99,2.64,-8.68,-1.97,0.16,-1.16,
2.91,-6.99,2.64,-8.68,-2.02,0.14,-1.15,
2.911,-3.89,2.12,0.04,-2.02,0.14,-1.15,
2.912,-3.89,2.12,0.04,-1.93,0.04,-1.11,
2.915,-3.89,2.12,0.04,-1.76,-0.08,-1.03,
2.915,-4.49,1.23,5.97,-1.76,-0.08,-1.03,
2.918,-4.49,1.23,5.97,-1.30,-0.53,-0.94,
2.922,-4.49,1.23,5.97,-0.63,-1.16,-0.91,
2.923,-4.64,-3.02,14.41,-0.63,-1.16,-0.91,
2.923,-4.64,-3.02,14.41,-0.37,-1.04,-0.84,
2.925,-4.34,-0.36,-5.04,-0.37,-1.04,-0.84,
2.925,-4.34,-0.36,-5.04,-0.40,-0.46,-0.76,
2.928,-4.34,-0.36,-5.04,-0.32,-0.07,-0.74,
2.93,-4.34,-0.36,-5.04,-0.01,0.04,-0.76,
2.93,-2.60,-3.45,5.10,-0.01,0.04,-0.76,
2.932,-2.60,-3.45,5.10,0.29,0.26,-0.79,
2.94,-2.60,-3.45,5.10,0.48,0.67,-0.79,
2.941,-2.23,-2.35,0.26,0.48,0.67,-0.79,
2.941,-2.23,-2.35,0.26,0.65,1.14,-0.78,
2.941,-2.23,-2.35,0.26,0.87,1.53,-0.78,
2.941,-1.25,-1.93,1.68,0.87,1.53,-0.78,
2.941,-1.25,-1.93,1.68,1.08,1.93,-0.77,
2.945,-1.25,-1.93,1.68,1.26,2.35,-0.75,
2.945,-0.83,-0.90,0.79,1.26,2.35,-0.75,
2.946,-0.83,-0.90,0.79,1.44,2.71,-0.73,
2.949,-0.83,-0.90,0.79,1.66,3.01,-0.72,
2.949,-0.37,-0.13,2.23,1.66,3.01,-0.72,
2.952,-0.37,-0.13,2.23,1.87,3.28,-0.69,
2.955,-0.37,-0.13,2.23,2.08,3.52,-0.66,
2.956,-0.17,0.79,2.10,2.08,3.52,-0.66,
2.957,-0.17,0.79,2.10,2.28,3.76,-0.63,
2.961,-0.17,0.79,2.10,2.48,4.00,-0.59,
2.962,-0.04,1.85,1.31,2.48,4.00,-0.59,
2.963,-0.04,1.85,1.31,2.67,4.18,-0.55,
2.968,-0.04,1.85,1.31,2.85,4.23,-0.50,
2.969,-0.04,1.85,1.31,2.99,4.17,-0.47,
2.969,0.44,2.30,1.50,2.99,4.17,-0.47,
2.969,1.33,2.22,0.95,2.99,4.17,-0.47,
2.971,1.33,2.22,0.95,3.09,3.97,-0.44,
2.972,1.33,2.22,0.95,3.15,3.63,-0.42,
2.976,1.98,1.84,-1.51,3.15,3.63,-0.42,
2.976,1.98,1.84,-1.51,3.11,3.16,-0.41,
2.977,1.98,1.84,-1.51,2.97,2.57,-0.39,
2.98,2.65,0.60,-2.80,2.97,2.57,-0.39,
2.981,2.65,0.60,-2.80,2.79,1.82,-0.39,
2.982,2.65,0.60,-2.80,2.58,0.92,-0.38,
2.986,3.52,-0.87,-2.51,2.58,0.92,-0.38,
2.986,3.52,-0.87,-2.51,2.37,-0.02,-0.39,
2.992,3.52,-0.87,-2.51,2.18,-0.87,-0.40,
2.992,3.52,-0.87,-2.51,2.06,-1.59,-0.43,
2.993,3.52,-0.87,-2.51,2.00,-2.12,-0.46,
2.993,3.86,-1.59,-0.28,2.00,-2.12,-0.46,
2.997,4.08,-1.20,0.22,2.00,-2.12,-0.46,
2.998,4.08,-1.20,0.22,1.97,-2.41,-0.49,
2.998,4.08,-1.20,0.22,1.97,-2.58,-0.52,
2.999,4.01,-1.07,2.17,1.97,-2.58,-0.52,
3.0,4.01,-1.07,2.17,2.03,-2.68,-0.55,
3.002,4.01,-1.07,2.17,2.11,-2.67,-0.57,
3.004,3.33,-1.69,3.28,2.11,-2.67,-0.57,
3.005,3.33,-1.69,3.28,2.23,-2.58,-0.56,
3.007,3.33,-1.69,3.28,2.36,-2.38,-0.53,
3.009,2.93,-1.87,3.36,2.36,-2.38,-0.53,
3.01,2.93,-1.87,3.36,2.48,-2.14,-0.49,
3.011,2.93,-1.87,3.36,2.59,-1.89,-0.45,
3.014,2.95,-1.27,3.89,2.59,-1.89,-0.45,
3.014,2.95,-1.27,3.89,2.70,-1.66,-0.42,
3.016,2.95,-1.27,3.89,2.81,-1.46,-0.38,
3.021,2.95,-1.27,3.89,2.90,-1.28,-0.36,
3.022,2.80,-0.09,4.06,2.90,-1.28,-0.36,
3.022,2.80,-0.09,4.06,2.96,-1.15,-0.33,
3.044,2.80,-0.09,4.06,3.00,-1.10,-0.31,
3.045,2.30,0.84,4.28,3.00,-1.10,-0.31,
3.045,2.30,0.84,4.28,3.01,-1.11,-0.28,
3.045,2.30,0.84,4.28,2.99,-1.16,-0.26,
3.045,1.79,1.40,4.69,2.99,-1.16,-0.26,
3.045,1.79,1.40,4.69,2.94,-1.27,-0.25,
3.046,1.79,1.40,4.69,2.87,-1.40,-0.25,
3.046,1.56,2.04,4.90,2.87,-1.40,-0.25,
3.046,1.56,2.04,4.90,2.75,-1.55,-0.28,
3.046,1.56,2.04,4.90,2.59,-1.70,-0.32,
3.046,1.60,2.51,4.73,2.59,-1.70,-0.32,
3.047,1.60,2.51,4.73,2.45,-1.86,-0.40,
3.047,1.60,2.51,4.73,2.32,-1.97,-0.49,
3.047,1.71,2.96,5.14,2.32,-1.97,-0.49,
3.047,1.71,2.96,5.14,2.20,-2.01,-0.59,
3.048,1.71,2.96,5.14,2.09,-2.02,-0.70,
3.049,1.52,3.32,4.93,2.09,-2.02,-0.70,
3.052,1.52,3.32,4.93,1.96,-2.10,-0.80,
3.054,1.12,3.29,5.02,1.96,-2.10,-0.80,
3.054,1.12,3.29,5.02,1.83,-2.21,-0.92,
3.056,1.12,3.29,5.02,1.68,-2.30,-1.07,
3.058,1.12,3.29,5.02,1.53,-2.32,-1.29,
3.059,0.68,2.40,4.84,1.53,-2.32,-1.29,
3.061,0.68,2.40,4.84,1.41,-2.28,-1.57,
3.063,-0.52,1.35,5.12,1.41,-2.28,-1.57,
3.064,-0.52,1.35,5.12,1.34,-2.12,-1.87,
3.066,-0.52,1.35,5.12,1.23,-1.79,-2.16,
3.07,-0.52,1.35,5.12,1.09,-1.39,-2.44,
3.07,-1.03,1.44,2.42,1.09,-1.39,-2.44,
3.071,-1.03,1.44,2.42,1.00,-0.96,-2.68,
3.074,-1.03,1.44,2.42,0.91,-0.56,-2.88,
3.074,-1.70,1.67,2.60,0.91,-0.56,-2.88,
3.076,-1.70,1.67,2.60,0.85,-0.17,-3.05,
3.078,-1.70,1.67,2.60,0.81,0.20,-3.17,
3.078,-2.35,1.73,2.52,0.81,0.20,-3.17,
3.08,-2.35,1.73,2.52,0.78,0.54,-3.25,
3.085,-2.78,1.53,2.39,0.78,0.54,-3.25,
3.09,-2.78,1.53,2.39,0.76,0.86,-3.30,
3.09,-2.78,1.53,2.39,0.79,1.21,-3.29,
3.09,-3.96,-0.58,2.97,0.79,1.21,-3.29,
3.09,-3.96,-0.58,2.97,0.90,1.61,-3.21,
3.09,-3.96,-0.58,2.97,0.83,1.99,-3.12,
3.093,-3.96,-0.58,2.97,0.82,2.50,-2.94,
3.093,-4.90,-2.31,-0.11,0.82,2.50,-2.94,
3.096,-4.90,-2.31,-0.11,0.76,2.86,-2.74,
3.137,-4.46,-2.41,1.87,0.76,2.86,-2.74,
3.137,-3.41,-1.34,1.09,0.76,2.86,-2.74,
3.137,-3.41,-1.34,1.09,0.78,3.14,-2.54,
3.137,-3.41,-1.34,1.09,0.70,3.49,-2.33,
3.138,-3.41,-1.34,1.09,0.57,3.63,-2.15,
3.138,-3.41,-1.34,1.09,0.60,3.29,-2.00,
3.138,-2.26,-2.38,6.29,0.60,3.29,-2.00,
3.138,-2.26,-2.38,6.29,0.62,2.56,-1.88,
3.138,-1.24,-3.77,4.13,0.62,2.56,-1.88,
3.138,-1.24,-3.77,4.13,0.59,1.85,-1.81,
3.139,-1.24,-3.77,4.13,0.58,1.35,-1.75,
3.139,-1.24,-3.77,4.13,0.56,1.01,-1.70,
3.139,-0.74,-5.03,1.61,0.56,1.01,-1.70,
3.139,-0.74,-5.03,1.61,0.51,0.75,-1.65,
3.139,-0.74,-5.03,1.61,0.47,0.49,-1.61,
3.139,-0.74,-5.03,1.61,0.43,0.28,-1.56,
3.14,-1.27,-6.43,0.57,0.43,0.28,-1.56,
3.14,-1.27,-6.43,0.57,0.38,0.16,-1.49,
3.14,-1.27,-6.43,0.57,0.33,0.09,-1.44,
3.14,-1.46,-7.26,-0.10,0.33,0.09,-1.44,
3.14,-1.46,-7.26,-0.10,0.31,0.05,-1.38,
3.141,-2.15,-7.66,0.69,0.31,0.05,-1.38,
3.141,-2.15,-7.66,0.69,0.29,0.00,-1.31,
3.141,-2.15,-7.66,0.69,0.30,-0.07,-1.22,
3.141,-2.15,-7.66,0.69,0.32,-0.13,-1.14,
3.141,-2.42,-7.34,1.50,0.32,-0.13,-1.14,
3.141,-2.42,-7.34,1.50,0.36,-0.17,-1.06,
3.143,-1.82,-5.84,1.72,0.36,-0.17,-1.06,
3.143,-1.82,-5.84,1.72,0.40,-0.18,-0.97,
3.147,-1.82,-5.84,1.72,0.46,-0.16,-0.90,
3.149,-1.82,-5.84,1.72,0.51,-0.11,-0.81,
3.149,-1.16,-3.54,1.15,0.51,-0.11,-0.81,
3.15,-1.16,-3.54,1.15,0.54,-0.04,-0.72,
3.155,-1.16,-3.54,1.15,0.56,0.05,-0.63,
3.156,-0.75,-1.94,0.10,0.56,0.05,-0.63,
3.156,-0.75,-1.94,0.10,0.57,0.14,-0.53,
3.158,-0.18,-0.66,-0.28,0.57,0.14,-0.53,
3.159,-0.18,-0.66,-0.28,0.56,0.20,-0.45,
3.161,-0.18,-0.66,-0.28,0.55,0.24,-0.36,
3.163,-0.12,0.18,-0.29,0.55,0.24,-0.36,
3.163,-0.12,0.18,-0.29,0.53,0.25,-0.28,
3.165,-0.12,0.18,-0.29,0.51,0.25,-0.19,
3.169,-0.22,0.82,-0.27,0.51,0.25,-0.19,
3.17,-0.22,0.82,-0.27,0.50,0.25,-0.09,
3.171,-0.22,0.82,-0.27,0.48,0.25,0.00,
3.173,-0.31,1.20,-0.14,0.48,0.25,0.00,
3.173,-0.31,1.20,-0.14,0.47,0.27,0.10,
3.175,-0.31,1.20,-0.14,0.47,0.28,0.18,
3.178,-0.31,1.20,-0.14,0.47,0.29,0.26,
3.178,-0.33,1.23,0.16,0.47,0.29,0.26,
3.18,-0.33,1.23,0.16,0.48,0.28,0.33,
3.183,-0.33,1.23,0.16,0.50,0.27,0.38,
3.183,-0.34,1.05,0.59,0.50,0.27,0.38,
3.188,-0.34,1.05,0.59,0.52,0.24,0.43,
3.188,-0.34,1.05,0.59,0.55,0.21,0.46,
3.214,-0.40,0.71,0.80,0.55,0.21,0.46,
3.214,-0.40,0.71,0.80,0.57,0.16,0.48,
3.215,-0.66,0.22,0.87,0.57,0.16,0.48,
3.216,-0.66,0.22,0.87,0.59,0.11,0.49,
3.216,-0.66,0.22,0.87,0.61,0.07,0.50,
3.216,-0.66,0.22,0.87,0.63,0.04,0.50,
3.217,-0.82,-0.28,0.89,0.63,0.04,0.50,
3.217,-0.82,-0.28,0.89,0.64,0.01,0.49,
3.217,-0.90,-0.62,0.73,0.64,0.01,0.49,
3.218,-0.90,-0.62,0.73,0.65,-0.01,0.46,
3.218,-0.90,-0.62,0.73,0.65,-0.02,0.44,
3.218,-0.98,-0.78,0.47,0.65,-0.02,0.44,
3.218,-0.98,-0.78,0.47,0.64,-0.03,0.40,
3.219,-0.98,-0.78,0.47,0.63,-0.03,0.37,
3.219,-1.03,-0.73,0.19,0.63,-0.03,0.37,
3.219,-1.03,-0.73,0.19,0.60,-0.02,0.33,
3.219,-1.03,-0.73,0.19,0.57,-0.01,0.29,
3.22,-1.03,-0.73,0.19,0.53,0.01,0.24,
3.22,-1.02,-0.60,-0.05,0.53,0.01,0.24,
3.226,-1.02,-0.60,-0.05,0.49,0.02,0.20,
3.227,-1.02,-0.60,-0.05,0.44,0.04,0.15,
3.227,-0.88,-0.48,-0.21,0.44,0.04,0.15,
3.227,-0.88,-0.48,-0.21,0.38,0.05,0.11,
3.227,-0.88,-0.48,-0.21,0.33,0.07,0.07,
3.228,-0.68,-0.32,-0.20,0.33,0.07,0.07,
3.229,-0.68,-0.32,-0.20,0.28,0.08,0.04,
3.232,-0.68,-0.32,-0.20,0.24,0.09,0.01,
3.233,-0.33,-0.12,-0.05,0.24,0.09,0.01,
3.243,-0.03,0.03,0.10,0.24,0.09,0.01,
3.243,-0.03,0.03,0.10,0.20,0.11,-0.00,
3.244,-0.03,0.03,0.10,0.17,0.12,-0.01,
3.244,-0.03,0.03,0.10,0.14,0.12,-0.03,
3.244,0.14,0.15,0.25,0.14,0.12,-0.03,
3.244,0.14,0.15,0.25,0.12,0.13,-0.03,
3.247,0.14,0.15,0.25,0.10,0.14,-0.04,
3.247,0.14,0.15,0.25,0.09,0.14,-0.05,
3.248,0.20,0.23,0.37,0.09,0.14,-0.05,
3.249,0.20,0.23,0.37,0.08,0.13,-0.06,
3.252,0.27,0.31,0.42,0.08,0.13,-0.06,
3.255,0.27,0.31,0.42,0.07,0.13,-0.07,
3.256,0.27,0.31,0.42,0.07,0.12,-0.07,
3.258,0.38,0.30,0.47,0.07,0.12,-0.07,
3.258,0.38,0.30,0.47,0.07,0.12,-0.09,
3.26,0.38,0.30,0.47,0.07,0.10,-0.10,
3.263,0.31,0.24,0.47,0.07,0.10,-0.10,
3.263,0.31,0.24,0.47,0.07,0.10,-0.12,
3.264,0.31,0.24,0.47,0.07,0.10,-0.13,
3.268,0.22,0.22,0.47,0.07,0.10,-0.13,
3.269,0.22,0.22,0.47,0.07,0.11,-0.14,
3.27,0.22,0.22,0.47,0.07,0.11,-0.15,
3.272,0.24,0.23,0.52,0.07,0.11,-0.15,
3.272,0.24,0.23,0.52,0.08,0.12,-0.15,
3.276,0.24,0.23,0.52,0.08,0.14,-0.16,
3.277,0.33,0.16,0.46,0.08,0.14,-0.16,
3.277,0.33,0.16,0.46,0.09,0.16,-0.16,
3.279,0.33,0.16,0.46,0.10,0.18,-0.17,
3.282,0.33,0.16,0.46,0.10,0.20,-0.17,
3.282,0.14,0.08,0.35,0.10,0.20,-0.17,
3.284,0.14,0.08,0.35,0.11,0.22,-0.18,
3.287,0.14,0.08,0.35,0.10,0.24,-0.18,
3.287,0.09,0.14,0.22,0.10,0.24,-0.18,
3.289,0.09,0.14,0.22,0.10,0.26,-0.18,
3.292,0.09,0.14,0.22,0.09,0.27,-0.19,
3.292,-0.23,-0.11,0.23,0.09,0.27,-0.19,
3.297,-0.23,-0.11,0.23,0.09,0.28,-0.19,
3.298,-0.32,-0.29,0.42,0.09,0.28,-0.19,
3.298,-0.32,-0.29,0.42,0.08,0.28,-0.19,
3.3,-0.32,-0.29,0.42,0.07,0.28,-0.20,
3.304,-0.58,-0.38,0.52,0.07,0.28,-0.20,
3.304,-0.58,-0.38,0.52,0.06,0.27,-0.20,
3.304,-0.58,-0.38,0.52,0.05,0.27,-0.20,
3.311,-0.84,-0.26,0.58,0.05,0.27,-0.20,
3.311,-0.84,-0.26,0.58,0.04,0.27,-0.19,
3.311,-0.84,-0.26,0.58,0.03,0.27,-0.18,
3.312,-0.84,-0.26,0.58,0.01,0.26,-0.17,
3.312,-0.95,-0.10,0.74,0.01,0.26,-0.17,
3.314,-0.95,-0.10,0.74,-0.00,0.24,-0.15,
3.321,-0.94,0.21,0.92,-0.00,0.24,-0.15,
3.322,-0.94,0.21,0.92,-0.02,0.22,-0.13,
3.322,-0.94,0.21,0.92,-0.03,0.19,-0.11,
3.322,-0.94,0.21,0.92,-0.04,0.16,-0.09,
3.322,-0.88,0.22,1.09,-0.04,0.16,-0.09,
3.325,-0.88,0.22,1.09,-0.05,0.14,-0.07,
3.327,-0.88,0.22,1.09,-0.05,0.12,-0.04,
3.327,-0.65,0.26,1.18,-0.05,0.12,-0.04,
3.328,-0.65,0.26,1.18,-0.05,0.11,-0.02,
3.331,-0.65,0.26,1.18,-0.06,0.10,-0.01,
3.331,-0.49,0.05,1.06,-0.06,0.10,-0.01,
3.333,-0.49,0.05,1.06,-0.06,0.09,0.00,
3.336,-0.49,0.05,1.06,-0.06,0.09,0.01,
3.336,-0.37,0.00,1.06,-0.06,0.09,0.01,
3.34,-0.37,0.00,1.06,-0.06,0.09,0.02,
3.341,-0.37,0.00,1.06,-0.06,0.08,0.02,
3.341,-0.30,-0.00,0.92,-0.06,0.08,0.02,
3.343,-0.30,-0.00,0.92,-0.06,0.09,0.02,
3.346,-0.30,-0.00,0.92,-0.06,0.10,0.02,
3.346,-0.32,-0.13,0.69,-0.06,0.10,0.02,
3.348,-0.32,-0.13,0.69,-0.06,0.11,0.02,
3.351,-0.32,-0.13,0.69,-0.06,0.12,0.02,
3.351,-0.27,-0.26,0.45,-0.06,0.12,0.02,
3.364,-0.27,-0.26,0.45,-0.06,0.13,0.02,
3.365,-0.27,-0.26,0.45,-0.06,0.13,0.01,
3.365,-0.14,-0.19,0.29,-0.06,0.13,0.01,
3.365,-0.14,-0.19,0.29,-0.06,0.12,0.00,
3.365,-0.14,-0.19,0.29,-0.06,0.11,-0.01,
3.366,0.00,-0.18,0.15,-0.06,0.11,-0.01,
3.366,0.00,-0.18,0.15,-0.05,0.09,-0.03,
3.366,0.00,-0.18,0.15,-0.05,0.07,-0.04,
3.366,-0.01,-0.17,-0.04,-0.05,0.07,-0.04,
3.369,-0.01,-0.17,-0.04,-0.04,0.05,-0.07,
3.371,-0.01,-0.17,-0.04,-0.04,0.03,-0.09,
3.371,0.03,-0.23,-0.16,-0.04,0.03,-0.09,
3.373,0.03,-0.23,-0.16,-0.04,0.01,-0.12,
3.376,0.03,-0.23,-0.16,-0.04,-0.03,-0.15,
3.376,0.06,-0.37,-0.19,-0.04,-0.03,-0.15,
3.378,0.06,-0.37,-0.19,-0.04,-0.05,-0.18,
3.381,0.06,-0.37,-0.19,-0.04,-0.07,-0.21,
3.381,-0.00,-0.52,-0.20,-0.04,-0.07,-0.21,
3.383,-0.00,-0.52,-0.20,-0.05,-0.10,-0.25,
3.387,-0.00,-0.52,-0.20,-0.05,-0.12,-0.28,
3.387,-0.12,-0.63,-0.16,-0.05,-0.12,-0.28,
3.388,-0.12,-0.63,-0.16,-0.06,-0.14,-0.31,
3.39,-0.12,-0.63,-0.16,-0.07,-0.16,-0.34,
3.391,-0.32,-0.58,-0.03,-0.07,-0.16,-0.34,
3.393,-0.32,-0.58,-0.03,-0.08,-0.19,-0.36,
3.396,-0.32,-0.58,-0.03,-0.10,-0.22,-0.38,
3.396,-0.51,-0.33,0.18,-0.10,-0.22,-0.38,
3.398,-0.51,-0.33,0.18,-0.11,-0.27,-0.39,
3.401,-0.51,-0.33,0.18,-0.12,-0.31,-0.40,
3.401,-0.60,-0.00,0.38,-0.12,-0.31,-0.40,
3.412,-0.60,-0.00,0.38,-0.14,-0.36,-0.40,
3.413,-0.60,-0.00,0.38,-0.15,-0.41,-0.40,
3.414,-0.55,0.32,0.62,-0.15,-0.41,-0.40,
3.414,-0.55,0.32,0.62,-0.15,-0.48,-0.39,
3.414,-0.55,0.32,0.62,-0.16,-0.54,-0.38,
3.415,-0.40,0.78,0.75,-0.16,-0.54,-0.38,
3.415,-0.40,0.78,0.75,-0.16,-0.60,-0.37,
3.415,-0.40,0.78,0.75,-0.16,-0.65,-0.35,
3.416,-0.29,1.11,0.75,-0.16,-0.65,-0.35,
3.422,-0.29,1.11,0.75,-0.16,-0.71,-0.33,
3.423,-0.29,1.11,0.75,-0.17,-0.75,-0.30,
3.423,-0.17,1.43,0.65,-0.17,-0.75,-0.30,
3.433,-0.17,1.43,0.65,-0.17,-0.79,-0.27,
3.434,-0.17,1.43,0.65,-0.18,-0.82,-0.24,
3.434,0.22,1.87,0.56,-0.18,-0.82,-0.24,
3.434,0.22,1.87,0.56,-0.19,-0.85,-0.21,
3.435,0.22,1.87,0.56,-0.19,-0.86,-0.19,
3.435,0.51,1.95,0.40,-0.19,-0.86,-0.19,
3.435,0.51,1.95,0.40,-0.19,-0.86,-0.16,
3.441,0.51,1.95,0.40,-0.19,-0.84,-0.14,
3.442,0.57,1.93,0.30,-0.19,-0.84,-0.14,
3.442,0.57,1.93,0.30,-0.17,-0.81,-0.11,
3.442,0.57,1.93,0.30,-0.15,-0.77,-0.08,
3.442,0.57,1.85,0.19,-0.15,-0.77,-0.08,
3.442,0.57,1.85,0.19,-0.13,-0.71,-0.05,
3.447,0.72,1.48,0.16,-0.13,-0.71,-0.05,
3.448,0.72,1.48,0.16,-0.11,-0.67,-0.03,
3.448,0.72,1.48,0.16,-0.08,-0.63,-0.00,
3.45,0.72,1.48,0.16,-0.05,-0.62,0.02,
3.45,0.62,0.94,0.45,-0.05,-0.62,0.02,
3.452,0.62,0.94,0.45,-0.02,-0.62,0.04,
3.455,0.62,0.94,0.45,0.01,-0.63,0.05,
3.456,0.35,0.26,0.58,0.01,-0.63,0.05,
3.457,0.35,0.26,0.58,0.03,-0.63,0.06,
3.46,0.35,0.26,0.58,0.05,-0.64,0.08,
3.46,0.14,0.03,0.68,0.05,-0.64,0.08,
3.462,0.14,0.03,0.68,0.07,-0.65,0.09,
3.465,0.14,0.03,0.68,0.08,-0.66,0.11,
3.465,0.01,-0.15,0.72,0.08,-0.66,0.11,
3.467,0.01,-0.15,0.72,0.08,-0.67,0.12,
3.47,0.00,-0.18,0.66,0.08,-0.67,0.12,
3.471,0.00,-0.18,0.66,0.08,-0.68,0.12,
3.472,0.00,-0.18,0.66,0.07,-0.71,0.13,
3.475,0.00,-0.18,0.66,0.01,-0.79,0.12,
3.476,-0.27,0.41,0.66,0.01,-0.79,0.12,
3.477,-0.27,0.41,0.66,-0.13,-0.94,0.08,
3.48,-0.27,0.41,0.66,-0.31,-1.07,0.01,
3.48,-0.79,1.03,0.27,-0.31,-1.07,0.01,
3.482,-0.79,1.03,0.27,-0.49,-1.10,-0.07,
3.485,-0.79,1.03,0.27,-0.65,-1.09,-0.16,
3.486,-0.98,0.50,0.08,-0.65,-1.09,-0.16,
3.488,-0.98,0.50,0.08,-0.79,-1.05,-0.23,
3.49,-0.98,0.50,0.08,-0.91,-1.00,-0.31,
3.49,-0.66,-0.32,0.45,-0.91,-1.00,-0.31,
3.492,-0.66,-0.32,0.45,-1.00,-0.92,-0.38,
3.495,0.02,-1.00,0.71,-1.00,-0.92,-0.38,
3.495,0.02,-1.00,0.71,-1.06,-0.82,-0.44,
3.497,0.02,-1.00,0.71,-1.09,-0.70,-0.50,
3.5,0.02,-1.00,0.71,-1.10,-0.58,-0.56,
3.5,0.56,-1.44,0.84,-1.10,-0.58,-0.56,
3.503,0.56,-1.44,0.84,-1.10,-0.48,-0.61,
3.506,0.81,-1.78,0.88,-1.10,-0.48,-0.61,
3.506,0.81,-1.78,0.88,-1.09,-0.39,-0.66,
3.507,0.81,-1.78,0.88,-1.08,-0.33,-0.71,
3.509,0.81,-1.78,0.88,-1.05,-0.28,-0.74,
3.51,0.76,-1.99,0.88,-1.05,-0.28,-0.74,
3.513,0.76,-1.99,0.88,-1.03,-0.26,-0.77,
3.516,0.68,-2.01,0.87,-1.03,-0.26,-0.77,
3.516,0.68,-2.01,0.87,-1.00,-0.25,-0.78,
3.521,0.68,-2.01,0.87,-0.96,-0.24,-0.79,
3.548,0.57,-1.78,0.64,-0.96,-0.24,-0.79,
3.548,0.57,-1.78,0.64,-0.93,-0.24,-0.79,
3.548,0.57,-1.78,0.64,-0.90,-0.25,-0.79,
3.549,0.67,-1.21,0.44,-0.90,-0.25,-0.79,
3.549,0.67,-1.21,0.44,-0.87,-0.25,-0.78,
3.549,0.67,-1.21,0.44,-0.85,-0.26,-0.76,
3.549,0.58,-0.67,0.08,-0.85,-0.26,-0.76,
3.55,0.58,-0.67,0.08,-0.84,-0.26,-0.75,
3.55,0.58,-0.67,0.08,-0.83,-0.25,-0.73,
3.55,0.48,-0.32,-0.20,-0.83,-0.25,-0.73,
3.55,0.48,-0.32,-0.20,-0.82,-0.24,-0.71,
3.551,0.48,-0.32,-0.20,-0.82,-0.24,-0.68,
3.551,0.48,-0.32,-0.20,-0.81,-0.24,-0.66,
3.551,0.46,-0.11,-0.22,-0.81,-0.24,-0.66,
3.551,0.46,-0.11,-0.22,-0.81,-0.24,-0.64,
3.552,0.46,-0.11,-0.22,-0.81,-0.25,-0.61,
3.552,0.22,-0.16,-0.15,-0.81,-0.25,-0.61,
3.552,0.22,-0.16,-0.15,-0.82,-0.26,-0.59,
3.552,0.22,-0.16,-0.15,-0.82,-0.26,-0.57,
3.553,0.15,-0.26,-0.04,-0.82,-0.26,-0.57,
3.553,0.15,-0.26,-0.04,-0.82,-0.27,-0.54,
3.557,0.15,-0.26,-0.04,-0.82,-0.30,-0.51,
3.558,0.06,-0.18,0.29,-0.82,-0.30,-0.51,
3.558,0.06,-0.18,0.29,-0.82,-0.30,-0.48,
3.56,0.06,-0.18,0.29,-0.80,-0.29,-0.45,
3.561,0.17,-0.19,0.42,-0.80,-0.29,-0.45,
3.563,0.17,-0.19,0.42,-0.78,-0.26,-0.42,
3.566,0.27,-0.13,0.44,-0.78,-0.26,-0.42,
3.566,0.27,-0.13,0.44,-0.74,-0.22,-0.38,
3.566,0.27,-0.13,0.44,-0.69,-0.17,-0.34,
3.572,0.27,-0.13,0.44,-0.63,-0.14,-0.30,
3.573,0.50,0.13,0.54,-0.63,-0.14,-0.30,
3.573,0.50,0.13,0.54,-0.56,-0.11,-0.27,
3.575,0.50,0.13,0.54,-0.50,-0.09,-0.24,
3.576,0.86,-0.01,0.45,-0.50,-0.09,-0.24,
3.576,0.86,-0.01,0.45,-0.44,-0.08,-0.21,
3.579,0.86,-0.01,0.45,-0.40,-0.08,-0.19,
3.579,0.57,0.12,0.33,-0.40,-0.08,-0.19,
3.581,0.57,0.12,0.33,-0.37,-0.10,-0.16,
3.584,0.57,0.12,0.33,-0.37,-0.12,-0.14,
3.584,0.34,0.44,0.17,-0.37,-0.12,-0.14,
3.587,0.34,0.44,0.17,-0.39,-0.14,-0.11,
3.589,0.34,0.44,0.17,-0.44,-0.18,-0.07,
3.589,0.05,0.37,-0.13,-0.44,-0.18,-0.07,
3.591,0.05,0.37,-0.13,-0.50,-0.21,-0.03,
3.593,0.05,0.37,-0.13,-0.57,-0.24,0.02,
3.594,0.19,0.22,-0.28,-0.57,-0.24,0.02,
3.596,0.19,0.22,-0.28,-0.63,-0.28,0.07,
3.599,0.74,0.84,-0.06,-0.63,-0.28,0.07,
3.6,0.74,0.84,-0.06,-0.69,-0.32,0.12,
3.602,0.74,0.84,-0.06,-0.74,-0.35,0.15,
3.608,1.01,1.21,-0.04,-0.74,-0.35,0.15,
3.608,1.01,1.21,-0.04,-0.77,-0.38,0.19,
3.608,1.01,1.21,-0.04,-0.80,-0.38,0.23,
3.609,1.01,1.21,-0.04,-0.83,-0.38,0.27,
3.609,1.00,1.27,-0.08,-0.83,-0.38,0.27,
3.611,1.00,1.27,-0.08,-0.86,-0.38,0.31,
3.614,1.00,1.27,-0.08,-0.88,-0.37,0.34,
3.615,1.00,1.23,-0.09,-0.88,-0.37,0.34,
3.617,1.00,1.23,-0.09,-0.90,-0.37,0.36,
3.619,1.16,1.14,-0.09,-0.90,-0.37,0.36,
3.62,1.16,1.14,-0.09,-0.92,-0.37,0.38,
3.628,1.16,1.14,-0.09,-0.93,-0.38,0.40,
3.629,1.16,1.14,-0.09,-0.93,-0.38,0.41,
3.629,1.36,0.91,-0.14,-0.93,-0.38,0.41,
3.629,1.36,0.91,-0.14,-0.93,-0.36,0.41,
3.629,1.37,0.71,-0.30,-0.93,-0.36,0.41,
3.629,1.37,0.71,-0.30,-0.93,-0.34,0.42,
3.631,1.37,0.71,-0.30,-0.93,-0.31,0.43,
3.634,1.16,0.43,-0.45,-0.93,-0.31,0.43,
3.634,1.16,0.43,-0.45,-0.92,-0.27,0.43,
3.637,1.16,0.43,-0.45,-0.91,-0.24,0.42,
3.639,0.92,0.39,-0.53,-0.91,-0.24,0.42,
3.639,0.92,0.39,-0.53,-0.90,-0.20,0.42,
3.641,0.92,0.39,-0.53,-0.88,-0.16,0.41,
3.644,0.92,0.39,-0.53,-0.86,-0.14,0.40,
3.644,0.69,0.45,-0.47,-0.86,-0.14,0.40,
3.646,0.69,0.45,-0.47,-0.84,-0.12,0.38,
3.648,0.47,0.36,-0.38,-0.84,-0.12,0.38,
3.649,0.47,0.36,-0.38,-0.81,-0.11,0.37,
3.651,0.47,0.36,-0.38,-0.77,-0.10,0.35,
3.653,0.27,0.26,-0.20,-0.77,-0.10,0.35,
3.654,0.27,0.26,-0.20,-0.73,-0.10,0.32,
3.656,0.27,0.26,-0.20,-0.68,-0.11,0.29,
3.658,0.27,0.26,-0.20,-0.63,-0.11,0.26,
3.659,0.05,0.17,-0.03,-0.63,-0.11,0.26,
3.66,0.05,0.17,-0.03,-0.57,-0.13,0.23,
3.663,0.05,0.17,-0.03,-0.51,-0.15,0.20,
3.663,-0.15,0.11,0.21,-0.51,-0.15,0.20,
3.665,-0.15,0.11,0.21,-0.45,-0.17,0.18,
3.668,-0.15,0.11,0.21,-0.38,-0.21,0.15,
3.668,-0.23,0.16,0.44,-0.38,-0.21,0.15,
3.671,-0.23,0.16,0.44,-0.31,-0.24,0.13,
3.677,-0.23,0.16,0.44,-0.25,-0.28,0.10,
3.677,-0.23,0.16,0.44,-0.19,-0.31,0.08,
3.678,-0.15,0.16,0.55,-0.19,-0.31,0.08,
3.679,-0.15,0.16,0.55,-0.14,-0.35,0.06,
3.68,-0.11,0.16,0.62,-0.14,-0.35,0.06,
3.681,-0.11,0.16,0.62,-0.11,-0.39,0.05,
3.684,0.13,0.08,0.61,-0.11,-0.39,0.05,
3.703,0.13,0.08,0.61,-0.08,-0.42,0.04,
3.703,0.13,0.08,0.61,-0.07,-0.44,0.03,
3.703,0.13,0.08,0.61,-0.07,-0.46,0.04,
3.703,0.31,0.04,0.51,-0.07,-0.46,0.04,
3.704,0.31,0.04,0.51,-0.09,-0.46,0.04,
3.704,0.31,0.04,0.51,-0.11,-0.47,0.04,
3.704,0.51,-0.09,0.38,-0.11,-0.47,0.04,
3.704,0.51,-0.09,0.38,-0.14,-0.47,0.05,
3.704,0.69,-0.26,0.25,-0.14,-0.47,0.05,
3.705,0.69,-0.26,0.25,-0.17,-0.47,0.05,
3.705,0.69,-0.26,0.25,-0.21,-0.46,0.06,
3.707,0.74,-0.42,0.08,-0.21,-0.46,0.06,
3.707,0.74,-0.42,0.08,-0.24,-0.46,0.06,
3.708,0.74,-0.42,0.08,-0.27,-0.46,0.07,
3.709,0.74,-0.42,0.08,-0.30,-0.45,0.07,
3.709,0.76,-0.34,-0.09,-0.30,-0.45,0.07,
3.711,0.76,-0.34,-0.09,-0.34,-0.45,0.09,
3.713,0.76,-0.34,-0.09,-0.37,-0.46,0.13,
3.713,0.69,0.39,-0.30,-0.37,-0.46,0.13,
3.715,0.69,0.39,-0.30,-0.38,-0.43,0.16,
3.718,0.69,0.39,-0.30,-0.38,-0.40,0.18,
3.718,0.85,0.66,-0.51,-0.38,-0.40,0.18,
3.723,0.85,0.66,-0.51,-0.36,-0.36,0.20,
3.727,0.85,0.66,-0.51,-0.34,-0.34,0.23,
3.727,0.92,0.52,-0.43,-0.34,-0.34,0.23,
3.727,0.92,0.52,-0.43,-0.32,-0.34,0.24,
3.729,0.92,0.52,-0.43,-0.30,-0.34,0.25,
3.729,1.04,0.14,-0.45,-0.30,-0.34,0.25,
3.73,1.04,0.14,-0.45,-0.29,-0.34,0.28,
3.733,1.04,0.14,-0.45,-0.27,-0.34,0.30,
3.733,1.07,0.01,-0.43,-0.27,-0.34,0.30,
3.736,1.07,0.01,-0.43,-0.26,-0.34,0.33,
3.739,1.07,0.01,-0.43,-0.26,-0.34,0.36,
3.739,1.10,-0.03,-0.42,-0.26,-0.34,0.36,
3.74,1.10,-0.03,-0.42,-0.26,-0.34,0.39,
3.743,1.10,-0.03,-0.42,-0.26,-0.33,0.41,
3.743,1.06,-0.06,-0.32,-0.26,-0.33,0.41,
3.745,1.06,-0.06,-0.32,-0.27,-0.33,0.43,
3.747,1.06,-0.06,-0.32,-0.27,-0.31,0.45,
3.748,1.11,-0.11,-0.25,-0.27,-0.31,0.45,
3.75,1.11,-0.11,-0.25,-0.27,-0.30,0.48,
3.755,1.11,-0.11,-0.25,-0.27,-0.29,0.51,
3.755,1.11,-0.11,-0.25,-0.27,-0.27,0.54,
3.755,1.15,-0.14,-0.19,-0.27,-0.27,0.54,
3.758,1.15,-0.14,-0.19,-0.26,-0.26,0.58,
3.758,1.11,0.10,-0.12,-0.26,-0.26,0.58,
3.767,1.11,0.10,-0.12,-0.25,-0.25,0.62,
3.767,1.11,0.10,-0.12,-0.24,-0.24,0.66,
3.768,1.07,0.38,-0.10,-0.24,-0.24,0.66,
3.768,1.07,0.38,-0.10,-0.21,-0.23,0.71,
3.768,1.07,0.38,-0.10,-0.19,-0.23,0.75,
3.768,1.09,0.59,-0.15,-0.19,-0.23,0.75,
3.774,1.09,0.59,-0.15,-0.17,-0.23,0.79,
3.774,1.09,0.59,-0.15,-0.15,-0.24,0.83,
3.774,1.11,0.52,-0.27,-0.15,-0.24,0.83,
3.775,1.11,0.52,-0.27,-0.14,-0.25,0.86,
3.777,1.11,0.52,-0.27,-0.15,-0.28,0.90,
3.778,0.96,0.54,-0.34,-0.15,-0.28,0.90,
3.779,0.96,0.54,-0.34,-0.17,-0.31,0.93,
3.782,0.96,0.54,-0.34,-0.21,-0.33,0.96,
3.782,0.68,0.45,-0.48,-0.21,-0.33,0.96,
3.784,0.68,0.45,-0.48,-0.25,-0.36,0.98,
3.788,0.68,0.45,-0.48,-0.31,-0.38,1.00,
3.788,0.40,0.37,-0.51,-0.31,-0.38,1.00,
3.789,0.40,0.37,-0.51,-0.36,-0.39,1.03,
3.792,0.40,0.37,-0.51,-0.42,-0.40,1.06,
3.792,0.07,0.15,-0.53,-0.42,-0.40,1.06,
3.794,0.07,0.15,-0.53,-0.48,-0.41,1.09,
3.797,0.07,0.15,-0.53,-0.54,-0.43,1.13,
3.797,-0.13,0.02,-0.38,-0.54,-0.43,1.13,
3.799,-0.13,0.02,-0.38,-0.59,-0.44,1.18,
3.802,-0.13,0.02,-0.38,-0.64,-0.44,1.23,
3.806,-0.29,-0.21,-0.33,-0.64,-0.44,1.23,
3.806,-0.29,-0.21,-0.33,-0.68,-0.45,1.27,
3.807,-0.29,-0.21,-0.33,-0.71,-0.44,1.32,
3.807,-0.43,-0.19,-0.25,-0.71,-0.44,1.32,
3.813,-0.43,-0.19,-0.25,-0.73,-0.44,1.39,
3.818,-0.43,-0.19,-0.25,-0.73,-0.44,1.46,
3.818,-0.43,-0.19,-0.25,-0.71,-0.44,1.54,
3.818,-0.41,-0.04,-0.26,-0.71,-0.44,1.54,
3.819,-0.41,-0.04,-0.26,-0.68,-0.44,1.63,
3.819,-0.14,0.26,-0.19,-0.68,-0.44,1.63,
3.823,-0.14,0.26,-0.19,-0.62,-0.44,1.72,
3.823,-0.14,0.26,-0.19,-0.56,-0.47,1.81,
3.824,0.26,0.77,-0.08,-0.56,-0.47,1.81,
3.824,0.26,0.77,-0.08,-0.47,-0.51,1.89,
3.827,0.26,0.77,-0.08,-0.38,-0.54,1.97,
3.827,0.57,1.02,-0.05,-0.38,-0.54,1.97,
3.829,0.57,1.02,-0.05,-0.29,-0.58,2.03,
3.831,0.57,1.02,-0.05,-0.20,-0.62,2.09,
3.832,0.79,1.04,-0.05,-0.20,-0.62,2.09,
3.834,0.79,1.04,-0.05,-0.12,-0.66,2.15,
3.838,0.79,1.04,-0.05,-0.04,-0.69,2.20,
3.839,0.89,0.89,0.03,-0.04,-0.69,2.20,
3.84,0.89,0.89,0.03,0.03,-0.73,2.25,
3.842,0.89,0.89,0.03,0.10,-0.75,2.30,
3.842,0.97,0.73,-0.02,0.10,-0.75,2.30,
3.844,0.97,0.73,-0.02,0.14,-0.79,2.34,
3.848,0.97,0.73,-0.02,0.19,-0.82,2.38,
3.848,0.89,0.73,-0.01,0.19,-0.82,2.38,
3.862,0.89,0.73,-0.01,0.21,-0.85,2.42,
3.862,0.89,0.73,-0.01,0.24,-0.88,2.46,
3.862,0.63,0.77,0.02,0.24,-0.88,2.46,
3.862,0.63,0.77,0.02,0.26,-0.90,2.49,
3.862,0.63,0.77,0.02,0.27,-0.92,2.53,
3.863,0.51,0.66,-0.02,0.27,-0.92,2.53,
3.863,0.51,0.66,-0.02,0.27,-0.95,2.56,
3.863,0.51,0.66,-0.02,0.27,-0.96,2.59,
3.863,0.47,0.47,-0.01,0.27,-0.96,2.59,
3.864,0.47,0.47,-0.01,0.25,-0.99,2.62,
3.867,0.47,0.47,-0.01,0.23,-1.01,2.65,
3.867,0.39,0.28,-0.12,0.23,-1.01,2.65,
3.87,0.39,0.28,-0.12,0.20,-1.02,2.66,
3.875,0.16,0.09,-0.23,0.20,-1.02,2.66,
3.875,0.16,0.09,-0.23,0.15,-1.02,2.68,
3.876,0.16,0.09,-0.23,0.11,-1.01,2.70,
3.877,0.16,0.09,-0.23,0.06,-1.01,2.72,
3.877,0.05,-0.07,-0.16,0.06,-1.01,2.72,
3.879,0.05,-0.07,-0.16,0.00,-1.00,2.74,
3.882,0.05,-0.07,-0.16,-0.04,-0.98,2.75,
3.882,0.06,0.01,-0.15,-0.04,-0.98,2.75,
3.884,0.06,0.01,-0.15,-0.09,-0.97,2.76,
3.889,0.06,0.01,-0.15,-0.14,-0.95,2.77,
3.889,0.06,0.01,-0.15,-0.19,-0.94,2.77,
3.891,0.04,-0.01,-0.10,-0.19,-0.94,2.77,
3.892,-0.01,-0.19,-0.15,-0.19,-0.94,2.77,
3.892,-0.01,-0.19,-0.15,-0.25,-0.91,2.76,
3.894,-0.01,-0.19,-0.15,-0.30,-0.87,2.74,
3.897,-0.01,-0.19,-0.15,-0.35,-0.81,2.72,
3.898,-0.32,-0.33,-0.38,-0.35,-0.81,2.72,
3.899,-0.32,-0.33,-0.38,-0.38,-0.70,2.68,
3.901,-0.32,-0.33,-0.38,-0.39,-0.54,2.61,
3.902,-1.17,-0.33,-0.92,-0.39,-0.54,2.61,
3.907,-1.17,-0.33,-0.92,-0.37,-0.35,2.53,
3.907,-1.17,-0.33,-0.92,-0.32,-0.19,2.44,
3.913,-1.26,-0.22,-0.87,-0.32,-0.19,2.44,
3.915,-1.26,-0.22,-0.87,-0.25,-0.05,2.33,
3.916,-1.00,-0.36,-0.60,-0.25,-0.05,2.33,
3.916,-1.00,-0.36,-0.60,-0.14,0.05,2.20,
3.916,-1.00,-0.36,-0.60,-0.01,0.11,2.06,
3.916,-1.00,-0.36,-0.60,0.13,0.11,1.91,
3.916,-0.70,-0.72,-0.14,0.13,0.11,1.91,
3.919,-0.70,-0.72,-0.14,0.28,0.05,1.77,
3.928,-0.70,-0.72,-0.14,0.43,-0.06,1.64,
3.928,-0.06,-0.85,0.45,0.43,-0.06,1.64,
3.929,-0.06,-0.85,0.45,0.56,-0.20,1.52,
3.929,-0.06,-0.85,0.45,0.66,-0.37,1.43,
3.929,0.42,-1.19,0.52,0.66,-0.37,1.43,
3.929,0.42,-1.19,0.52,0.72,-0.55,1.37,
3.932,0.42,-1.19,0.52,0.73,-0.71,1.34,
3.932,0.68,-0.99,0.17,0.73,-0.71,1.34,
3.933,0.68,-0.99,0.17,0.69,-0.83,1.37,
3.938,0.51,-0.45,-0.25,0.69,-0.83,1.37,
3.938,0.51,-0.45,-0.25,0.65,-0.90,1.44,
3.939,0.51,-0.45,-0.25,0.61,-0.91,1.53,
3.941,0.60,-0.34,-0.51,0.61,-0.91,1.53,
3.941,0.60,-0.34,-0.51,0.57,-0.89,1.65,
3.943,0.60,-0.34,-0.51,0.53,-0.85,1.79,
3.946,0.60,-0.34,-0.51,0.48,-0.80,1.94,
3.946,0.58,-0.62,-0.49,0.48,-0.80,1.94,
3.948,0.58,-0.62,-0.49,0.45,-0.72,2.10,
3.951,0.58,-0.62,-0.49,0.42,-0.62,2.22,
3.951,1.00,-0.82,-0.60,0.42,-0.62,2.22,
3.953,1.00,-0.82,-0.60,0.44,-0.50,2.25,
3.956,1.00,-0.82,-0.60,0.49,-0.39,2.20,
3.956,1.64,-0.54,-0.34,0.49,-0.39,2.20,
3.958,1.64,-0.54,-0.34,0.54,-0.31,2.10,
3.961,1.64,-0.54,-0.34,0.57,-0.26,1.98,
3.961,2.08,-0.99,-0.31,0.57,-0.26,1.98,
3.963,2.08,-0.99,-0.31,0.59,-0.22,1.88,
3.966,2.08,-0.99,-0.31,0.59,-0.19,1.80,
3.967,1.88,-1.23,-0.43,0.59,-0.19,1.80,
3.968,1.88,-1.23,-0.43,0.59,-0.15,1.74,
3.971,1.64,-1.27,-0.32,0.59,-0.15,1.74,
3.971,1.64,-1.27,-0.32,0.60,-0.12,1.68,
3.973,1.64,-1.27,-0.32,0.60,-0.10,1.63,
3.976,1.64,-1.27,-0.32,0.61,-0.09,1.58,
3.976,1.02,-1.14,-0.11,0.61,-0.09,1.58,
3.978,1.02,-1.14,-0.11,0.63,-0.11,1.53,
3.981,1.02,-1.14,-0.11,0.65,-0.12,1.49,
3.981,0.54,-1.43,0.01,0.65,-0.12,1.49,
3.983,0.54,-1.43,0.01,0.67,-0.15,1.46,
3.985,0.54,-1.43,0.01,0.69,-0.17,1.45,
3.986,0.16,-1.63,0.07,0.69,-0.17,1.45,
3.988,0.16,-1.63,0.07,0.73,-0.20,1.45,
3.991,0.16,-1.63,0.07,0.76,-0.23,1.46,
3.991,-0.17,-1.53,0.00,0.76,-0.23,1.46,
3.993,-0.17,-1.53,0.00,0.79,-0.26,1.48,
3.995,-0.17,-1.53,0.00,0.82,-0.29,1.50,
3.996,-0.27,-1.50,-0.11,0.82,-0.29,1.50,
3.998,-0.27,-1.50,-0.11,0.83,-0.34,1.53,
4.001,-0.27,-1.50,-0.11,0.84,-0.40,1.56,
4.001,-0.15,-1.21,-0.18,0.84,-0.40,1.56,
4.009,-0.15,-1.21,-0.18,0.86,-0.47,1.58,
4.01,-0.15,-1.21,-0.18,0.86,-0.54,1.61,
4.01,-0.36,-0.92,-0.21,0.86,-0.54,1.61,
4.011,-0.36,-0.92,-0.21,0.86,-0.61,1.66,
4.011,-0.35,-0.78,-0.35,0.86,-0.61,1.66,
4.011,-0.35,-0.78,-0.35,0.86,-0.66,1.72,
4.015,-0.35,-0.78,-0.35,0.85,-0.71,1.78,
4.043,-0.12,-0.76,-0.43,0.85,-0.71,1.78,
4.044,-0.12,-0.76,-0.43,0.84,-0.75,1.83,
4.044,-0.12,-0.76,-0.43,0.84,-0.77,1.87,
4.044,-0.12,-0.76,-0.43,0.82,-0.78,1.91,
4.045,0.00,-0.65,-0.42,0.82,-0.78,1.91,
4.045,0.00,-0.65,-0.42,0.81,-0.78,1.95,
4.045,0.00,-0.65,-0.42,0.79,-0.76,1.98,
4.045,0.32,-0.85,-0.50,0.79,-0.76,1.98,
4.046,0.32,-0.85,-0.50,0.76,-0.74,2.00,
4.046,0.32,-0.85,-0.50,0.74,-0.72,2.02,
4.046,0.60,-1.27,-0.27,0.74,-0.72,2.02,
4.046,0.60,-1.27,-0.27,0.72,-0.68,2.03,
4.047,0.89,-1.78,-0.10,0.72,-0.68,2.03,
4.047,0.89,-1.78,-0.10,0.70,-0.64,2.04,
4.047,0.89,-1.78,-0.10,0.70,-0.59,2.05,
4.047,0.89,-1.78,-0.10,0.72,-0.55,2.07,
4.048,0.81,-1.57,0.07,0.72,-0.55,2.07,
4.048,0.81,-1.57,0.07,0.75,-0.48,2.11,
4.048,0.81,-1.57,0.07,0.80,-0.40,2.17,
4.048,0.46,-1.30,0.07,0.80,-0.40,2.17,
4.049,0.46,-1.30,0.07,0.85,-0.29,2.21,
4.053,0.46,-1.30,0.07,0.85,-0.25,2.19,
4.054,0.71,-2.31,-0.12,0.85,-0.25,2.19,
4.054,0.71,-2.31,-0.12,0.81,-0.27,2.11,
4.056,0.70,-3.57,-0.30,0.81,-0.27,2.11,
4.056,0.70,-3.57,-0.30,0.76,-0.29,2.00,
4.057,0.70,-3.57,-0.30,0.70,-0.33,1.93,
4.06,0.70,-3.57,-0.30,0.65,-0.37,1.87,
4.06,0.74,-4.11,-0.38,0.65,-0.37,1.87,
4.062,0.74,-4.11,-0.38,0.63,-0.38,1.81,
4.065,1.03,-4.14,0.07,0.63,-0.38,1.81,
4.065,1.03,-4.14,0.07,0.65,-0.36,1.75,
4.067,1.03,-4.14,0.07,0.69,-0.31,1.68,
4.072,1.31,-4.26,0.07,0.69,-0.31,1.68,
4.072,1.31,-4.26,0.07,0.71,-0.25,1.61,
4.072,1.31,-4.26,0.07,0.71,-0.20,1.53,
4.075,1.31,-4.26,0.07,0.70,-0.16,1.44,
4.075,1.52,-4.11,-0.14,0.70,-0.16,1.44,
4.077,1.52,-4.11,-0.14,0.69,-0.11,1.34,
4.08,1.52,-4.11,-0.14,0.66,-0.06,1.24,
4.08,1.60,-3.81,-0.54,0.66,-0.06,1.24,
4.082,1.60,-3.81,-0.54,0.63,-0.01,1.14,
4.085,1.60,-3.81,-0.54,0.59,0.01,1.06,
4.085,1.45,-3.22,-0.89,0.59,0.01,1.06,
4.088,1.45,-3.22,-0.89,0.56,0.04,1.00,
4.091,1.44,-2.95,-1.18,0.56,0.04,1.00,
4.092,1.44,-2.95,-1.18,0.53,0.05,0.93,
4.092,1.44,-2.95,-1.18,0.48,0.05,0.88,
4.095,1.44,-2.95,-1.18,0.44,0.08,0.82,
4.096,1.35,-2.44,-1.46,0.44,0.08,0.82,
4.098,1.35,-2.44,-1.46,0.41,0.14,0.78,
4.1,1.35,-2.44,-1.46,0.37,0.19,0.77,
4.101,1.46,-2.44,-1.59,0.37,0.19,0.77,
4.102,1.46,-2.44,-1.59,0.30,0.18,0.73,
4.105,1.19,-1.90,-2.20,0.30,0.18,0.73,
4.106,1.19,-1.90,-2.20,0.25,0.25,0.69,
4.107,1.19,-1.90,-2.20,0.22,0.32,0.68,
4.109,1.19,-1.90,-2.20,0.21,0.31,0.70,
4.109,0.72,-1.94,-1.27,0.21,0.31,0.70,
4.112,0.72,-1.94,-1.27,0.21,0.31,0.72,
4.115,0.62,-2.05,-1.12,0.21,0.31,0.72,
4.115,0.62,-2.05,-1.12,0.17,0.23,0.70,
4.117,0.62,-2.05,-1.12,0.14,0.12,0.66,
4.119,-0.74,-1.47,-0.13,0.14,0.12,0.66,
4.12,-0.74,-1.47,-0.13,0.13,0.03,0.63,
4.126,-0.74,-1.47,-0.13,0.11,-0.05,0.64,
4.127,-2.18,-1.75,-0.23,0.11,-0.05,0.64,
4.127,-2.18,-1.75,-0.23,0.10,-0.10,0.68,
4.128,-2.18,-1.75,-0.23,0.13,-0.12,0.76,
4.13,-2.18,-1.75,-0.23,0.17,-0.18,0.84,
4.13,-2.85,-1.84,0.25,0.17,-0.18,0.84,
4.132,-2.85,-1.84,0.25,0.22,-0.18,0.91,
4.135,-2.85,-1.84,0.25,0.28,-0.15,0.99,
4.135,-2.59,-2.15,0.14,0.28,-0.15,0.99,
4.152,-2.59,-2.15,0.14,0.33,-0.13,1.04,
4.154,-1.76,-2.20,0.35,0.33,-0.13,1.04,
4.155,-1.76,-2.20,0.35,0.37,-0.12,1.08,
4.155,-1.76,-2.20,0.35,0.39,-0.07,1.10,
4.156,-1.33,-1.81,0.71,0.39,-0.07,1.10,
4.156,-1.33,-1.81,0.71,0.41,0.00,1.11,
4.156,-1.33,-1.81,0.71,0.43,0.09,1.13,
4.157,-1.47,-1.04,0.05,0.43,0.09,1.13,
4.158,-1.47,-1.04,0.05,0.43,0.20,1.17,
4.158,-1.47,-1.04,0.05,0.43,0.31,1.21,
4.158,-1.75,-0.38,-0.24,0.43,0.31,1.21,
4.159,-1.75,-0.38,-0.24,0.41,0.39,1.25,
4.159,-1.75,-0.38,-0.24,0.37,0.48,1.30,
4.159,-1.75,-0.38,-0.24,0.31,0.56,1.34,
4.16,-1.48,0.44,-1.32,0.31,0.56,1.34,
4.162,-1.48,0.44,-1.32,0.23,0.62,1.39,
4.164,-1.48,0.44,-1.32,0.19,0.66,1.42,
4.164,-1.13,1.02,-0.17,0.19,0.66,1.42,
4.167,-1.13,1.02,-0.17,0.13,0.71,1.46,
4.17,-1.13,1.02,-0.17,0.04,0.75,1.49,
4.17,-0.89,0.51,-1.38,0.04,0.75,1.49,
4.172,-0.89,0.51,-1.38,-0.05,0.74,1.51,
4.175,-0.89,0.51,-1.38,-0.13,0.67,1.53,
4.175,-0.43,0.33,-0.50,-0.13,0.67,1.53,
4.177,-0.43,0.33,-0.50,-0.23,0.61,1.52,
4.18,-0.43,0.33,-0.50,-0.32,0.53,1.50,
4.199,0.03,-0.05,-0.60,-0.32,0.53,1.50,
4.199,0.03,-0.05,-0.60,-0.40,0.42,1.46,
4.199,0.03,-0.05,-0.60,-0.48,0.32,1.42,
4.199,0.60,0.03,0.01,-0.48,0.32,1.42,
4.2,0.60,0.03,0.01,-0.54,0.25,1.37,
4.2,0.77,0.54,-0.48,-0.54,0.25,1.37,
4.2,0.77,0.54,-0.48,-0.61,0.25,1.31,
4.2,0.77,0.54,-0.48,-0.68,0.28,1.28,
4.201,0.77,0.54,-0.48,-0.71,0.28,1.25,
4.201,0.50,1.16,0.54,-0.71,0.28,1.25,
4.201,0.50,1.16,0.54,-0.71,0.26,1.24,
4.201,0.50,1.16,0.54,-0.73,0.34,1.21,
4.202,0.88,0.77,0.55,-0.73,0.34,1.21,
4.202,0.88,0.77,0.55,-0.78,0.43,1.17,
4.212,0.85,0.95,0.34,-0.78,0.43,1.17,
4.213,0.85,0.95,0.34,-0.81,0.44,1.13,
4.213,0.85,0.95,0.34,-0.83,0.40,1.10,
4.214,0.85,0.95,0.34,-0.84,0.34,1.08,
4.214,0.39,0.88,0.40,-0.84,0.34,1.08,
4.214,0.39,0.88,0.40,-0.87,0.27,1.07,
4.215,0.18,0.80,-0.18,-0.87,0.27,1.07,
4.215,0.18,0.80,-0.18,-0.88,0.19,1.07,
4.216,0.18,0.80,-0.18,-0.90,0.12,1.08,
4.22,0.18,0.80,-0.18,-0.92,0.04,1.09,
4.22,-0.25,0.67,-0.76,-0.92,0.04,1.09,
4.227,-0.25,0.67,-0.76,-0.92,-0.04,1.10,
4.231,-0.25,0.67,-0.76,-0.94,-0.10,1.10,
4.231,-0.07,0.47,-0.56,-0.94,-0.10,1.10,
4.232,-0.07,0.47,-0.56,-0.96,-0.16,1.11,
4.232,-0.07,0.47,-0.56,-0.97,-0.22,1.14,
4.232,-0.86,0.19,-0.79,-0.97,-0.22,1.14,
4.233,-0.86,0.19,-0.79,-0.97,-0.28,1.16,
4.234,-0.86,0.19,-0.79,-0.96,-0.32,1.20,
4.235,-1.44,-0.37,-0.28,-0.96,-0.32,1.20,
4.238,-1.44,-0.37,-0.28,-0.92,-0.36,1.22,
4.269,-1.44,-0.37,-0.28,-0.87,-0.43,1.26,
4.27,-1.53,-2.00,0.28,-0.87,-0.43,1.26,
4.271,-1.53,-2.00,0.28,-0.81,-0.56,1.30,
4.271,-2.82,-3.45,0.03,-0.81,-0.56,1.30,
4.272,-2.82,-3.45,0.03,-0.74,-0.75,1.36,
4.272,-2.82,-3.45,0.03,-0.62,-0.99,1.41,
4.273,-2.82,-3.45,0.03,-0.49,-1.25,1.42,
4.273,-1.97,-5.20,0.19,-0.49,-1.25,1.42,
4.274,-1.97,-5.20,0.19,-0.40,-1.51,1.41,
4.274,-1.97,-5.20,0.19,-0.34,-1.62,1.39,
4.275,-0.71,-4.33,-2.61,-0.34,-1.62,1.39,
4.277,-0.71,-4.33,-2.61,-0.31,-1.60,1.32,
4.277,-0.71,-4.33,-2.61,-0.30,-1.39,1.28,
4.278,-0.97,-3.18,-1.96,-0.30,-1.39,1.28,
4.278,-0.97,-3.18,-1.96,-0.17,-1.27,1.31,
4.279,-0.97,-3.18,-1.96,-0.07,-1.26,1.31,
4.279,-0.51,-4.60,-1.01,-0.07,-1.26,1.31,
4.279,-0.51,-4.60,-1.01,-0.10,-1.16,1.29,
4.28,-0.51,-4.60,-1.01,-0.14,-1.10,1.25,
4.28,0.41,-3.92,-5.23,-0.14,-1.10,1.25,
4.28,0.41,-3.92,-5.23,-0.12,-1.20,1.18,
4.281,0.41,-3.92,-5.23,-0.05,-1.42,1.13,
4.281,0.49,-2.75,-0.30,-0.05,-1.42,1.13,
4.281,0.49,-2.75,-0.30,-0.05,-1.45,1.13,
4.282,0.03,-1.83,-3.23,-0.05,-1.45,1.13,
4.282,0.03,-1.83,-3.23,-0.07,-1.36,1.13,
4.282,0.03,-1.83,-3.23,-0.05,-1.30,1.14,
4.283,0.35,-1.64,0.18,-0.05,-1.30,1.14,
4.283,0.35,-1.64,0.18,0.00,-1.28,1.16,
4.285,0.35,-1.64,0.18,0.06,-1.27,1.17,
4.288,0.35,-1.64,0.18,0.10,-1.17,1.19,
4.289,0.68,-1.51,-1.20,0.10,-1.17,1.19,
4.29,0.68,-1.51,-1.20,0.14,-1.03,1.19,
4.293,1.02,-0.56,1.63,0.14,-1.03,1.19,
4.293,1.02,-0.56,1.63,0.26,-0.91,1.20,
4.295,1.02,-0.56,1.63,0.38,-0.90,1.27,
4.297,1.02,-0.56,1.63,0.45,-0.99,1.38,
4.298,-0.75,1.42,0.39,0.45,-0.99,1.38,
4.3,-0.75,1.42,0.39,0.51,-1.11,1.54,
4.302,-0.75,1.42,0.39,0.60,-1.19,1.68,
4.303,-0.97,-0.25,0.67,0.60,-1.19,1.68,
4.306,-0.97,-0.25,0.67,0.67,-1.06,1.73,
4.309,3.66,-3.18,-1.49,0.67,-1.06,1.73,
4.309,3.66,-3.18,-1.49,0.69,-0.81,1.70,
4.311,3.66,-3.18,-1.49,0.70,-0.49,1.62,
4.313,3.83,-3.13,3.25,0.70,-0.49,1.62,
4.314,3.83,-3.13,3.25,0.82,-0.41,1.56,
4.317,3.83,-3.13,3.25,1.06,-0.66,1.52,
4.318,3.39,-4.58,14.03,1.06,-0.66,1.52,
4.319,3.39,-4.58,14.03,1.47,-1.20,1.49,
4.324,3.39,-4.58,14.03,1.94,-1.84,1.46,
4.324,3.57,-3.14,13.71,1.94,-1.84,1.46,
4.34,3.57,-3.14,13.71,2.36,-2.34,1.43,
4.34,3.57,-3.14,13.71,2.70,-2.61,1.40,
4.341,4.00,-2.05,7.50,2.70,-2.61,1.40,
4.341,4.00,-2.05,7.50,2.96,-2.66,1.36,
4.341,4.00,-2.05,7.50,3.15,-2.63,1.30,
4.341,4.00,-2.05,7.50,3.26,-2.48,1.26,
4.342,3.18,-0.58,2.02,3.26,-2.48,1.26,
4.342,3.18,-0.58,2.02,3.28,-2.23,1.28,
4.342,3.18,-0.58,2.02,3.32,-2.05,1.29,
4.342,1.62,-0.51,0.50,3.32,-2.05,1.29,
4.342,1.62,-0.51,0.50,3.33,-1.93,1.29,
4.343,1.52,0.60,-1.51,3.33,-1.93,1.29,
4.343,1.52,0.60,-1.51,3.28,-1.80,1.31,
4.363,1.52,0.60,-1.51,3.22,-1.70,1.30,
4.364,1.01,1.55,-2.16,3.22,-1.70,1.30,
4.365,1.01,1.55,-2.16,3.14,-1.69,1.30,
4.365,1.01,1.55,-2.16,3.08,-1.73,1.34,
4.366,0.48,2.34,-1.59,3.08,-1.73,1.34,
4.366,0.48,2.34,-1.59,3.05,-1.83,1.36,
4.366,0.48,2.34,-1.59,3.03,-1.99,1.42,
4.367,0.48,2.34,-1.59,3.01,-2.26,1.46,
4.367,0.51,2.44,-0.47,3.01,-2.26,1.46,
4.368,0.51,2.44,-0.47,3.01,-2.58,1.49,
4.368,0.41,2.52,-0.04,3.01,-2.58,1.49,
4.368,0.41,2.52,-0.04,3.02,-2.89,1.53,
4.369,0.41,2.52,-0.04,3.01,-3.24,1.54,
4.369,0.68,2.87,-0.43,3.01,-3.24,1.54,
4.369,0.68,2.87,-0.43,3.00,-3.51,1.56,
4.374,0.68,2.87,-0.43,2.95,-3.76,1.56,
4.374,0.68,2.87,-0.43,2.93,-3.92,1.57,
4.375,0.73,3.25,-1.09,2.93,-3.92,1.57,
4.375,0.73,3.25,-1.09,2.87,-3.94,1.51,
4.377,1.77,4.58,-2.47,2.87,-3.94,1.51,
4.377,1.77,4.58,-2.47,2.76,-3.85,1.44,
4.381,1.77,4.58,-2.47,2.62,-3.77,1.45,
4.382,-1.67,0.68,-3.66,2.62,-3.77,1.45,
4.382,-1.67,0.68,-3.66,2.54,-3.88,1.50,
4.384,-1.67,0.68,-3.66,2.44,-3.99,1.51,
4.388,-1.67,0.68,-3.66,2.32,-3.93,1.48,
4.389,-0.69,1.51,-3.21,2.32,-3.93,1.48,
4.39,-0.69,1.51,-3.21,2.19,-3.76,1.46,
4.395,-1.33,2.36,-4.29,2.19,-3.76,1.46,
4.395,-1.33,2.36,-4.29,2.06,-3.62,1.45,
4.398,-1.97,3.24,-4.28,2.06,-3.62,1.45,
4.399,-1.97,3.24,-4.28,1.94,-3.48,1.46,
4.399,-1.97,3.24,-4.28,1.85,-3.41,1.50,
4.399,-1.97,3.24,-4.28,1.74,-3.52,1.55,
4.402,-1.97,3.24,-4.28,1.66,-3.48,1.59,
4.403,-1.14,4.70,-4.25,1.66,-3.48,1.59,
4.407,-1.14,4.70,-4.25,1.58,-3.40,1.65,
4.408,-1.14,4.70,-4.25,1.53,-3.37,1.69,
4.408,-1.21,5.43,-2.98,1.53,-3.37,1.69,
4.409,-1.21,5.43,-2.98,1.48,-3.36,1.74,
4.412,-1.21,5.43,-2.98,1.44,-3.37,1.78,
4.412,0.17,6.20,-2.52,1.44,-3.37,1.78,
4.414,0.17,6.20,-2.52,1.40,-3.37,1.74,
4.418,0.17,6.20,-2.52,1.31,-3.31,1.71,
4.419,2.06,7.68,-3.65,1.31,-3.31,1.71,
4.419,2.06,7.68,-3.65,1.22,-3.23,1.66,
4.423,3.56,7.64,-2.69,1.22,-3.23,1.66,
4.423,3.56,7.64,-2.69,1.16,-3.19,1.59,
4.425,3.56,7.64,-2.69,1.10,-3.17,1.52,
4.427,4.04,7.01,-2.22,1.10,-3.17,1.52,
4.427,4.04,7.01,-2.22,1.02,-3.12,1.44,
4.429,4.04,7.01,-2.22,0.96,-3.08,1.34,
4.432,4.04,7.01,-2.22,0.90,-3.03,1.22,
4.432,3.96,4.87,-0.75,0.90,-3.03,1.22,
4.434,3.96,4.87,-0.75,0.82,-2.93,1.08,
4.437,3.96,4.87,-0.75,0.73,-2.77,0.91,
4.438,3.80,2.54,-0.82,0.73,-2.77,0.91,
4.439,3.80,2.54,-0.82,0.64,-2.57,0.72,
4.442,3.80,2.54,-0.82,0.57,-2.34,0.55,
4.442,2.42,0.88,-0.80,0.57,-2.34,0.55,
4.445,2.42,0.88,-0.80,0.53,-2.13,0.43,
4.446,2.42,0.88,-0.80,0.51,-1.98,0.35,
4.446,0.20,0.91,-0.55,0.51,-1.98,0.35,
4.449,0.20,0.91,-0.55,0.48,-1.95,0.31,
4.452,0.20,0.91,-0.55,0.45,-2.04,0.33,
4.452,-2.52,1.22,-2.16,0.45,-2.04,0.33,
4.456,-2.52,1.22,-2.16,0.44,-2.02,0.33,
4.459,-3.22,1.23,-2.12,0.44,-2.02,0.33,
4.459,-3.22,1.23,-2.12,0.39,-2.04,0.33,
4.459,-3.22,1.23,-2.12,0.34,-2.04,0.34,
4.463,-3.22,1.23,-2.12,0.31,-1.94,0.35,
4.463,-3.61,0.40,-1.90,0.31,-1.94,0.35,
4.465,-3.61,0.40,-1.90,0.29,-1.82,0.36,
4.467,-3.28,-0.08,-1.56,0.29,-1.82,0.36,
4.468,-3.28,-0.08,-1.56,0.28,-1.68,0.39,
4.469,-3.28,-0.08,-1.56,0.28,-1.53,0.40,
4.472,-2.13,0.10,-1.55,0.28,-1.53,0.40,
4.472,-2.13,0.10,-1.55,0.27,-1.40,0.40,
4.474,-2.13,0.10,-1.55,0.26,-1.32,0.38,
4.477,-1.07,-0.14,-0.58,0.26,-1.32,0.38,
4.477,-1.07,-0.14,-0.58,0.26,-1.31,0.35,
4.479,-1.07,-0.14,-0.58,0.27,-1.38,0.31,
4.481,-1.07,-0.14,-0.58,0.27,-1.51,0.24,
4.481,-0.43,-1.01,0.42,0.27,-1.51,0.24,
4.484,-0.43,-1.01,0.42,0.28,-1.65,0.16,
4.486,-0.43,-1.01,0.42,0.27,-1.99,0.15,
4.487,-3.43,-3.76,-1.30,0.27,-1.99,0.15,
4.489,-3.43,-3.76,-1.30,0.27,-2.83,0.23,
4.491,-2.04,-5.11,1.57,0.27,-2.83,0.23,
4.491,-2.04,-5.11,1.57,0.42,-3.60,0.20,
4.493,-2.04,-5.11,1.57,0.51,-3.83,0.14,
4.496,-2.04,-5.11,1.57,0.52,-3.79,0.12,
4.497,-1.65,-5.00,-0.40,0.52,-3.79,0.12,
4.499,-1.65,-5.00,-0.40,0.55,-3.67,0.08,
4.501,-1.65,-5.00,-0.40,0.60,-3.37,-0.02,
4.501,-0.29,-4.87,-0.09,0.60,-3.37,-0.02,
4.503,-0.29,-4.87,-0.09,0.63,-3.03,-0.10,
4.506,-0.29,-4.87,-0.09,0.65,-2.77,-0.15,
4.507,-0.32,-4.80,0.46,0.65,-2.77,-0.15,
4.508,-0.32,-4.80,0.46,0.74,-2.59,-0.19,
4.525,-0.32,-4.80,0.46,0.86,-2.50,-0.24,
4.525,0.43,-4.63,2.86,0.86,-2.50,-0.24,
4.525,0.43,-4.63,2.86,0.97,-2.51,-0.28,
4.525,0.43,-4.63,2.86,1.05,-2.73,-0.30,
4.526,-0.21,-4.77,2.09,1.05,-2.73,-0.30,
4.526,-0.21,-4.77,2.09,1.16,-2.95,-0.36,
4.526,4.35,-3.14,1.52,1.16,-2.95,-0.36,
4.526,4.35,-3.14,1.52,1.22,-3.03,-0.52,
4.526,4.35,-3.14,1.52,1.22,-3.04,-0.64,
4.526,4.35,-3.14,1.52,1.24,-3.00,-0.77,
4.527,4.25,-2.95,0.39,1.24,-3.00,-0.77,
4.537,4.25,-2.95,0.39,1.23,-2.89,-0.88,
4.542,4.25,-2.95,0.39,1.23,-2.77,-1.00,
4.542,4.38,-3.19,-0.15,1.23,-2.77,-1.00,
4.542,4.38,-3.19,-0.15,1.23,-2.64,-1.10,
4.542,2.21,-3.41,-0.64,1.23,-2.64,-1.10,
4.543,2.21,-3.41,-0.64,1.20,-2.58,-1.16,
4.543,2.21,-3.41,-0.64,1.22,-2.53,-1.15,
4.543,2.21,-3.41,-0.64,1.27,-2.39,-1.17,
4.543,1.33,-2.50,0.62,1.27,-2.39,-1.17,
4.543,1.33,-2.50,0.62,1.28,-2.24,-1.20,
4.546,1.33,-2.50,0.62,1.28,-2.12,-1.19,
4.546,0.37,-1.70,0.29,1.28,-2.12,-1.19,
4.548,0.37,-1.70,0.29,1.28,-2.01,-1.17,
4.551,0.37,-1.70,0.29,1.27,-1.94,-1.14,
4.551,-0.72,-1.38,-0.39,1.27,-1.94,-1.14,
4.553,-0.72,-1.38,-0.39,1.28,-1.85,-1.08,
4.557,-0.72,-1.38,-0.39,1.29,-1.73,-1.02,
4.558,-1.84,-1.65,-1.11,1.29,-1.73,-1.02,
4.558,-1.84,-1.65,-1.11,1.27,-1.66,-0.95,
4.561,-1.84,-1.65,-1.11,1.26,-1.65,-0.86,
4.561,-3.28,-0.30,-1.58,1.26,-1.65,-0.86,
4.564,-3.28,-0.30,-1.58,1.24,-1.59,-0.77,
4.566,-2.69,-0.05,-1.79,1.24,-1.59,-0.77,
4.566,-2.69,-0.05,-1.79,1.22,-1.51,-0.69,
4.568,-2.69,-0.05,-1.79,1.20,-1.44,-0.60,
4.574,-3.40,0.40,-2.34,1.20,-1.44,-0.60,
4.575,-3.40,0.40,-2.34,1.18,-1.36,-0.50,
4.575,-3.40,0.40,-2.34,1.16,-1.29,-0.41,
4.577,-3.40,0.40,-2.34,1.14,-1.24,-0.29,
4.577,-3.42,0.80,-2.39,1.14,-1.24,-0.29,
4.579,-3.42,0.80,-2.39,1.13,-1.24,-0.20,
4.581,-3.42,0.80,-2.39,1.13,-1.29,-0.12,
4.582,-3.14,0.99,-1.80,1.13,-1.29,-0.12,
4.582,-3.14,0.99,-1.80,1.12,-1.39,-0.04,
4.585,-3.14,0.99,-1.80,1.13,-1.53,0.04,
4.585,-2.61,1.28,-1.17,1.13,-1.53,0.04,
4.588,-2.61,1.28,-1.17,1.16,-1.70,0.12,
4.59,-2.61,1.28,-1.17,1.19,-1.89,0.20,
4.59,-1.81,1.28,-0.69,1.19,-1.89,0.20,
4.593,-1.81,1.28,-0.69,1.20,-2.11,0.26,
4.595,-1.81,1.28,-0.69,1.22,-2.33,0.30,
4.595,-0.80,0.96,-0.47,1.22,-2.33,0.30,
4.597,-0.80,0.96,-0.47,1.26,-2.54,0.32,
4.6,-0.80,0.96,-0.47,1.26,-2.72,0.31,
4.6,0.26,0.38,-0.60,1.26,-2.72,0.31,
4.602,0.26,0.38,-0.60,1.25,-2.85,0.28,
4.606,0.47,0.02,-1.21,1.25,-2.85,0.28,
4.606,0.47,0.02,-1.21,1.23,-2.93,0.24,
4.607,0.47,0.02,-1.21,1.20,-2.96,0.21,
4.61,0.47,0.02,-1.21,1.15,-2.94,0.17,
4.61,0.25,0.08,-1.79,1.15,-2.94,0.17,
4.612,0.25,0.08,-1.79,1.10,-2.88,0.12,
4.615,-0.35,0.34,-2.38,1.10,-2.88,0.12,
4.616,-0.35,0.34,-2.38,1.03,-2.78,0.08,
4.618,-0.35,0.34,-2.38,0.93,-2.67,0.05,
4.62,-0.35,0.34,-2.38,0.86,-2.58,0.03,
4.624,-1.82,0.57,-2.81,0.86,-2.58,0.03,
4.626,-1.82,0.57,-2.81,0.75,-2.47,0.03,
4.63,-1.82,0.57,-2.81,0.64,-2.35,0.05,
4.631,-3.42,1.02,-3.04,0.64,-2.35,0.05,
4.632,-3.42,1.02,-3.04,0.55,-2.22,0.07,
4.633,-3.65,1.21,-2.86,0.55,-2.22,0.07,
4.633,-3.65,1.21,-2.86,0.44,-2.08,0.09,
4.634,-3.65,1.21,-2.86,0.35,-1.93,0.13,
4.635,-3.68,1.19,-2.39,0.35,-1.93,0.13,
4.635,-3.68,1.19,-2.39,0.27,-1.79,0.16,
4.639,-3.68,1.19,-2.39,0.19,-1.65,0.20,
4.644,-3.68,1.19,-2.39,0.12,-1.53,0.23,
4.645,-3.47,1.11,-1.84,0.12,-1.53,0.23,
4.645,-3.47,1.11,-1.84,0.06,-1.42,0.26,
4.646,-3.47,1.11,-1.84,0.01,-1.33,0.28,
4.646,-3.09,0.96,-1.45,0.01,-1.33,0.28,
4.65,-3.09,0.96,-1.45,-0.04,-1.24,0.29,
4.65,-3.09,0.96,-1.45,-0.09,-1.17,0.31,
4.65,-2.80,0.84,-1.17,-0.09,-1.17,0.31,
4.652,-2.80,0.84,-1.17,-0.12,-1.10,0.32,
4.656,-2.81,0.93,-0.86,-0.12,-1.10,0.32,
4.656,-2.81,0.93,-0.86,-0.15,-1.04,0.34,
4.658,-2.81,0.93,-0.86,-0.17,-1.00,0.38,
4.663,-2.81,0.93,-0.86,-0.19,-0.97,0.42,
4.664,-3.01,1.33,-0.46,-0.19,-0.97,0.42,
4.665,-3.01,1.33,-0.46,-0.20,-0.97,0.47,
4.666,-3.01,1.33,-0.46,-0.21,-0.98,0.53,
4.666,-3.16,1.74,-0.01,-0.21,-0.98,0.53,
4.667,-3.16,1.74,-0.01,-0.21,-1.01,0.58,
4.67,-3.16,1.74,-0.01,-0.20,-1.04,0.63,
4.67,-3.06,1.68,0.25,-0.20,-1.04,0.63,
4.673,-3.06,1.68,0.25,-0.19,-1.08,0.68,
4.676,-3.06,1.68,0.25,-0.19,-1.10,0.71,
4.699,-2.75,1.06,0.11,-0.19,-1.10,0.71,
4.7,-2.75,1.06,0.11,-0.19,-1.09,0.74,
4.7,-2.75,1.06,0.11,-0.20,-1.05,0.76,
4.7,-2.45,0.46,-0.34,-0.20,-1.05,0.76,
4.7,-2.45,0.46,-0.34,-0.21,-0.98,0.77,
4.701,-2.24,-0.02,-1.02,-0.21,-0.98,0.77,
4.701,-2.24,-0.02,-1.02,-0.24,-0.88,0.78,
4.701,-2.24,-0.02,-1.02,-0.30,-0.76,0.77,
4.701,-2.24,-0.02,-1.02,-0.34,-0.65,0.75,
4.702,-2.05,-0.41,-1.13,-0.34,-0.65,0.75,
4.702,-2.05,-0.41,-1.13,-0.39,-0.54,0.73,
4.702,-2.05,-0.41,-1.13,-0.42,-0.44,0.71,
4.702,-2.13,-0.45,-0.78,-0.42,-0.44,0.71,
4.703,-2.13,-0.45,-0.78,-0.43,-0.36,0.71,
4.703,-2.31,-0.28,-0.25,-0.43,-0.36,0.71,
4.703,-2.31,-0.28,-0.25,-0.44,-0.29,0.71,
4.703,-2.31,-0.28,-0.25,-0.43,-0.24,0.71,
4.708,-2.31,-0.28,-0.25,-0.42,-0.22,0.72,
4.708,-2.31,-0.28,-0.25,-0.40,-0.21,0.73,
4.708,-2.45,0.03,0.22,-0.40,-0.21,0.73,
4.711,-2.45,0.03,0.22,-0.39,-0.23,0.73,
4.711,-2.50,0.19,0.59,-0.39,-0.23,0.73,
4.712,-2.50,0.19,0.59,-0.38,-0.26,0.73,
4.718,-2.45,0.12,0.73,-0.38,-0.26,0.73,
4.718,-2.45,0.12,0.73,-0.37,-0.30,0.72,
4.718,-2.45,0.12,0.73,-0.37,-0.33,0.70,
4.72,-2.45,0.12,0.73,-0.37,-0.35,0.69,
4.721,-2.55,0.12,0.66,-0.37,-0.35,0.69,
4.729,-2.55,0.12,0.66,-0.36,-0.35,0.68,
4.73,-2.55,0.12,0.66,-0.36,-0.33,0.68,
4.73,-2.90,0.40,0.61,-0.36,-0.33,0.68,
4.731,-2.90,0.40,0.61,-0.35,-0.29,0.70,
4.731,-2.90,0.40,0.61,-0.33,-0.23,0.73,
4.731,-3.40,0.95,0.72,-0.33,-0.23,0.73,
4.732,-3.40,0.95,0.72,-0.30,-0.17,0.78,
4.736,-3.85,1.51,0.89,-0.30,-0.17,0.78,
4.737,-3.85,1.51,0.89,-0.25,-0.08,0.85,
4.737,-3.85,1.51,0.89,-0.21,0.00,0.92,
4.749,-3.85,1.51,0.89,-0.16,0.09,1.00,
4.75,-4.07,1.88,0.94,-0.16,0.09,1.00,
4.75,-4.07,1.88,0.94,-0.13,0.18,1.06,
4.75,-4.07,1.88,0.94,-0.10,0.26,1.12,
4.75,-4.01,1.95,0.87,-0.10,0.26,1.12,
4.75,-4.01,1.95,0.87,-0.08,0.34,1.17,
4.751,-4.01,1.95,0.87,-0.06,0.42,1.22,
4.751,-3.88,1.83,0.82,-0.06,0.42,1.22,
4.751,-3.88,1.83,0.82,-0.04,0.49,1.26,
4.757,-3.88,1.83,0.82,-0.03,0.55,1.30,
4.757,-3.86,1.77,0.89,-0.03,0.55,1.30,
4.758,-3.86,1.77,0.89,-0.01,0.61,1.34,
4.759,-3.86,1.77,0.89,0.01,0.65,1.38,
4.759,-3.89,1.82,0.98,0.01,0.65,1.38,
4.761,-3.89,1.82,0.98,0.02,0.68,1.42,
4.763,-3.89,1.82,0.98,0.04,0.69,1.47,
4.764,-3.98,1.92,1.16,0.04,0.69,1.47,
4.766,-3.98,1.92,1.16,0.06,0.68,1.51,
4.769,-4.07,2.08,1.42,0.06,0.68,1.51,
4.769,-4.07,2.08,1.42,0.08,0.66,1.57,
4.771,-4.07,2.08,1.42,0.11,0.62,1.62,
4.774,-4.07,2.08,1.42,0.14,0.57,1.68,
4.775,-4.02,2.21,1.64,0.14,0.57,1.68,
4.777,-4.02,2.21,1.64,0.17,0.51,1.75,
4.779,-4.02,2.21,1.64,0.20,0.44,1.81,
4.779,-3.85,2.30,1.73,0.20,0.44,1.81,
4.781,-3.85,2.30,1.73,0.23,0.37,1.87,
4.783,-3.85,2.30,1.73,0.26,0.30,1.93,
4.783,-3.48,2.27,1.72,0.26,0.30,1.93,
4.786,-3.48,2.27,1.72,0.29,0.24,1.98,
4.789,-3.02,2.09,1.60,0.29,0.24,1.98,
4.79,-3.02,2.09,1.60,0.31,0.20,2.03,
4.791,-3.02,2.09,1.60,0.33,0.16,2.06,
4.793,-2.48,1.86,1.51,0.33,0.16,2.06,
4.794,-2.48,1.86,1.51,0.35,0.14,2.10,
4.796,-2.48,1.86,1.51,0.38,0.12,2.12,
4.798,-2.48,1.86,1.51,0.40,0.11,2.15,
4.799,-1.96,1.65,1.53,0.40,0.11,2.15,
4.801,-1.96,1.65,1.53,0.44,0.11,2.17,
4.803,-1.96,1.65,1.53,0.47,0.10,2.18,
4.804,-1.41,1.46,1.66,0.47,0.10,2.18,
4.807,-1.41,1.46,1.66,0.51,0.09,2.19,
4.808,-1.41,1.46,1.66,0.55,0.07,2.20,
4.809,-0.81,1.23,1.81,0.55,0.07,2.20,
4.811,-0.81,1.23,1.81,0.60,0.05,2.19,
4.813,-0.81,1.23,1.81,0.66,0.03,2.18,
4.814,-0.17,0.95,1.83,0.66,0.03,2.18,
4.816,-0.17,0.95,1.83,0.71,0.02,2.15,
4.818,-0.17,0.95,1.83,0.76,0.02,2.12,
4.819,0.48,0.58,1.59,0.76,0.02,2.12,
4.821,0.48,0.58,1.59,0.79,0.03,2.08,
4.831,0.95,0.33,1.23,0.79,0.03,2.08,
4.832,0.95,0.33,1.23,0.82,0.06,2.03,
4.832,0.95,0.33,1.23,0.84,0.10,1.97,
4.833,0.95,0.33,1.23,0.86,0.17,1.91,
4.833,1.18,0.33,0.85,0.86,0.17,1.91,
4.835,1.18,0.33,0.85,0.86,0.25,1.84,
4.835,1.21,0.43,0.60,0.86,0.25,1.84,
4.836,1.21,0.43,0.60,0.87,0.34,1.78,
4.836,1.21,0.43,0.60,0.88,0.45,1.73,
4.848,1.04,0.50,0.51,0.88,0.45,1.73,
4.849,1.04,0.50,0.51,0.89,0.56,1.68,
4.866,1.04,0.50,0.51,0.90,0.68,1.65,
4.866,0.72,0.70,0.54,0.90,0.68,1.65,
4.866,0.72,0.70,0.54,0.92,0.79,1.62,
4.866,0.72,0.70,0.54,0.93,0.88,1.61,
4.866,0.72,0.70,0.54,0.95,0.95,1.61,
4.867,0.37,1.03,0.68,0.95,0.95,1.61,
4.867,0.37,1.03,0.68,0.96,0.99,1.61,
4.867,0.37,1.03,0.68,0.98,1.01,1.62,
4.867,0.06,1.29,0.89,0.98,1.01,1.62,
4.867,0.06,1.29,0.89,0.99,1.00,1.65,
4.868,-0.12,1.49,1.02,0.99,1.00,1.65,
4.868,-0.12,1.49,1.02,1.01,0.97,1.67,
4.868,-0.12,1.49,1.02,1.02,0.93,1.70,
4.868,-0.17,1.59,0.95,1.02,0.93,1.70,
4.868,-0.17,1.59,0.95,1.02,0.88,1.73,
4.87,-0.11,1.68,0.80,1.02,0.88,1.73,
4.87,-0.11,1.68,0.80,1.02,0.83,1.76,
4.87,-0.11,1.68,0.80,1.02,0.78,1.79,
4.871,-0.11,1.68,0.80,1.01,0.73,1.81,
4.876,-0.11,1.68,0.80,1.00,0.68,1.83,
4.876,0.10,1.59,0.75,1.00,0.68,1.83,
4.876,0.10,1.59,0.75,0.99,0.63,1.85,
4.878,0.10,1.59,0.75,0.99,0.57,1.86,
4.878,0.37,1.39,0.85,0.99,0.57,1.86,
4.882,0.37,1.39,0.85,0.99,0.51,1.87,
4.883,0.71,1.21,0.97,0.99,0.51,1.87,
4.883,0.71,1.21,0.97,0.99,0.45,1.87,
4.885,0.71,1.21,0.97,1.00,0.39,1.86,
4.888,0.71,1.21,0.97,1.01,0.33,1.85,
4.889,1.07,0.97,0.94,1.01,0.33,1.85,
4.891,1.07,0.97,0.94,1.02,0.29,1.83,
4.893,1.43,0.67,0.78,1.02,0.29,1.83,
4.893,1.43,0.67,0.78,1.03,0.27,1.80,
4.895,1.43,0.67,0.78,1.04,0.26,1.77,
4.897,1.43,0.67,0.78,1.05,0.28,1.73,
4.898,1.76,0.36,0.56,1.05,0.28,1.73,
4.9,1.76,0.36,0.56,1.06,0.31,1.67,
4.902,2.00,0.09,0.31,1.06,0.31,1.67,
4.902,2.00,0.09,0.31,1.08,0.36,1.61,
4.905,2.00,0.09,0.31,1.09,0.42,1.55,
4.908,2.09,-0.14,0.14,1.09,0.42,1.55,
4.908,2.09,-0.14,0.14,1.11,0.48,1.48,
4.91,2.09,-0.14,0.14,1.13,0.56,1.40,
4.912,2.00,-0.36,-0.00,1.13,0.56,1.40,
4.913,2.00,-0.36,-0.00,1.14,0.63,1.32,
4.915,2.00,-0.36,-0.00,1.16,0.70,1.24,
4.918,1.72,-0.50,-0.17,1.16,0.70,1.24,
4.919,1.72,-0.50,-0.17,1.17,0.77,1.16,
4.922,1.72,-0.50,-0.17,1.19,0.83,1.09,
4.925,1.16,-0.62,-0.29,1.19,0.83,1.09,
4.931,1.16,-0.62,-0.29,1.21,0.89,1.03,
4.931,1.16,-0.62,-0.29,1.24,0.94,1.01,
4.932,0.21,-0.20,-0.40,1.24,0.94,1.01,
4.932,0.21,-0.20,-0.40,1.26,0.98,1.02,
4.933,0.21,-0.20,-0.40,1.27,1.01,1.06,
4.933,-0.85,0.88,-0.54,1.27,1.01,1.06,
4.933,-0.85,0.88,-0.54,1.26,1.00,1.12,
4.935,-0.85,0.88,-0.54,1.23,0.98,1.20,
4.938,-1.70,2.02,-0.63,1.23,0.98,1.20,
4.939,-1.70,2.02,-0.63,1.19,0.94,1.29,
4.949,-1.70,2.02,-0.63,1.14,0.88,1.39,
4.949,-2.27,2.71,-0.58,1.14,0.88,1.39,
4.949,-2.27,2.71,-0.58,1.08,0.81,1.51,
4.95,-2.27,2.71,-0.58,1.02,0.73,1.65,
4.95,-2.38,3.10,-0.37,1.02,0.73,1.65,
4.95,-2.38,3.10,-0.37,0.97,0.64,1.79,
4.95,-2.38,3.10,-0.37,0.92,0.54,1.92,
4.953,-2.38,3.10,-0.37,0.87,0.44,2.06,
4.953,-2.00,2.97,-0.10,0.87,0.44,2.06,
4.956,-2.00,2.97,-0.10,0.83,0.33,2.18,
4.962,-1.19,2.30,-0.00,0.83,0.33,2.18,
