
time,ax,ay,az,wx,wy,wz,
0.008,0.75,0.82,-0.93,0.27,0.44,0.19,
0.009,0.75,0.82,-0.93,0.22,0.43,0.18,
0.009,0.71,0.92,-1.04,0.22,0.43,0.18,
0.009,0.71,0.92,-1.04,0.18,0.43,0.17,
0.009,0.71,0.92,-1.04,0.13,0.42,0.16,
0.009,0.52,0.93,-1.10,0.13,0.42,0.16,
0.009,0.52,0.93,-1.10,0.08,0.42,0.16,
0.01,0.52,0.93,-1.10,0.03,0.42,0.16,
0.01,0.37,0.85,-1.12,0.03,0.42,0.16,
0.012,0.37,0.85,-1.12,-0.01,0.42,0.16,
0.015,0.31,0.78,-1.09,-0.01,0.42,0.16,
0.015,0.31,0.78,-1.09,-0.05,0.42,0.15,
0.017,0.31,0.78,-1.09,-0.09,0.41,0.16,
0.02,0.31,0.78,-1.09,-0.12,0.41,0.15,
0.02,0.30,0.70,-1.05,-0.12,0.41,0.15,
0.022,0.30,0.70,-1.05,-0.15,0.40,0.15,
0.025,0.30,0.70,-1.05,-0.18,0.39,0.14,
0.025,0.34,0.63,-0.97,-0.18,0.39,0.14,
0.027,0.34,0.63,-0.97,-0.20,0.38,0.14,
0.03,0.34,0.63,-0.97,-0.22,0.37,0.13,
0.03,0.38,0.54,-0.82,-0.22,0.37,0.13,
0.033,0.38,0.54,-0.82,-0.23,0.36,0.12,
0.035,0.38,0.54,-0.82,-0.23,0.35,0.11,
0.035,0.43,0.47,-0.64,-0.23,0.35,0.11,
0.037,0.43,0.47,-0.64,-0.24,0.34,0.11,
0.04,0.43,0.47,-0.64,-0.23,0.34,0.09,
0.04,0.46,0.39,-0.44,-0.23,0.34,0.09,
0.042,0.46,0.39,-0.44,-0.22,0.33,0.08,
0.045,0.46,0.39,-0.44,-0.21,0.33,0.07,
0.045,0.42,0.31,-0.29,-0.21,0.33,0.07,
0.048,0.42,0.31,-0.29,-0.19,0.33,0.06,
0.05,0.42,0.31,-0.29,-0.17,0.33,0.06,
0.05,0.41,0.25,-0.27,-0.17,0.33,0.06,
0.052,0.41,0.25,-0.27,-0.14,0.34,0.04,
0.054,0.41,0.25,-0.27,-0.12,0.34,0.04,
0.055,0.36,0.20,-0.29,-0.12,0.34,0.04,
0.057,0.36,0.20,-0.29,-0.09,0.35,0.03,
0.059,0.30,0.15,-0.34,-0.09,0.35,0.03,
0.06,0.30,0.15,-0.34,-0.07,0.36,0.02,
0.062,0.30,0.15,-0.34,-0.04,0.37,0.02,
0.066,0.30,0.15,-0.34,-0.02,0.38,0.02,
0.067,0.24,0.10,-0.44,-0.02,0.38,0.02,
0.067,0.24,0.10,-0.44,0.01,0.40,0.01,
0.069,0.24,0.10,-0.44,0.03,0.41,0.01,
0.07,0.17,0.08,-0.60,0.03,0.41,0.01,
0.072,0.17,0.08,-0.60,0.04,0.43,0.00,
0.074,0.17,0.08,-0.60,0.06,0.45,-0.00,
0.075,0.11,0.03,-0.81,0.06,0.45,-0.00,
0.077,0.11,0.03,-0.81,0.07,0.47,-0.01,
0.079,0.11,0.03,-0.81,0.08,0.49,-0.01,
0.079,0.02,-0.00,-1.03,0.08,0.49,-0.01,
0.082,0.02,-0.00,-1.03,0.09,0.52,-0.01,
0.084,0.02,-0.00,-1.03,0.08,0.58,0.02,
0.089,-1.08,0.36,-1.72,0.08,0.58,0.02,
0.09,-1.08,0.36,-1.72,0.07,0.62,0.06,
0.09,-1.08,0.36,-1.72,0.06,0.65,0.09,
0.09,-0.93,0.38,-1.71,0.06,0.65,0.09,
0.092,-0.93,0.38,-1.71,0.05,0.68,0.12,
0.094,-0.93,0.38,-1.71,0.04,0.70,0.14,
0.094,-0.75,0.40,-1.84,0.04,0.70,0.14,
0.097,-0.75,0.40,-1.84,0.03,0.72,0.16,
0.1,-0.75,0.40,-1.84,0.02,0.74,0.17,
0.1,-0.61,0.42,-1.93,0.02,0.74,0.17,
0.102,-0.61,0.42,-1.93,0.01,0.76,0.18,
0.104,-0.61,0.42,-1.93,-0.00,0.79,0.18,
0.104,-0.54,0.46,-2.01,-0.00,0.79,0.18,
0.106,-0.54,0.46,-2.01,-0.02,0.82,0.19,
0.109,-0.54,0.46,-2.01,-0.03,0.85,0.20,
0.109,-0.51,0.46,-1.99,-0.03,0.85,0.20,
0.111,-0.51,0.46,-1.99,-0.04,0.88,0.20,
0.114,-0.51,0.46,-1.99,-0.05,0.90,0.20,
0.114,-0.54,0.43,-1.91,-0.05,0.90,0.20,
0.116,-0.54,0.43,-1.91,-0.07,0.93,0.21,
0.119,-0.54,0.43,-1.91,-0.08,0.95,0.21,
0.119,-0.65,0.35,-1.84,-0.08,0.95,0.21,
0.121,-0.65,0.35,-1.84,-0.09,0.97,0.22,
0.124,-0.65,0.35,-1.84,-0.10,1.00,0.23,
0.124,-0.70,0.30,-1.89,-0.10,1.00,0.23,
0.127,-0.70,0.30,-1.89,-0.11,1.02,0.23,
0.129,-0.70,0.30,-1.89,-0.11,1.04,0.24,
0.129,-0.78,0.20,-1.93,-0.11,1.04,0.24,
0.131,-0.78,0.20,-1.93,-0.12,1.07,0.24,
0.134,-0.78,0.20,-1.93,-0.13,1.09,0.24,
0.134,-0.80,0.09,-2.04,-0.13,1.09,0.24,
0.136,-0.80,0.09,-2.04,-0.14,1.11,0.24,
0.139,-0.80,0.09,-2.04,-0.15,1.14,0.24,
0.139,-0.83,-0.07,-2.16,-0.15,1.14,0.24,
0.141,-0.83,-0.07,-2.16,-0.15,1.16,0.23,
0.144,-0.83,-0.07,-2.16,-0.16,1.19,0.22,
0.144,-0.90,-0.22,-2.20,-0.16,1.19,0.22,
0.146,-0.90,-0.22,-2.20,-0.17,1.21,0.21,
0.149,-0.90,-0.22,-2.20,-0.17,1.23,0.19,
0.149,-0.93,-0.39,-2.19,-0.17,1.23,0.19,
0.151,-0.93,-0.39,-2.19,-0.18,1.25,0.18,
0.154,-0.93,-0.39,-2.19,-0.18,1.27,0.16,
0.154,-0.99,-0.55,-2.22,-0.18,1.27,0.16,
0.156,-0.99,-0.55,-2.22,-0.17,1.29,0.15,
0.158,-0.99,-0.55,-2.22,-0.17,1.31,0.13,
0.159,-1.07,-0.73,-2.29,-0.17,1.31,0.13,
0.161,-1.07,-0.73,-2.29,-0.16,1.33,0.11,
0.167,-1.16,-0.94,-2.47,-0.16,1.33,0.11,
0.167,-1.16,-0.94,-2.47,-0.16,1.35,0.09,
0.167,-1.16,-0.94,-2.47,-0.15,1.40,0.06,
0.169,-1.39,-1.56,-3.31,-0.15,1.40,0.06,
0.169,-1.39,-1.56,-3.31,-0.13,1.50,0.03,
0.171,-1.39,-1.56,-3.31,-0.12,1.59,-0.01,
0.174,-1.39,-1.56,-3.31,-0.11,1.64,-0.04,
0.174,-1.25,-1.57,-3.14,-0.11,1.64,-0.04,
0.176,-1.25,-1.57,-3.14,-0.10,1.67,-0.07,
0.179,-1.25,-1.57,-3.14,-0.08,1.71,-0.09,
0.179,-1.10,-1.50,-3.03,-0.08,1.71,-0.09,
0.181,-1.10,-1.50,-3.03,-0.06,1.74,-0.10,
0.184,-1.10,-1.50,-3.03,-0.04,1.77,-0.12,
0.184,-1.09,-1.48,-3.11,-0.04,1.77,-0.12,
0.186,-1.09,-1.48,-3.11,-0.02,1.80,-0.13,
0.188,-1.09,-1.48,-3.11,0.00,1.83,-0.16,
0.188,-1.15,-1.56,-3.38,0.00,1.83,-0.16,
0.191,-1.15,-1.56,-3.38,0.03,1.86,-0.18,
0.193,-1.15,-1.56,-3.38,0.05,1.90,-0.22,
0.193,-1.19,-1.71,-3.79,0.05,1.90,-0.22,
0.195,-1.19,-1.71,-3.79,0.06,1.95,-0.26,
0.198,-1.19,-1.71,-3.79,0.07,2.00,-0.31,
0.199,-1.19,-1.78,-4.23,0.07,2.00,-0.31,
0.2,-1.19,-1.78,-4.23,0.08,2.06,-0.36,
0.203,-1.19,-1.78,-4.23,0.08,2.12,-0.42,
0.204,-1.19,-1.89,-4.61,0.08,2.12,-0.42,
0.206,-1.19,-1.89,-4.61,0.08,2.18,-0.48,
0.208,-1.16,-2.07,-4.93,0.08,2.18,-0.48,
0.208,-1.16,-2.07,-4.93,0.08,2.24,-0.53,
0.21,-1.16,-2.07,-4.93,0.08,2.30,-0.58,
0.213,-1.18,-2.30,-5.24,0.08,2.30,-0.58,
0.213,-1.18,-2.30,-5.24,0.08,2.36,-0.63,
0.216,-1.18,-2.30,-5.24,0.08,2.42,-0.67,
0.218,-1.14,-2.53,-5.51,0.08,2.42,-0.67,
0.218,-1.14,-2.53,-5.51,0.08,2.48,-0.71,
0.22,-1.14,-2.53,-5.51,0.07,2.53,-0.75,
0.223,-1.16,-2.79,-5.71,0.07,2.53,-0.75,
0.223,-1.16,-2.79,-5.71,0.07,2.58,-0.77,
0.225,-1.16,-2.79,-5.71,0.06,2.63,-0.80,
0.228,-1.19,-3.05,-5.94,0.06,2.63,-0.80,
0.229,-1.19,-3.05,-5.94,0.05,2.68,-0.83,
0.232,-1.19,-3.05,-5.94,0.04,2.73,-0.84,
0.233,-1.20,-3.30,-6.14,0.04,2.73,-0.84,
0.233,-1.20,-3.30,-6.14,0.03,2.78,-0.87,
0.235,-1.20,-3.30,-6.14,0.01,2.82,-0.89,
0.238,-1.17,-3.58,-6.34,0.01,2.82,-0.89,
0.238,-1.17,-3.58,-6.34,0.00,2.87,-0.91,
0.24,-1.17,-3.58,-6.34,-0.01,2.91,-0.93,
0.243,-1.17,-3.58,-6.34,-0.03,2.95,-0.95,
0.243,-1.14,-3.83,-6.47,-0.03,2.95,-0.95,
0.245,-1.14,-3.83,-6.47,-0.04,3.00,-0.97,
0.248,-1.14,-3.83,-6.47,-0.06,3.05,-1.00,
0.248,-1.05,-4.11,-6.49,-0.06,3.05,-1.00,
0.262,-1.05,-4.11,-6.49,-0.08,3.07,-1.04,
0.262,-1.05,-4.11,-6.49,-0.10,3.01,-1.08,
0.263,-1.13,-4.76,-5.12,-0.10,3.01,-1.08,
0.263,-1.13,-4.76,-5.12,-0.11,2.83,-1.14,
0.263,-1.13,-4.76,-5.12,-0.11,2.62,-1.21,
0.263,-1.64,-5.33,-3.74,-0.11,2.62,-1.21,
0.264,-1.64,-5.33,-3.74,-0.11,2.51,-1.28,
0.264,-1.64,-5.33,-3.74,-0.12,2.46,-1.35,
0.264,-1.43,-5.82,-4.61,-0.12,2.46,-1.35,
0.271,-1.43,-5.82,-4.61,-0.12,2.41,-1.42,
0.272,-1.56,-6.06,-4.29,-0.12,2.41,-1.42,
0.272,-1.56,-6.06,-4.29,-0.11,2.33,-1.49,
0.272,-1.56,-6.06,-4.29,-0.11,2.24,-1.56,
0.273,-1.56,-6.06,-4.29,-0.09,2.14,-1.63,
0.273,-1.38,-6.17,-4.21,-0.09,2.14,-1.63,
0.275,-1.38,-6.17,-4.21,-0.07,2.05,-1.68,
0.278,-1.38,-6.17,-4.21,-0.05,1.95,-1.74,
0.278,-1.16,-6.09,-4.28,-0.05,1.95,-1.74,
0.28,-1.16,-6.09,-4.28,-0.02,1.86,-1.78,
0.283,-1.16,-6.09,-4.28,0.02,1.79,-1.83,
0.283,-0.89,-5.88,-4.57,0.02,1.79,-1.83,
0.285,-0.89,-5.88,-4.57,0.05,1.74,-1.86,
0.288,-0.89,-5.88,-4.57,0.09,1.71,-1.89,
0.288,-0.69,-5.67,-5.02,0.09,1.71,-1.89,
0.29,-0.69,-5.67,-5.02,0.13,1.70,-1.92,
0.292,-0.69,-5.67,-5.02,0.16,1.71,-1.95,
0.293,-0.61,-5.54,-5.58,0.16,1.71,-1.95,
0.295,-0.61,-5.54,-5.58,0.18,1.73,-1.98,
0.298,-0.61,-5.54,-5.58,0.19,1.78,-2.01,
0.298,-0.66,-5.52,-6.19,0.19,1.78,-2.01,
0.3,-0.66,-5.52,-6.19,0.20,1.85,-2.04,
0.302,-0.66,-5.52,-6.19,0.19,1.93,-2.08,
0.303,-0.78,-5.65,-6.82,0.19,1.93,-2.08,
0.305,-0.78,-5.65,-6.82,0.18,2.02,-2.11,
0.307,-0.78,-5.65,-6.82,0.15,2.13,-2.14,
0.307,-0.91,-5.84,-7.48,0.15,2.13,-2.14,
0.31,-0.91,-5.84,-7.48,0.12,2.26,-2.18,
0.312,-0.91,-5.84,-7.48,0.08,2.39,-2.21,
0.313,-1.06,-6.04,-8.09,0.08,2.39,-2.21,
0.315,-1.06,-6.04,-8.09,0.02,2.54,-2.23,
0.317,-1.06,-6.04,-8.09,-0.03,2.70,-2.25,
0.318,-1.32,-6.18,-8.64,-0.03,2.70,-2.25,
0.32,-1.32,-6.18,-8.64,-0.10,2.86,-2.26,
0.322,-1.32,-6.18,-8.64,-0.17,3.03,-2.27,
0.323,-1.62,-6.26,-9.13,-0.17,3.03,-2.27,
0.325,-1.62,-6.26,-9.13,-0.25,3.20,-2.27,
0.327,-1.62,-6.26,-9.13,-0.34,3.39,-2.26,
0.327,-2.03,-6.34,-9.57,-0.34,3.39,-2.26,
0.33,-2.03,-6.34,-9.57,-0.43,3.58,-2.25,
0.332,-2.03,-6.34,-9.57,-0.53,3.78,-2.24,
0.333,-2.42,-6.38,-9.93,-0.53,3.78,-2.24,
0.335,-2.42,-6.38,-9.93,-0.63,3.99,-2.23,
0.337,-2.42,-6.38,-9.93,-0.74,4.20,-2.21,
0.337,-2.76,-6.46,-10.11,-0.74,4.20,-2.21,
0.339,-2.76,-6.46,-10.11,-0.86,4.41,-2.19,
0.342,-2.76,-6.46,-10.11,-0.98,4.62,-2.18,
0.342,-3.04,-6.56,-10.16,-0.98,4.62,-2.18,
0.344,-3.04,-6.56,-10.16,-1.11,4.83,-2.16,
0.347,-3.04,-6.56,-10.16,-1.25,5.03,-2.15,
0.347,-3.27,-6.78,-10.00,-1.25,5.03,-2.15,
0.35,-3.27,-6.78,-10.00,-1.38,5.24,-2.15,
0.352,-3.27,-6.78,-10.00,-1.52,5.44,-2.15,
0.352,-3.58,-7.12,-9.66,-1.52,5.44,-2.15,
0.354,-3.58,-7.12,-9.66,-1.66,5.64,-2.15,
0.357,-3.58,-7.12,-9.66,-1.80,5.82,-2.16,
0.357,-3.88,-7.56,-9.04,-1.80,5.82,-2.16,
0.359,-3.88,-7.56,-9.04,-1.93,5.99,-2.18,
0.362,-3.88,-7.56,-9.04,-2.06,6.14,-2.21,
0.362,-4.07,-8.03,-8.14,-2.06,6.14,-2.21,
0.367,-4.07,-8.03,-8.14,-2.18,6.28,-2.24,
0.368,-4.07,-8.03,-8.14,-2.29,6.40,-2.27,
0.368,-4.36,-8.51,-7.05,-2.29,6.40,-2.27,
0.37,-4.36,-8.51,-7.05,-2.39,6.50,-2.31,
0.372,-4.36,-8.51,-7.05,-2.48,6.59,-2.36,
0.372,-4.71,-8.99,-5.88,-2.48,6.59,-2.36,
0.374,-4.71,-8.99,-5.88,-2.56,6.65,-2.41,
0.377,-4.71,-8.99,-5.88,-2.64,6.70,-2.47,
0.377,-5.06,-9.43,-4.59,-2.64,6.70,-2.47,
0.379,-5.06,-9.43,-4.59,-2.70,6.71,-2.54,
0.383,-5.06,-9.43,-4.59,-2.74,6.64,-2.61,
0.383,-5.05,-10.14,-2.09,-2.74,6.64,-2.61,
0.384,-5.05,-10.14,-2.09,-2.74,6.52,-2.70,
0.387,-5.05,-10.14,-2.09,-2.74,6.42,-2.80,
0.387,-4.78,-10.49,-0.43,-2.74,6.42,-2.80,
0.389,-4.78,-10.49,-0.43,-2.73,6.35,-2.89,
0.392,-4.78,-10.49,-0.43,-2.73,6.28,-2.99,
0.392,-5.42,-10.59,-0.77,-2.73,6.28,-2.99,
0.394,-5.42,-10.59,-0.77,-2.74,6.17,-3.08,
0.396,-5.42,-10.59,-0.77,-2.74,6.04,-3.17,
0.397,-5.97,-10.81,-0.63,-2.74,6.04,-3.17,
0.399,-5.97,-10.81,-0.63,-2.74,5.89,-3.26,
0.402,-5.97,-10.81,-0.63,-2.74,5.75,-3.34,
0.402,-5.90,-10.92,-0.20,-2.74,5.75,-3.34,
0.405,-5.90,-10.92,-0.20,-2.74,5.62,-3.42,
0.406,-5.90,-10.92,-0.20,-2.74,5.52,-3.50,
0.407,-5.71,-10.83,0.14,-2.74,5.52,-3.50,
0.409,-5.71,-10.83,0.14,-2.73,5.44,-3.57,
0.413,-5.76,-10.67,0.10,-2.73,5.44,-3.57,
0.413,-5.76,-10.67,0.10,-2.73,5.37,-3.64,
0.416,-5.76,-10.67,0.10,-2.73,5.33,-3.70,
0.438,-5.89,-10.51,-0.09,-2.73,5.33,-3.70,
0.439,-5.89,-10.51,-0.09,-2.73,5.30,-3.76,
0.439,-5.89,-10.51,-0.09,-2.74,5.28,-3.81,
0.44,-5.93,-10.45,-0.16,-2.74,5.28,-3.81,
0.44,-5.93,-10.45,-0.16,-2.74,5.26,-3.87,
0.44,-5.93,-10.45,-0.16,-2.75,5.24,-3.92,
0.441,-5.97,-10.46,-0.12,-2.75,5.24,-3.92,
0.441,-5.97,-10.46,-0.12,-2.75,5.24,-3.97,
0.441,-5.97,-10.46,-0.12,-2.75,5.23,-4.02,
0.442,-5.97,-10.46,-0.12,-2.75,5.23,-4.07,
0.442,-6.11,-10.49,0.06,-2.75,5.23,-4.07,
0.443,-6.11,-10.49,0.06,-2.75,5.24,-4.12,
0.443,-6.11,-10.49,0.06,-2.74,5.24,-4.17,
0.443,-6.37,-10.64,0.35,-2.74,5.24,-4.17,
0.444,-6.37,-10.64,0.35,-2.72,5.24,-4.23,
0.444,-6.68,-10.94,0.76,-2.72,5.24,-4.23,
0.444,-6.68,-10.94,0.76,-2.70,5.24,-4.28,
0.444,-6.68,-10.94,0.76,-2.68,5.24,-4.34,
0.446,-6.99,-11.35,1.25,-2.68,5.24,-4.34,
0.447,-6.99,-11.35,1.25,-2.65,5.23,-4.40,
0.451,-6.99,-11.35,1.25,-2.61,5.22,-4.47,
0.452,-7.30,-11.78,1.80,-2.61,5.22,-4.47,
0.452,-7.30,-11.78,1.80,-2.57,5.21,-4.53,
0.454,-7.30,-11.78,1.80,-2.52,5.20,-4.61,
0.456,-7.52,-12.20,2.37,-2.52,5.20,-4.61,
0.459,-7.52,-12.20,2.37,-2.46,5.18,-4.69,
0.459,-7.52,-12.20,2.37,-2.40,5.17,-4.77,
0.461,-7.52,-12.20,2.37,-2.33,5.15,-4.87,
0.461,-7.60,-12.56,2.98,-2.33,5.15,-4.87,
0.465,-7.60,-12.56,2.98,-2.25,5.13,-4.96,
0.467,-7.60,-12.56,2.98,-2.17,5.12,-5.06,
0.467,-7.68,-12.70,3.52,-2.17,5.12,-5.06,
0.469,-7.68,-12.70,3.52,-2.09,5.10,-5.16,
0.471,-7.68,-12.70,3.52,-2.00,5.08,-5.27,
0.471,-7.82,-12.72,3.99,-2.00,5.08,-5.27,
0.473,-7.82,-12.72,3.99,-1.92,5.05,-5.37,
0.477,-8.03,-12.64,4.50,-1.92,5.05,-5.37,
0.477,-8.03,-12.64,4.50,-1.84,5.02,-5.47,
0.478,-8.03,-12.64,4.50,-1.76,4.98,-5.57,
0.482,-8.03,-12.64,4.50,-1.68,4.93,-5.67,
0.482,-8.30,-12.51,4.97,-1.68,4.93,-5.67,
0.485,-8.30,-12.51,4.97,-1.60,4.87,-5.77,
0.486,-8.30,-12.51,4.97,-1.53,4.80,-5.87,
0.486,-8.68,-12.42,5.44,-1.53,4.80,-5.87,
0.489,-8.68,-12.42,5.44,-1.45,4.73,-5.97,
0.491,-8.68,-12.42,5.44,-1.38,4.66,-6.06,
0.491,-9.07,-12.37,5.93,-1.38,4.66,-6.06,
0.495,-9.07,-12.37,5.93,-1.30,4.58,-6.16,
0.496,-9.07,-12.37,5.93,-1.22,4.49,-6.25,
0.496,-9.53,-12.29,6.38,-1.22,4.49,-6.25,
0.499,-9.53,-12.29,6.38,-1.15,4.40,-6.35,
0.502,-10.03,-12.18,6.79,-1.15,4.40,-6.35,
0.502,-10.03,-12.18,6.79,-1.07,4.30,-6.44,
0.504,-10.03,-12.18,6.79,-1.00,4.20,-6.53,
0.506,-10.53,-11.90,7.18,-1.00,4.20,-6.53,
0.506,-10.53,-11.90,7.18,-0.93,4.08,-6.61,
0.508,-10.53,-11.90,7.18,-0.87,3.95,-6.69,
0.511,-10.53,-11.90,7.18,-0.81,3.82,-6.76,
0.511,-11.02,-11.50,7.53,-0.81,3.82,-6.76,
0.513,-11.02,-11.50,7.53,-0.76,3.67,-6.83,
0.516,-11.50,-10.96,7.83,-0.76,3.67,-6.83,
0.516,-11.50,-10.96,7.83,-0.71,3.51,-6.89,
0.52,-11.50,-10.96,7.83,-0.67,3.34,-6.95,
0.521,-11.97,-10.29,8.09,-0.67,3.34,-6.95,
0.521,-11.97,-10.29,8.09,-0.63,3.16,-7.00,
0.523,-11.97,-10.29,8.09,-0.60,2.98,-7.05,
0.526,-11.97,-10.29,8.09,-0.58,2.78,-7.10,
0.526,-12.46,-9.51,8.28,-0.58,2.78,-7.10,
0.528,-12.46,-9.51,8.28,-0.56,2.59,-7.13,
0.53,-12.46,-9.51,8.28,-0.54,2.38,-7.16,
0.531,-12.95,-8.67,8.35,-0.54,2.38,-7.16,
0.534,-12.95,-8.67,8.35,-0.54,2.18,-7.18,
0.536,-13.43,-7.73,8.33,-0.54,2.18,-7.18,
0.537,-13.43,-7.73,8.33,-0.53,1.97,-7.18,
0.538,-13.43,-7.73,8.33,-0.52,1.76,-7.18,
0.54,-13.43,-7.73,8.33,-0.52,1.55,-7.17,
0.541,-13.95,-6.82,8.25,-0.52,1.55,-7.17,
0.543,-13.95,-6.82,8.25,-0.52,1.35,-7.15,
0.546,-13.95,-6.82,8.25,-0.52,1.16,-7.11,
0.546,-14.37,-5.89,8.12,-0.52,1.16,-7.11,
0.548,-14.37,-5.89,8.12,-0.53,0.97,-7.07,
0.551,-14.65,-4.85,7.93,-0.53,0.97,-7.07,
0.552,-14.65,-4.85,7.93,-0.53,0.80,-7.01,
0.553,-14.65,-4.85,7.93,-0.53,0.65,-6.93,
0.555,-14.65,-4.85,7.93,-0.52,0.51,-6.85,
0.556,-14.81,-3.71,7.64,-0.52,0.51,-6.85,
0.558,-14.81,-3.71,7.64,-0.51,0.38,-6.76,
0.561,-14.81,-3.71,7.64,-0.50,0.28,-6.66,
0.561,-14.93,-2.60,7.34,-0.50,0.28,-6.66,
0.563,-14.93,-2.60,7.34,-0.49,0.18,-6.55,
0.571,-14.93,-2.60,7.34,-0.46,0.10,-6.44,
0.572,-15.08,-1.61,7.08,-0.46,0.10,-6.44,
0.572,-15.08,-1.61,7.08,-0.43,0.03,-6.32,
0.573,-15.08,-1.61,7.08,-0.39,-0.02,-6.20,
0.573,-15.11,-0.71,6.92,-0.39,-0.02,-6.20,
0.576,-15.03,0.20,6.82,-0.39,-0.02,-6.20,
0.576,-15.03,0.20,6.82,-0.35,-0.07,-6.08,
0.577,-15.03,0.20,6.82,-0.30,-0.10,-5.95,
0.578,-15.03,0.20,6.82,-0.25,-0.13,-5.82,
0.582,-15.03,0.20,6.82,-0.19,-0.15,-5.68,
0.607,-14.93,1.13,6.62,-0.19,-0.15,-5.68,
0.608,-14.93,1.13,6.62,-0.12,-0.15,-5.54,
0.608,-14.93,1.13,6.62,-0.05,-0.14,-5.40,
0.608,-14.83,2.04,6.41,-0.05,-0.14,-5.40,
0.609,-14.83,2.04,6.41,0.03,-0.13,-5.25,
0.609,-14.66,2.90,6.16,0.03,-0.13,-5.25,
0.609,-14.66,2.90,6.16,0.11,-0.11,-5.10,
0.609,-14.66,2.90,6.16,0.20,-0.08,-4.95,
0.61,-14.46,3.68,5.85,0.20,-0.08,-4.95,
0.61,-14.46,3.68,5.85,0.29,-0.05,-4.79,
0.61,-14.46,3.68,5.85,0.39,-0.02,-4.62,
0.611,-14.46,3.68,5.85,0.48,0.01,-4.45,
0.611,-14.27,4.42,5.53,0.48,0.01,-4.45,
0.611,-14.27,4.42,5.53,0.57,0.05,-4.28,
0.611,-14.27,4.42,5.53,0.65,0.08,-4.10,
0.612,-14.06,5.08,5.17,0.65,0.08,-4.10,
0.612,-14.06,5.08,5.17,0.74,0.12,-3.91,
0.612,-14.06,5.08,5.17,0.82,0.17,-3.72,
0.613,-13.82,5.68,4.79,0.82,0.17,-3.72,
0.613,-13.82,5.68,4.79,0.90,0.22,-3.53,
0.615,-13.52,6.12,4.38,0.90,0.22,-3.53,
0.616,-13.52,6.12,4.38,0.98,0.26,-3.33,
0.617,-13.52,6.12,4.38,1.06,0.31,-3.13,
0.62,-13.52,6.12,4.38,1.13,0.35,-2.93,
0.62,-13.14,6.44,3.96,1.13,0.35,-2.93,
0.623,-13.14,6.44,3.96,1.19,0.39,-2.72,
0.625,-12.65,6.68,3.57,1.19,0.39,-2.72,
0.625,-12.65,6.68,3.57,1.25,0.42,-2.52,
0.628,-12.65,6.68,3.57,1.30,0.45,-2.32,
0.63,-12.65,6.68,3.57,1.34,0.47,-2.12,
0.63,-12.07,6.81,3.16,1.34,0.47,-2.12,
0.633,-12.07,6.81,3.16,1.37,0.48,-1.93,
0.635,-12.07,6.81,3.16,1.40,0.49,-1.75,
0.635,-11.40,6.81,2.79,1.40,0.49,-1.75,
0.637,-11.40,6.81,2.79,1.41,0.48,-1.57,
0.64,-11.40,6.81,2.79,1.40,0.47,-1.40,
0.64,-10.60,6.75,2.39,1.40,0.47,-1.40,
0.643,-10.60,6.75,2.39,1.40,0.45,-1.24,
0.646,-10.60,6.75,2.39,1.38,0.43,-1.09,
0.646,-9.84,6.62,2.05,1.38,0.43,-1.09,
0.647,-9.84,6.62,2.05,1.35,0.39,-0.96,
0.65,-9.84,6.62,2.05,1.31,0.35,-0.83,
0.651,-9.10,6.39,1.75,1.31,0.35,-0.83,
0.652,-9.10,6.39,1.75,1.27,0.30,-0.72,
0.655,-9.10,6.39,1.75,1.22,0.24,-0.63,
0.655,-8.34,6.22,1.50,1.22,0.24,-0.63,
0.657,-8.34,6.22,1.50,1.17,0.18,-0.54,
0.659,-8.34,6.22,1.50,1.12,0.11,-0.46,
0.66,-7.60,6.05,1.32,1.12,0.11,-0.46,
0.662,-7.60,6.05,1.32,1.06,0.04,-0.39,
0.665,-6.85,5.93,1.12,1.06,0.04,-0.39,
0.665,-6.85,5.93,1.12,0.99,-0.03,-0.33,
0.668,-6.85,5.93,1.12,0.93,-0.11,-0.28,
0.674,-6.85,5.93,1.12,0.86,-0.18,-0.23,
0.674,-6.11,5.90,0.84,0.86,-0.18,-0.23,
0.675,-6.11,5.90,0.84,0.80,-0.24,-0.19,
0.676,-6.11,5.90,0.84,0.73,-0.29,-0.16,
0.676,-5.42,5.87,0.50,0.73,-0.29,-0.16,
0.691,-5.42,5.87,0.50,0.66,-0.35,-0.13,
0.692,-5.42,5.87,0.50,0.60,-0.41,-0.10,
0.692,-5.42,5.87,0.50,0.53,-0.46,-0.09,
0.692,-4.78,5.83,0.19,0.53,-0.46,-0.09,
0.693,-4.24,5.78,-0.03,0.53,-0.46,-0.09,
0.693,-4.24,5.78,-0.03,0.45,-0.52,-0.08,
0.693,-4.24,5.78,-0.03,0.38,-0.58,-0.08,
0.694,-4.24,5.78,-0.03,0.31,-0.64,-0.07,
0.694,-3.77,5.74,-0.18,0.31,-0.64,-0.07,
0.694,-3.77,5.74,-0.18,0.24,-0.71,-0.08,
0.694,-3.43,5.67,-0.29,0.24,-0.71,-0.08,
0.695,-3.43,5.67,-0.29,0.17,-0.77,-0.09,
0.697,-3.43,5.67,-0.29,0.11,-0.83,-0.10,
0.7,-3.17,5.63,-0.40,0.11,-0.83,-0.10,
0.7,-3.17,5.63,-0.40,0.05,-0.89,-0.12,
0.702,-3.17,5.63,-0.40,-0.01,-0.95,-0.13,
0.704,-3.17,5.63,-0.40,-0.05,-1.01,-0.15,
0.704,-2.98,5.62,-0.51,-0.05,-1.01,-0.15,
0.706,-2.98,5.62,-0.51,-0.10,-1.06,-0.17,
0.709,-2.98,5.62,-0.51,-0.13,-1.11,-0.18,
0.709,-2.85,5.65,-0.61,-0.13,-1.11,-0.18,
0.711,-2.85,5.65,-0.61,-0.16,-1.16,-0.19,
0.714,-2.85,5.65,-0.61,-0.19,-1.21,-0.21,
0.714,-2.76,5.70,-0.69,-0.19,-1.21,-0.21,
0.716,-2.76,5.70,-0.69,-0.21,-1.25,-0.22,
0.719,-2.76,5.70,-0.69,-0.22,-1.28,-0.23,
0.719,-2.66,5.76,-0.78,-0.22,-1.28,-0.23,
0.722,-2.66,5.76,-0.78,-0.23,-1.32,-0.24,
0.724,-2.66,5.76,-0.78,-0.24,-1.35,-0.25,
0.724,-2.57,5.77,-0.88,-0.24,-1.35,-0.25,
0.726,-2.57,5.77,-0.88,-0.25,-1.39,-0.27,
0.729,-2.57,5.77,-0.88,-0.25,-1.42,-0.29,
0.729,-2.49,5.70,-0.94,-0.25,-1.42,-0.29,
0.731,-2.49,5.70,-0.94,-0.25,-1.46,-0.31,
0.734,-2.39,5.49,-1.06,-0.25,-1.46,-0.31,
0.735,-2.39,5.49,-1.06,-0.25,-1.50,-0.33,
0.736,-2.39,5.49,-1.06,-0.25,-1.54,-0.37,
0.739,-2.39,5.49,-1.06,-0.25,-1.58,-0.41,
0.739,-2.23,5.26,-1.15,-0.25,-1.58,-0.41,
0.741,-2.23,5.26,-1.15,-0.25,-1.63,-0.46,
0.744,-2.02,5.03,-1.20,-0.25,-1.63,-0.46,
0.744,-2.02,5.03,-1.20,-0.24,-1.68,-0.52,
0.757,-2.02,5.03,-1.20,-0.23,-1.73,-0.59,
0.757,-2.02,5.03,-1.20,-0.23,-1.79,-0.67,
0.757,-2.02,5.03,-1.20,-0.22,-1.86,-0.76,
0.757,-1.84,4.94,-1.19,-0.22,-1.86,-0.76,
0.757,-1.69,4.87,-1.26,-0.22,-1.86,-0.76,
0.757,-1.69,4.87,-1.26,-0.21,-1.91,-0.85,
0.758,-1.69,4.87,-1.26,-0.19,-1.97,-0.95,
0.764,-1.69,4.87,-1.26,-0.18,-2.02,-1.05,
0.764,-1.61,4.88,-1.43,-0.18,-2.02,-1.05,
0.764,-1.61,4.88,-1.43,-0.17,-2.08,-1.15,
0.764,-1.61,4.88,-1.43,-0.15,-2.12,-1.26,
0.765,-1.64,4.94,-1.72,-0.15,-2.12,-1.26,
0.766,-1.64,4.94,-1.72,-0.14,-2.16,-1.36,
0.769,-1.64,4.94,-1.72,-0.13,-2.19,-1.47,
0.769,-1.65,5.12,-2.06,-0.13,-2.19,-1.47,
0.772,-1.65,5.12,-2.06,-0.12,-2.21,-1.56,
0.774,-1.65,5.12,-2.06,-0.12,-2.23,-1.65,
0.774,-1.78,5.39,-2.48,-0.12,-2.23,-1.65,
0.776,-1.78,5.39,-2.48,-0.13,-2.22,-1.73,
0.779,-2.04,5.73,-2.91,-0.13,-2.22,-1.73,
0.779,-2.04,5.73,-2.91,-0.15,-2.21,-1.80,
0.781,-2.04,5.73,-2.91,-0.17,-2.17,-1.87,
0.786,-2.04,5.73,-2.91,-0.20,-2.13,-1.92,
0.786,-2.43,6.04,-3.29,-0.20,-2.13,-1.92,
0.787,-2.43,6.04,-3.29,-0.23,-2.07,-1.97,
0.794,-2.90,6.34,-3.53,-0.23,-2.07,-1.97,
0.794,-3.42,6.64,-3.57,-0.23,-2.07,-1.97,
0.795,-3.42,6.64,-3.57,-0.27,-2.00,-2.00,
0.795,-3.42,6.64,-3.57,-0.31,-1.92,-2.03,
0.795,-3.42,6.64,-3.57,-0.35,-1.84,-2.04,
0.796,-3.42,6.64,-3.57,-0.39,-1.75,-2.05,
0.81,-3.42,6.64,-3.57,-0.43,-1.65,-2.05,
0.811,-4.00,6.88,-3.46,-0.43,-1.65,-2.05,
0.811,-4.00,6.88,-3.46,-0.47,-1.55,-2.04,
0.811,-4.62,7.00,-3.14,-0.47,-1.55,-2.04,
0.811,-4.62,7.00,-3.14,-0.50,-1.45,-2.02,
0.811,-4.62,7.00,-3.14,-0.52,-1.35,-1.99,
0.811,-5.23,7.03,-2.70,-0.52,-1.35,-1.99,
0.811,-5.23,7.03,-2.70,-0.54,-1.25,-1.96,
0.811,-5.23,7.03,-2.70,-0.55,-1.15,-1.92,
0.813,-5.83,7.01,-2.26,-0.55,-1.15,-1.92,
0.813,-5.83,7.01,-2.26,-0.54,-1.05,-1.88,
0.817,-5.83,7.01,-2.26,-0.53,-0.94,-1.83,
0.819,-5.83,7.01,-2.26,-0.51,-0.83,-1.78,
0.819,-6.47,6.88,-1.87,-0.51,-0.83,-1.78,
0.821,-6.47,6.88,-1.87,-0.48,-0.72,-1.72,
0.823,-6.47,6.88,-1.87,-0.45,-0.61,-1.66,
0.824,-7.13,6.72,-1.50,-0.45,-0.61,-1.66,
0.826,-7.13,6.72,-1.50,-0.40,-0.50,-1.60,
0.828,-7.13,6.72,-1.50,-0.35,-0.39,-1.53,
0.828,-7.80,6.57,-1.17,-0.35,-0.39,-1.53,
0.831,-7.80,6.57,-1.17,-0.29,-0.28,-1.46,
0.833,-8.44,6.44,-0.91,-0.29,-0.28,-1.46,
0.834,-8.44,6.44,-0.91,-0.23,-0.17,-1.38,
0.836,-8.44,6.44,-0.91,-0.16,-0.07,-1.30,
0.839,-9.05,6.35,-0.73,-0.16,-0.07,-1.30,
0.839,-9.05,6.35,-0.73,-0.09,0.04,-1.21,
0.842,-9.05,6.35,-0.73,-0.02,0.14,-1.13,
0.844,-9.05,6.35,-0.73,0.05,0.26,-1.03,
0.844,-9.60,6.35,-0.66,0.05,0.26,-1.03,
0.846,-9.60,6.35,-0.66,0.12,0.36,-0.93,
0.848,-9.60,6.35,-0.66,0.19,0.47,-0.83,
0.848,-10.17,6.45,-0.66,0.19,0.47,-0.83,
0.852,-10.17,6.45,-0.66,0.26,0.58,-0.72,
0.855,-10.73,6.57,-0.78,0.26,0.58,-0.72,
0.855,-10.73,6.57,-0.78,0.33,0.68,-0.61,
0.855,-10.73,6.57,-0.78,0.39,0.79,-0.50,
0.858,-11.18,6.68,-0.93,0.39,0.79,-0.50,
0.858,-11.18,6.68,-0.93,0.44,0.89,-0.38,
0.86,-11.18,6.68,-0.93,0.49,0.99,-0.26,
0.863,-11.18,6.68,-0.93,0.53,1.10,-0.14,
0.863,-11.55,6.81,-1.21,0.53,1.10,-0.14,
0.865,-11.55,6.81,-1.21,0.56,1.21,-0.02,
0.873,-11.88,6.97,-1.51,0.56,1.21,-0.02,
0.874,-11.88,6.97,-1.51,0.59,1.31,0.10,
0.874,-11.88,6.97,-1.51,0.60,1.42,0.23,
0.875,-11.88,6.97,-1.51,0.60,1.51,0.35,
0.875,-12.21,6.99,-1.63,0.60,1.51,0.35,
0.88,-12.21,6.99,-1.63,0.58,1.58,0.47,
0.881,-12.21,6.99,-1.63,0.55,1.62,0.58,
0.881,-12.59,6.85,-1.64,0.55,1.62,0.58,
0.881,-12.59,6.85,-1.64,0.50,1.65,0.69,
0.897,-12.59,6.85,-1.64,0.44,1.68,0.79,
0.899,-12.87,6.55,-1.92,0.44,1.68,0.79,
0.899,-12.87,6.55,-1.92,0.38,1.73,0.89,
0.9,-12.97,6.17,-2.27,0.38,1.73,0.89,
0.9,-12.97,6.17,-2.27,0.31,1.79,0.98,
0.9,-12.97,6.17,-2.27,0.24,1.87,1.07,
0.902,-12.97,6.17,-2.27,0.17,1.93,1.16,
0.902,-13.09,5.77,-2.27,0.17,1.93,1.16,
0.902,-13.09,5.77,-2.27,0.10,1.97,1.25,
0.903,-13.09,5.77,-2.27,0.02,2.00,1.34,
0.903,-13.23,5.34,-2.06,0.02,2.00,1.34,
0.903,-13.23,5.34,-2.06,-0.05,2.03,1.43,
0.905,-13.23,5.34,-2.06,-0.13,2.05,1.51,
0.906,-13.38,4.91,-1.77,-0.13,2.05,1.51,
0.906,-13.38,4.91,-1.77,-0.21,2.08,1.60,
0.908,-13.38,4.91,-1.77,-0.29,2.10,1.69,
0.909,-13.55,4.39,-1.22,-0.29,2.10,1.69,
0.91,-13.55,4.39,-1.22,-0.37,2.11,1.77,
0.933,-13.55,4.39,-1.22,-0.45,2.12,1.86,
0.934,-13.80,3.85,-0.53,-0.45,2.12,1.86,
0.934,-13.80,3.85,-0.53,-0.52,2.12,1.94,
0.935,-14.03,3.25,0.27,-0.52,2.12,1.94,
0.935,-14.03,3.25,0.27,-0.59,2.11,2.03,
0.936,-14.03,3.25,0.27,-0.64,2.10,2.12,
0.936,-14.03,3.25,0.27,-0.69,2.08,2.21,
0.936,-14.21,2.63,1.12,-0.69,2.08,2.21,
0.937,-14.21,2.63,1.12,-0.73,2.05,2.31,
0.937,-14.21,2.63,1.12,-0.76,2.02,2.41,
0.938,-14.35,1.95,1.99,-0.76,2.02,2.41,
0.938,-14.35,1.95,1.99,-0.77,1.98,2.51,
0.939,-14.35,1.95,1.99,-0.78,1.94,2.62,
0.939,-14.40,1.24,2.78,-0.78,1.94,2.62,
0.94,-14.40,1.24,2.78,-0.77,1.89,2.74,
0.94,-14.40,1.24,2.78,-0.76,1.85,2.86,
0.941,-14.38,0.49,3.52,-0.76,1.85,2.86,
0.941,-14.38,0.49,3.52,-0.73,1.80,2.97,
0.944,-14.38,0.49,3.52,-0.70,1.75,3.09,
0.945,-14.27,-0.34,4.16,-0.70,1.75,3.09,
0.945,-14.27,-0.34,4.16,-0.65,1.69,3.21,
0.947,-14.27,-0.34,4.16,-0.60,1.62,3.32,
0.948,-14.09,-1.18,4.65,-0.60,1.62,3.32,
0.95,-14.09,-1.18,4.65,-0.53,1.55,3.43,
0.952,-14.09,-1.18,4.65,-0.47,1.48,3.53,
0.953,-13.84,-2.07,5.01,-0.47,1.48,3.53,
0.954,-13.84,-2.07,5.01,-0.39,1.40,3.62,
0.957,-13.84,-2.07,5.01,-0.31,1.32,3.71,
0.957,-13.53,-2.91,5.17,-0.31,1.32,3.71,
0.959,-13.53,-2.91,5.17,-0.23,1.25,3.79,
0.962,-13.53,-2.91,5.17,-0.14,1.17,3.86,
0.962,-13.24,-3.72,5.19,-0.14,1.17,3.86,
0.964,-13.24,-3.72,5.19,-0.05,1.11,3.93,
0.97,-13.24,-3.72,5.19,0.04,1.04,3.98,
0.97,-13.05,-4.54,5.04,0.04,1.04,3.98,
0.97,-13.05,-4.54,5.04,0.13,0.98,4.03,
0.972,-13.05,-4.54,5.04,0.22,0.93,4.07,
0.973,-12.94,-5.45,4.74,0.22,0.93,4.07,
0.974,-12.94,-5.45,4.74,0.31,0.88,4.11,
0.977,-12.94,-5.45,4.74,0.39,0.85,4.13,
0.977,-12.85,-6.40,4.34,0.39,0.85,4.13,
0.979,-12.85,-6.40,4.34,0.46,0.83,4.15,
0.982,-12.85,-6.40,4.34,0.52,0.81,4.17,
0.983,-12.89,-7.30,3.87,0.52,0.81,4.17,
0.989,-12.89,-7.30,3.87,0.58,0.80,4.18,
0.989,-12.89,-7.30,3.87,0.63,0.81,4.18,
0.989,-13.10,-8.21,3.37,0.63,0.81,4.18,
0.991,-13.10,-8.21,3.37,0.68,0.82,4.18,
0.992,-13.10,-8.21,3.37,0.71,0.84,4.18,
0.992,-13.30,-9.13,2.92,0.71,0.84,4.18,
0.995,-13.30,-9.13,2.92,0.74,0.86,4.18,
0.997,-13.30,-9.13,2.92,0.76,0.88,4.16,
0.997,-13.48,-9.96,2.56,0.76,0.88,4.16,
0.999,-13.48,-9.96,2.56,0.77,0.89,4.15,
1.002,-13.48,-9.96,2.56,0.78,0.91,4.13,
1.003,-13.46,-10.53,2.31,0.78,0.91,4.13,
1.004,-13.46,-10.53,2.31,0.78,0.92,4.10,
1.006,-13.46,-10.53,2.31,0.78,0.93,4.07,
1.007,-13.28,-10.79,2.11,0.78,0.93,4.07,
1.01,-13.28,-10.79,2.11,0.77,0.94,4.04,
1.012,-13.28,-10.79,2.11,0.76,0.95,4.01,
1.012,-13.07,-10.78,1.98,0.76,0.95,4.01,
1.014,-13.07,-10.78,1.98,0.74,0.95,3.98,
1.017,-13.07,-10.78,1.98,0.71,0.95,3.96,
1.018,-12.83,-10.59,1.88,0.71,0.95,3.96,
1.019,-12.83,-10.59,1.88,0.68,0.95,3.95,
1.021,-12.83,-10.59,1.88,0.65,0.94,3.95,
1.022,-12.66,-10.29,1.89,0.65,0.94,3.95,
1.024,-12.66,-10.29,1.89,0.61,0.93,3.96,
1.026,-12.66,-10.29,1.89,0.57,0.92,3.98,
1.027,-12.52,-9.96,1.95,0.57,0.92,3.98,
1.029,-12.52,-9.96,1.95,0.52,0.90,4.01,
1.031,-12.52,-9.96,1.95,0.47,0.89,4.05,
1.031,-12.27,-9.63,2.08,0.47,0.89,4.05,
1.034,-12.27,-9.63,2.08,0.42,0.87,4.10,
1.036,-12.27,-9.63,2.08,0.36,0.84,4.16,
1.037,-11.95,-9.31,2.26,0.36,0.84,4.16,
1.039,-11.95,-9.31,2.26,0.30,0.81,4.22,
1.041,-11.95,-9.31,2.26,0.24,0.77,4.30,
1.042,-11.54,-9.06,2.49,0.24,0.77,4.30,
1.044,-11.54,-9.06,2.49,0.18,0.73,4.38,
1.046,-11.54,-9.06,2.49,0.13,0.69,4.46,
1.047,-11.03,-8.87,2.76,0.13,0.69,4.46,
1.049,-11.03,-8.87,2.76,0.07,0.64,4.55,
1.053,-11.03,-8.87,2.76,0.02,0.59,4.64,
1.054,-10.36,-8.74,3.05,0.02,0.59,4.64,
1.054,-10.36,-8.74,3.05,-0.02,0.53,4.73,
1.057,-10.36,-8.74,3.05,-0.06,0.47,4.82,
1.057,-9.64,-8.69,3.33,-0.06,0.47,4.82,
1.059,-9.64,-8.69,3.33,-0.10,0.40,4.91,
1.061,-9.64,-8.69,3.33,-0.12,0.34,5.00,
1.061,-8.85,-8.74,3.59,-0.12,0.34,5.00,
1.064,-8.85,-8.74,3.59,-0.15,0.27,5.08,
1.073,-8.04,-8.82,3.77,-0.15,0.27,5.08,
1.074,-8.04,-8.82,3.77,-0.16,0.21,5.16,
1.074,-8.04,-8.82,3.77,-0.18,0.15,5.23,
1.074,-8.04,-8.82,3.77,-0.18,0.09,5.29,
1.074,-7.25,-8.95,3.91,-0.18,0.09,5.29,
1.074,-7.25,-8.95,3.91,-0.18,0.03,5.36,
1.077,-6.50,-9.12,3.96,-0.18,0.03,5.36,
1.098,-6.50,-9.12,3.96,-0.17,-0.03,5.41,
1.098,-5.84,-9.30,3.92,-0.17,-0.03,5.41,
1.098,-5.84,-9.30,3.92,-0.16,-0.08,5.47,
1.098,-5.84,-9.30,3.92,-0.15,-0.13,5.52,
1.098,-5.84,-9.30,3.92,-0.13,-0.17,5.56,
1.098,-5.28,-9.51,3.88,-0.13,-0.17,5.56,
1.099,-5.28,-9.51,3.88,-0.11,-0.21,5.60,
1.099,-5.28,-9.51,3.88,-0.09,-0.25,5.64,
1.099,-4.81,-9.72,3.80,-0.09,-0.25,5.64,
1.099,-4.81,-9.72,3.80,-0.07,-0.28,5.67,
1.099,-4.81,-9.72,3.80,-0.04,-0.31,5.70,
1.099,-4.81,-9.72,3.80,-0.02,-0.34,5.73,
1.1,-4.44,-9.91,3.76,-0.02,-0.34,5.73,
1.1,-4.44,-9.91,3.76,0.01,-0.38,5.76,
1.101,-4.14,-10.07,3.71,0.01,-0.38,5.76,
1.101,-4.14,-10.07,3.71,0.04,-0.41,5.79,
1.104,-4.14,-10.07,3.71,0.07,-0.45,5.82,
1.106,-4.14,-10.07,3.71,0.11,-0.49,5.85,
1.106,-3.92,-10.23,3.65,0.11,-0.49,5.85,
1.108,-3.92,-10.23,3.65,0.14,-0.54,5.89,
1.111,-3.92,-10.23,3.65,0.17,-0.58,5.92,
1.111,-3.77,-10.42,3.55,0.17,-0.58,5.92,
1.113,-3.77,-10.42,3.55,0.20,-0.63,5.95,
1.116,-3.77,-10.42,3.55,0.23,-0.68,5.99,
1.116,-3.61,-10.63,3.38,0.23,-0.68,5.99,
1.12,-3.61,-10.63,3.38,0.26,-0.72,6.02,
1.121,-3.61,-10.63,3.38,0.28,-0.77,6.06,
1.121,-3.41,-10.89,3.16,0.28,-0.77,6.06,
1.123,-3.41,-10.89,3.16,0.30,-0.82,6.10,
1.125,-3.41,-10.89,3.16,0.31,-0.87,6.14,
1.126,-3.20,-11.20,2.88,0.31,-0.87,6.14,
1.128,-3.20,-11.20,2.88,0.33,-0.92,6.18,
1.131,-3.20,-11.20,2.88,0.33,-0.96,6.22,
1.131,-2.94,-11.48,2.59,0.33,-0.96,6.22,
1.134,-2.94,-11.48,2.59,0.34,-1.01,6.26,
1.136,-2.66,-11.74,2.32,0.34,-1.01,6.26,
1.137,-2.66,-11.74,2.32,0.35,-1.06,6.29,
1.139,-2.66,-11.74,2.32,0.35,-1.10,6.33,
1.14,-2.66,-11.74,2.32,0.35,-1.15,6.37,
1.14,-2.32,-11.99,2.06,0.35,-1.15,6.37,
1.144,-2.32,-11.99,2.06,0.35,-1.19,6.40,
1.146,-2.32,-11.99,2.06,0.35,-1.23,6.43,
1.147,-1.94,-12.30,1.83,0.35,-1.23,6.43,
1.148,-1.94,-12.30,1.83,0.35,-1.28,6.46,
1.151,-1.94,-12.30,1.83,0.35,-1.32,6.48,
1.152,-1.51,-12.63,1.63,0.35,-1.32,6.48,
1.153,-1.51,-12.63,1.63,0.35,-1.36,6.50,
1.156,-1.51,-12.63,1.63,0.35,-1.40,6.51,
1.156,-1.08,-13.01,1.39,0.35,-1.40,6.51,
1.158,-1.08,-13.01,1.39,0.35,-1.45,6.52,
1.16,-1.08,-13.01,1.39,0.35,-1.49,6.51,
1.161,-0.65,-13.46,1.25,0.35,-1.49,6.51,
1.163,-0.65,-13.46,1.25,0.36,-1.54,6.50,
1.165,-0.65,-13.46,1.25,0.37,-1.58,6.48,
1.166,-0.08,-13.81,1.16,0.37,-1.58,6.48,
1.17,-0.08,-13.81,1.16,0.38,-1.63,6.46,
1.171,-0.08,-13.81,1.16,0.40,-1.67,6.44,
1.171,0.50,-14.02,1.06,0.40,-1.67,6.44,
1.175,0.50,-14.02,1.06,0.42,-1.71,6.41,
1.176,0.50,-14.02,1.06,0.45,-1.75,6.37,
1.176,1.12,-14.14,0.97,0.45,-1.75,6.37,
1.178,1.12,-14.14,0.97,0.49,-1.78,6.34,
1.18,1.75,-14.19,0.85,0.49,-1.78,6.34,
1.181,1.75,-14.19,0.85,0.52,-1.80,6.30,
1.183,1.75,-14.19,0.85,0.57,-1.82,6.25,
1.193,2.42,-14.17,0.70,0.57,-1.82,6.25,
1.194,2.42,-14.17,0.70,0.62,-1.83,6.20,
1.194,2.42,-14.17,0.70,0.67,-1.82,6.15,
1.195,2.42,-14.17,0.70,0.72,-1.81,6.09,
1.195,3.06,-14.11,0.55,0.72,-1.81,6.09,
1.195,3.06,-14.11,0.55,0.78,-1.79,6.03,
1.195,3.06,-14.11,0.55,0.85,-1.76,5.96,
1.196,3.63,-14.00,0.43,0.85,-1.76,5.96,
1.198,3.63,-14.00,0.43,0.91,-1.72,5.89,
1.201,4.16,-13.88,0.36,0.91,-1.72,5.89,
1.201,4.16,-13.88,0.36,0.98,-1.68,5.82,
1.203,4.16,-13.88,0.36,1.05,-1.63,5.74,
1.206,4.60,-13.74,0.32,1.05,-1.63,5.74,
1.206,4.60,-13.74,0.32,1.13,-1.58,5.66,
1.207,4.60,-13.74,0.32,1.20,-1.53,5.58,
1.21,4.96,-13.62,0.24,1.20,-1.53,5.58,
1.21,4.96,-13.62,0.24,1.28,-1.48,5.49,
1.212,4.96,-13.62,0.24,1.36,-1.42,5.40,
1.215,5.23,-13.51,0.18,1.36,-1.42,5.40,
1.215,5.23,-13.51,0.18,1.43,-1.37,5.32,
1.218,5.23,-13.51,0.18,1.51,-1.31,5.22,
1.22,5.43,-13.40,0.15,1.51,-1.31,5.22,
1.22,5.43,-13.40,0.15,1.59,-1.26,5.13,
1.222,5.43,-13.40,0.15,1.66,-1.20,5.04,
1.225,5.53,-13.29,0.09,1.66,-1.20,5.04,
1.225,5.53,-13.29,0.09,1.74,-1.14,4.95,
1.227,5.53,-13.29,0.09,1.81,-1.09,4.86,
1.23,5.53,-13.29,0.09,1.88,-1.04,4.78,
1.23,5.53,-13.19,0.04,1.88,-1.04,4.78,
1.232,5.53,-13.19,0.04,1.95,-0.99,4.69,
1.235,5.53,-13.19,0.04,2.01,-0.94,4.61,
1.236,5.53,-13.10,-0.03,2.01,-0.94,4.61,
1.238,5.53,-13.10,-0.03,2.08,-0.90,4.53,
1.24,5.50,-13.02,-0.13,2.08,-0.90,4.53,
1.24,5.50,-13.02,-0.13,2.14,-0.86,4.46,
1.266,5.50,-13.02,-0.13,2.20,-0.82,4.38,
1.266,5.44,-12.96,-0.28,2.20,-0.82,4.38,
1.266,5.44,-12.96,-0.28,2.25,-0.79,4.32,
1.266,5.44,-12.96,-0.28,2.29,-0.76,4.25,
1.266,5.42,-12.89,-0.45,2.29,-0.76,4.25,
1.267,5.42,-12.89,-0.45,2.33,-0.73,4.18,
1.267,5.42,-12.89,-0.45,2.37,-0.71,4.12,
1.267,5.41,-12.84,-0.68,2.37,-0.71,4.12,
1.267,5.41,-12.84,-0.68,2.40,-0.69,4.05,
1.268,5.41,-12.84,-0.68,2.42,-0.67,3.99,
1.268,5.46,-12.78,-0.88,2.42,-0.67,3.99,
1.268,5.46,-12.78,-0.88,2.44,-0.65,3.93,
1.268,5.46,-12.78,-0.88,2.45,-0.64,3.87,
1.269,5.55,-12.68,-1.10,2.45,-0.64,3.87,
1.269,5.55,-12.68,-1.10,2.46,-0.62,3.81,
1.269,5.55,-12.68,-1.10,2.46,-0.60,3.75,
1.273,5.66,-12.56,-1.29,2.46,-0.60,3.75,
1.273,5.66,-12.56,-1.29,2.46,-0.58,3.69,
1.273,5.66,-12.56,-1.29,2.45,-0.56,3.62,
1.275,5.66,-12.56,-1.29,2.44,-0.53,3.56,
1.276,5.83,-12.41,-1.47,2.44,-0.53,3.56,
1.278,5.83,-12.41,-1.47,2.43,-0.51,3.50,
1.28,5.83,-12.41,-1.47,2.41,-0.48,3.45,
1.281,5.96,-12.24,-1.65,2.41,-0.48,3.45,
1.283,5.96,-12.24,-1.65,2.39,-0.46,3.39,
1.292,5.96,-12.24,-1.65,2.36,-0.43,3.33,
1.293,6.09,-12.07,-1.82,2.36,-0.43,3.33,
1.293,6.09,-12.07,-1.82,2.33,-0.40,3.27,
1.293,6.23,-11.93,-1.96,2.33,-0.40,3.27,
1.294,6.23,-11.93,-1.96,2.30,-0.37,3.21,
1.294,6.23,-11.93,-1.96,2.26,-0.34,3.15,
1.295,6.23,-11.93,-1.96,2.21,-0.31,3.09,
1.295,6.31,-11.80,-2.11,2.21,-0.31,3.09,
1.298,6.31,-11.80,-2.11,2.17,-0.28,3.03,
1.3,6.38,-11.69,-2.25,2.17,-0.28,3.03,
1.3,6.38,-11.69,-2.25,2.12,-0.25,2.97,
1.309,6.38,-11.69,-2.25,2.06,-0.23,2.92,
1.31,6.38,-11.69,-2.25,2.00,-0.20,2.86,
1.31,6.43,-11.59,-2.34,2.00,-0.20,2.86,
1.31,6.43,-11.59,-2.34,1.95,-0.17,2.80,
1.31,6.47,-11.47,-2.39,1.95,-0.17,2.80,
1.311,6.47,-11.47,-2.39,1.88,-0.15,2.74,
1.312,6.47,-11.47,-2.39,1.82,-0.12,2.68,
1.315,6.51,-11.36,-2.36,1.82,-0.12,2.68,
1.315,6.51,-11.36,-2.36,1.76,-0.10,2.62,
1.317,6.51,-11.36,-2.36,1.69,-0.07,2.57,
1.32,6.54,-11.21,-2.30,1.69,-0.07,2.57,
1.32,6.54,-11.21,-2.30,1.63,-0.05,2.51,
1.322,6.54,-11.21,-2.30,1.56,-0.03,2.45,
1.324,6.54,-11.21,-2.30,1.49,-0.01,2.39,
1.324,6.59,-11.08,-2.21,1.49,-0.01,2.39,
1.326,6.59,-11.08,-2.21,1.43,0.01,2.33,
1.329,6.59,-11.08,-2.21,1.36,0.03,2.28,
1.329,6.61,-10.98,-2.13,1.36,0.03,2.28,
1.331,6.61,-10.98,-2.13,1.30,0.04,2.21,
1.335,6.65,-10.93,-2.02,1.30,0.04,2.21,
1.335,6.65,-10.93,-2.02,1.23,0.05,2.15,
1.336,6.65,-10.93,-2.02,1.17,0.06,2.09,
1.339,6.65,-10.93,-2.02,1.11,0.07,2.03,
1.339,6.67,-10.84,-1.90,1.11,0.07,2.03,
1.341,6.67,-10.84,-1.90,1.05,0.08,1.97,
1.344,6.67,-10.84,-1.90,0.98,0.09,1.91,
1.344,6.70,-10.76,-1.79,0.98,0.09,1.91,
1.346,6.70,-10.76,-1.79,0.92,0.09,1.85,
1.349,6.70,-10.76,-1.79,0.86,0.10,1.78,
1.349,6.70,-10.70,-1.66,0.86,0.10,1.78,
1.352,6.70,-10.70,-1.66,0.81,0.11,1.72,
1.354,6.70,-10.70,-1.66,0.75,0.11,1.65,
1.354,6.66,-10.65,-1.53,0.75,0.11,1.65,
1.356,6.66,-10.65,-1.53,0.69,0.12,1.59,
1.359,6.66,-10.65,-1.53,0.64,0.12,1.53,
1.359,6.60,-10.60,-1.33,0.64,0.12,1.53,
1.361,6.60,-10.60,-1.33,0.59,0.12,1.47,
1.364,6.60,-10.60,-1.33,0.54,0.12,1.41,
1.364,6.59,-10.55,-1.08,0.54,0.12,1.41,
1.366,6.59,-10.55,-1.08,0.49,0.11,1.35,
1.373,6.58,-10.47,-0.83,0.49,0.11,1.35,
1.373,6.58,-10.47,-0.83,0.45,0.10,1.29,
1.374,6.58,-10.47,-0.83,0.42,0.09,1.23,
1.374,6.59,-10.43,-0.59,0.42,0.09,1.23,
1.375,6.59,-10.43,-0.59,0.39,0.08,1.17,
1.376,6.59,-10.43,-0.59,0.36,0.06,1.11,
1.379,6.59,-10.43,-0.59,0.33,0.03,1.05,
1.379,6.62,-10.43,-0.38,0.33,0.03,1.05,
1.402,6.67,-10.50,-0.22,0.33,0.03,1.05,
1.403,6.67,-10.50,-0.22,0.32,0.01,0.99,
1.403,6.67,-10.50,-0.22,0.31,-0.01,0.92,
1.404,6.67,-10.50,-0.22,0.30,-0.03,0.85,
1.404,6.67,-10.50,-0.22,0.30,-0.06,0.78,
1.404,6.77,-10.62,-0.15,0.30,-0.06,0.78,
1.405,6.77,-10.62,-0.15,0.30,-0.08,0.71,
1.405,6.86,-10.76,-0.15,0.30,-0.08,0.71,
1.405,6.86,-10.76,-0.15,0.30,-0.10,0.63,
1.405,6.86,-10.76,-0.15,0.31,-0.12,0.55,
1.406,6.86,-10.76,-0.15,0.32,-0.14,0.46,
1.406,6.92,-10.91,-0.26,0.32,-0.14,0.46,
1.406,6.92,-10.91,-0.26,0.33,-0.15,0.37,
1.407,6.92,-10.91,-0.26,0.34,-0.16,0.28,
1.407,6.97,-11.11,-0.45,0.34,-0.16,0.28,
1.407,6.97,-11.11,-0.45,0.36,-0.17,0.19,
1.429,6.97,-11.11,-0.45,0.37,-0.18,0.09,
1.429,7.02,-11.44,-0.69,0.37,-0.18,0.09,
1.43,7.02,-11.44,-0.69,0.38,-0.18,-0.02,
1.43,7.02,-11.44,-0.69,0.38,-0.18,-0.13,
1.43,7.08,-11.79,-0.97,0.38,-0.18,-0.13,
1.43,7.08,-11.79,-0.97,0.39,-0.18,-0.24,
1.431,7.21,-12.11,-1.23,0.39,-0.18,-0.24,
1.431,7.21,-12.11,-1.23,0.39,-0.18,-0.36,
1.431,7.21,-12.11,-1.23,0.38,-0.18,-0.49,
1.431,7.21,-12.11,-1.23,0.38,-0.18,-0.62,
1.432,7.35,-12.37,-1.51,0.38,-0.18,-0.62,
1.432,7.35,-12.37,-1.51,0.37,-0.17,-0.75,
1.432,7.35,-12.37,-1.51,0.35,-0.15,-0.89,
1.432,7.49,-12.55,-1.78,0.35,-0.15,-0.89,
1.433,7.49,-12.55,-1.78,0.34,-0.13,-1.03,
1.434,7.49,-12.55,-1.78,0.32,-0.10,-1.18,
1.435,7.62,-12.67,-1.96,0.32,-0.10,-1.18,
1.437,7.62,-12.67,-1.96,0.31,-0.06,-1.34,
1.439,7.62,-12.67,-1.96,0.29,-0.01,-1.50,
1.439,7.73,-12.75,-2.07,0.29,-0.01,-1.50,
1.44,7.73,-12.75,-2.07,0.28,0.03,-1.66,
1.444,7.73,-12.75,-2.07,0.27,0.08,-1.82,
1.444,7.76,-12.79,-2.10,0.27,0.08,-1.82,
1.446,7.76,-12.79,-2.10,0.25,0.13,-1.99,
1.448,7.76,-12.79,-2.10,0.24,0.19,-2.16,
1.449,7.80,-12.79,-2.10,0.24,0.19,-2.16,
1.452,7.80,-12.79,-2.10,0.23,0.23,-2.33,
1.454,7.69,-12.83,-2.13,0.23,0.23,-2.33,
1.455,7.69,-12.83,-2.13,0.22,0.28,-2.50,
1.455,7.69,-12.83,-2.13,0.21,0.33,-2.67,
1.458,7.46,-12.95,-2.15,0.21,0.33,-2.67,
1.458,7.46,-12.95,-2.15,0.20,0.38,-2.84,
1.46,7.46,-12.95,-2.15,0.20,0.42,-3.02,
1.463,7.46,-12.95,-2.15,0.20,0.46,-3.20,
1.463,7.11,-13.21,-2.13,0.20,0.46,-3.20,
1.465,7.11,-13.21,-2.13,0.20,0.50,-3.38,
1.475,6.63,-13.58,-2.13,0.20,0.50,-3.38,
1.476,6.63,-13.58,-2.13,0.21,0.54,-3.56,
1.476,6.63,-13.58,-2.13,0.22,0.58,-3.74,
1.476,6.63,-13.58,-2.13,0.24,0.61,-3.92,
1.476,6.02,-14.14,-2.23,0.24,0.61,-3.92,
1.477,6.02,-14.14,-2.23,0.26,0.65,-4.11,
1.48,6.02,-14.14,-2.23,0.28,0.69,-4.31,
1.481,5.35,-14.80,-2.42,0.28,0.69,-4.31,
1.481,5.35,-14.80,-2.42,0.30,0.73,-4.50,
1.483,5.35,-14.80,-2.42,0.31,0.77,-4.70,
1.484,4.74,-15.42,-2.70,0.31,0.77,-4.70,
1.497,4.74,-15.42,-2.70,0.33,0.82,-4.89,
1.498,4.30,-15.90,-3.07,0.33,0.82,-4.89,
1.498,4.30,-15.90,-3.07,0.34,0.87,-5.09,
1.498,4.30,-15.90,-3.07,0.34,0.93,-5.29,
1.499,4.30,-15.90,-3.07,0.33,0.98,-5.48,
1.499,4.00,-16.28,-3.50,0.33,0.98,-5.48,
1.499,4.00,-16.28,-3.50,0.32,1.05,-5.68,
1.499,4.00,-16.28,-3.50,0.30,1.12,-5.88,
1.499,3.77,-16.55,-4.00,0.30,1.12,-5.88,
1.5,3.77,-16.55,-4.00,0.27,1.20,-6.08,
1.506,3.52,-16.87,-4.47,0.27,1.20,-6.08,
1.506,3.52,-16.87,-4.47,0.23,1.30,-6.28,
1.506,3.52,-16.87,-4.47,0.19,1.40,-6.49,
1.508,3.52,-16.87,-4.47,0.14,1.51,-6.70,
1.508,3.14,-17.31,-4.87,0.14,1.51,-6.70,
1.51,3.14,-17.31,-4.87,0.10,1.62,-6.92,
1.512,3.14,-17.31,-4.87,0.05,1.73,-7.14,
1.513,2.56,-17.85,-5.18,0.05,1.73,-7.14,
1.515,2.56,-17.85,-5.18,-0.00,1.84,-7.37,
1.518,2.56,-17.85,-5.18,-0.05,1.95,-7.60,
1.518,1.77,-18.43,-5.34,-0.05,1.95,-7.60,
1.52,1.77,-18.43,-5.34,-0.10,2.05,-7.83,
1.522,1.77,-18.43,-5.34,-0.15,2.15,-8.06,
1.523,0.78,-19.04,-5.38,-0.15,2.15,-8.06,
1.525,0.78,-19.04,-5.38,-0.20,2.23,-8.28,
1.527,0.78,-19.04,-5.38,-0.26,2.30,-8.50,
1.527,-0.43,-19.78,-5.38,-0.26,2.30,-8.50,
1.53,-0.43,-19.78,-5.38,-0.31,2.36,-8.71,
1.532,-0.43,-19.78,-5.38,-0.37,2.41,-8.92,
1.533,-1.85,-20.58,-5.26,-0.37,2.41,-8.92,
1.536,-1.85,-20.58,-5.26,-0.43,2.44,-9.12,
1.537,-1.85,-20.58,-5.26,-0.50,2.46,-9.32,
1.538,-3.46,-21.38,-4.92,-0.50,2.46,-9.32,
1.54,-3.46,-21.38,-4.92,-0.57,2.46,-9.50,
1.542,-3.46,-21.38,-4.92,-0.65,2.43,-9.67,
1.542,-5.19,-22.04,-4.23,-0.65,2.43,-9.67,
1.545,-5.19,-22.04,-4.23,-0.73,2.37,-9.83,
1.547,-5.19,-22.04,-4.23,-0.82,2.29,-9.97,
1.548,-7.13,-22.33,-3.29,-0.82,2.29,-9.97,
1.55,-7.13,-22.33,-3.29,-0.90,2.18,-10.10,
1.553,-9.35,-22.12,-2.29,-0.90,2.18,-10.10,
1.553,-9.35,-22.12,-2.29,-0.99,2.06,-10.19,
1.555,-9.35,-22.12,-2.29,-1.08,1.92,-10.26,
1.557,-9.35,-22.12,-2.29,-1.16,1.75,-10.31,
1.558,-11.56,-21.70,-1.27,-1.16,1.75,-10.31,
1.56,-11.56,-21.70,-1.27,-1.25,1.56,-10.32,
1.562,-11.56,-21.70,-1.27,-1.33,1.35,-10.30,
1.563,-13.59,-21.17,-0.26,-1.33,1.35,-10.30,
1.565,-13.59,-21.17,-0.26,-1.42,1.12,-10.25,
1.567,-13.59,-21.17,-0.26,-1.51,0.87,-10.18,
1.568,-15.33,-20.65,0.68,-1.51,0.87,-10.18,
1.574,-15.33,-20.65,0.68,-1.61,0.61,-10.09,
1.576,-16.76,-20.16,1.60,-1.61,0.61,-10.09,
1.608,-16.76,-20.16,1.60,-1.71,0.34,-9.98,
1.608,-16.76,-20.16,1.60,-1.82,0.05,-9.85,
1.608,-16.76,-20.16,1.60,-1.94,-0.24,-9.71,
1.609,-17.78,-19.72,2.48,-1.94,-0.24,-9.71,
1.609,-17.78,-19.72,2.48,-2.06,-0.54,-9.58,
1.61,-17.78,-19.72,2.48,-2.19,-0.85,-9.44,
1.611,-18.47,-19.44,3.36,-2.19,-0.85,-9.44,
1.611,-18.47,-19.44,3.36,-2.32,-1.17,-9.31,
1.612,-18.79,-19.36,4.28,-2.32,-1.17,-9.31,
1.612,-18.79,-19.36,4.28,-2.46,-1.50,-9.20,
1.613,-18.79,-19.36,4.28,-2.59,-1.84,-9.10,
1.613,-18.79,-19.36,4.28,-2.73,-2.18,-9.02,
1.614,-18.68,-19.32,5.13,-2.73,-2.18,-9.02,
1.615,-18.68,-19.32,5.13,-2.86,-2.51,-8.96,
1.615,-18.35,-19.09,5.76,-2.86,-2.51,-8.96,
1.615,-18.35,-19.09,5.76,-3.00,-2.83,-8.91,
1.616,-18.35,-19.09,5.76,-3.13,-3.14,-8.88,
1.616,-17.90,-18.69,6.09,-3.13,-3.14,-8.88,
1.617,-17.90,-18.69,6.09,-3.26,-3.43,-8.87,
1.617,-17.90,-18.69,6.09,-3.39,-3.69,-8.87,
1.618,-17.90,-18.69,6.09,-3.51,-3.93,-8.89,
1.618,-17.47,-18.15,6.21,-3.51,-3.93,-8.89,
1.619,-17.47,-18.15,6.21,-3.62,-4.15,-8.91,
1.619,-17.47,-18.15,6.21,-3.72,-4.34,-8.95,
1.62,-17.17,-17.53,6.19,-3.72,-4.34,-8.95,
1.621,-17.17,-17.53,6.19,-3.81,-4.50,-9.00,
1.621,-17.19,-16.91,6.02,-3.81,-4.50,-9.00,
1.622,-17.19,-16.91,6.02,-3.89,-4.62,-9.05,
1.623,-17.19,-16.91,6.02,-3.96,-4.71,-9.10,
1.623,-17.19,-16.91,6.02,-4.02,-4.77,-9.16,
1.624,-17.55,-16.13,5.84,-4.02,-4.77,-9.16,
1.629,-17.55,-16.13,5.84,-4.06,-4.79,-9.21,
1.63,-17.55,-16.13,5.84,-4.09,-4.79,-9.25,
1.63,-18.22,-15.05,5.88,-4.09,-4.79,-9.25,
1.63,-18.22,-15.05,5.88,-4.09,-4.77,-9.28,
1.632,-19.06,-13.66,6.14,-4.09,-4.77,-9.28,
1.632,-19.06,-13.66,6.14,-4.08,-4.73,-9.31,
1.634,-19.06,-13.66,6.14,-4.05,-4.67,-9.34,
1.638,-19.89,-11.96,6.70,-4.05,-4.67,-9.34,
1.639,-19.89,-11.96,6.70,-3.98,-4.57,-9.36,
1.64,-19.89,-11.96,6.70,-3.89,-4.44,-9.37,
1.641,-19.89,-11.96,6.70,-3.76,-4.28,-9.39,
1.642,-20.63,-10.02,7.50,-3.76,-4.28,-9.39,
1.644,-20.63,-10.02,7.50,-3.61,-4.07,-9.40,
1.647,-20.63,-10.02,7.50,-3.42,-3.83,-9.40,
1.647,-21.43,-7.78,8.49,-3.42,-3.83,-9.40,
1.649,-21.43,-7.78,8.49,-3.20,-3.56,-9.39,
1.653,-21.43,-7.78,8.49,-2.95,-3.28,-9.35,
1.653,-22.46,-5.30,9.49,-2.95,-3.28,-9.35,
1.655,-22.46,-5.30,9.49,-2.67,-2.97,-9.28,
1.656,-22.46,-5.30,9.49,-2.37,-2.66,-9.17,
1.656,-23.64,-2.58,10.49,-2.37,-2.66,-9.17,
1.659,-23.64,-2.58,10.49,-2.04,-2.36,-9.01,
1.661,-23.64,-2.58,10.49,-1.69,-2.06,-8.81,
1.661,-24.85,0.26,11.30,-1.69,-2.06,-8.81,
1.664,-24.85,0.26,11.30,-1.32,-1.75,-8.56,
1.666,-25.59,2.89,11.33,-1.32,-1.75,-8.56,
1.667,-25.59,2.89,11.33,-0.97,-1.40,-8.30,
1.67,-25.59,2.89,11.33,-0.63,-1.07,-8.01,
1.673,-25.59,2.89,11.33,-0.30,-0.78,-7.69,
1.673,-25.72,5.11,11.09,-0.30,-0.78,-7.69,
1.674,-25.72,5.11,11.09,0.03,-0.55,-7.34,
1.681,-25.72,5.11,11.09,0.36,-0.39,-6.95,
1.682,-25.40,6.80,10.42,0.36,-0.39,-6.95,
1.682,-24.77,8.02,9.43,0.36,-0.39,-6.95,
1.682,-24.77,8.02,9.43,0.69,-0.29,-6.52,
1.682,-24.77,8.02,9.43,1.01,-0.25,-6.05,
1.684,-24.77,8.02,9.43,1.34,-0.25,-5.53,
1.692,-23.85,8.68,8.10,1.34,-0.25,-5.53,
1.693,-23.85,8.68,8.10,1.66,-0.28,-4.98,
1.693,-23.85,8.68,8.10,1.97,-0.33,-4.40,
1.693,-23.85,8.68,8.10,2.25,-0.40,-3.80,
1.693,-22.61,8.76,6.43,2.25,-0.40,-3.80,
1.694,-22.61,8.76,6.43,2.51,-0.43,-3.19,
1.696,-22.61,8.76,6.43,2.73,-0.41,-2.59,
1.697,-21.18,8.53,4.23,2.73,-0.41,-2.59,
1.698,-21.18,8.53,4.23,2.91,-0.30,-2.04,
1.701,-21.18,8.53,4.23,3.03,-0.14,-1.53,
1.701,-19.00,8.00,1.82,3.03,-0.14,-1.53,
1.703,-19.00,8.00,1.82,3.11,0.02,-1.09,
1.707,-19.00,8.00,1.82,3.14,0.15,-0.70,
1.707,-16.28,7.34,0.10,3.14,0.15,-0.70,
1.708,-16.28,7.34,0.10,3.12,0.24,-0.35,
1.711,-16.28,7.34,0.10,3.06,0.29,-0.05,
1.711,-13.53,6.56,-1.49,3.06,0.29,-0.05,
1.713,-13.53,6.56,-1.49,2.95,0.31,0.21,
1.716,-13.53,6.56,-1.49,2.81,0.32,0.44,
1.716,-10.93,5.73,-3.15,2.81,0.32,0.44,
1.718,-10.93,5.73,-3.15,2.63,0.31,0.63,
1.721,-10.93,5.73,-3.15,2.41,0.30,0.79,
1.721,-8.39,4.96,-4.65,2.41,0.30,0.79,
1.723,-8.39,4.96,-4.65,2.16,0.30,0.91,
1.726,-6.09,4.42,-5.76,2.16,0.30,0.91,
1.726,-6.09,4.42,-5.76,1.89,0.30,0.99,
1.728,-6.09,4.42,-5.76,1.59,0.31,1.04,
1.731,-4.26,4.12,-6.43,1.59,0.31,1.04,
1.731,-4.26,4.12,-6.43,1.28,0.34,1.06,
1.733,-4.26,4.12,-6.43,0.96,0.39,1.04,
1.736,-2.91,3.92,-6.56,0.96,0.39,1.04,
1.736,-2.91,3.92,-6.56,0.64,0.44,1.00,
1.748,-2.91,3.92,-6.56,0.32,0.49,0.94,
1.749,-2.91,3.92,-6.56,0.00,0.54,0.86,
1.749,-1.97,3.69,-6.17,0.00,0.54,0.86,
1.749,-1.97,3.69,-6.17,-0.30,0.59,0.77,
1.749,-1.46,3.32,-5.28,-0.30,0.59,0.77,
1.749,-1.46,3.32,-5.28,-0.59,0.63,0.68,
1.749,-1.46,3.32,-5.28,-0.86,0.66,0.58,
1.751,-1.35,2.86,-4.05,-0.86,0.66,0.58,
1.751,-1.35,2.86,-4.05,-1.10,0.70,0.49,
1.754,-1.35,2.86,-4.05,-1.32,0.73,0.40,
1.756,-1.35,2.86,-4.05,-1.51,0.75,0.32,
1.756,-1.61,2.36,-2.65,-1.51,0.75,0.32,
1.758,-1.61,2.36,-2.65,-1.68,0.77,0.25,
1.76,-1.61,2.36,-2.65,-1.81,0.78,0.19,
1.76,-1.96,1.93,-1.07,-1.81,0.78,0.19,
1.763,-1.96,1.93,-1.07,-1.92,0.79,0.14,
1.765,-1.96,1.93,-1.07,-2.00,0.79,0.10,
1.766,-2.14,1.66,0.48,-2.00,0.79,0.10,
1.768,-2.14,1.66,0.48,-2.05,0.79,0.05,
1.772,-2.14,1.66,0.48,-2.08,0.78,0.02,
1.775,-2.15,1.57,2.05,-2.08,0.78,0.02,
1.775,-2.15,1.57,2.05,-2.07,0.77,-0.02,
1.776,-2.15,1.57,2.05,-2.04,0.76,-0.07,
1.776,-2.11,1.54,3.42,-2.04,0.76,-0.07,
1.777,-2.11,1.54,3.42,-1.98,0.73,-0.11,
1.781,-2.11,1.54,3.42,-1.90,0.71,-0.16,
1.781,-2.02,1.44,4.58,-1.90,0.71,-0.16,
1.782,-2.02,1.44,4.58,-1.79,0.67,-0.21,
1.787,-2.02,1.44,4.58,-1.67,0.62,-0.28,
1.787,-1.77,1.27,5.57,-1.67,0.62,-0.28,
1.79,-1.77,1.27,5.57,-1.52,0.57,-0.34,
1.79,-1.77,1.27,5.57,-1.37,0.51,-0.42,
1.79,-1.44,1.05,6.25,-1.37,0.51,-0.42,
1.792,-1.44,1.05,6.25,-1.20,0.46,-0.50,
1.795,-1.44,1.05,6.25,-1.02,0.41,-0.59,
1.795,-1.06,0.74,6.64,-1.02,0.41,-0.59,
1.797,-1.06,0.74,6.64,-0.83,0.36,-0.70,
1.8,-1.06,0.74,6.64,-0.64,0.31,-0.82,
1.8,-0.58,0.45,6.75,-0.64,0.31,-0.82,
1.803,-0.58,0.45,6.75,-0.44,0.28,-0.95,
1.806,-0.58,0.45,6.75,-0.25,0.24,-1.09,
1.807,-0.11,0.22,6.63,-0.25,0.24,-1.09,
1.808,-0.11,0.22,6.63,-0.05,0.22,-1.25,
1.811,-0.11,0.22,6.63,0.14,0.20,-1.42,
1.811,0.19,0.14,6.29,0.14,0.20,-1.42,
1.815,0.19,0.14,6.29,0.33,0.18,-1.60,
1.817,0.23,0.16,5.84,0.33,0.18,-1.60,
1.817,0.23,0.16,5.84,0.51,0.17,-1.79,
1.819,0.23,0.16,5.84,0.69,0.16,-1.98,
1.82,0.23,0.16,5.84,0.86,0.14,-2.19,
1.823,-0.02,0.30,5.23,0.86,0.14,-2.19,
1.825,-0.02,0.30,5.23,1.03,0.13,-2.39,
1.826,-0.56,0.56,4.51,1.03,0.13,-2.39,
1.826,-0.56,0.56,4.51,1.18,0.11,-2.59,
1.828,-0.56,0.56,4.51,1.33,0.10,-2.77,
1.831,-0.56,0.56,4.51,1.46,0.08,-2.95,
1.831,-1.39,0.95,3.71,1.46,0.08,-2.95,
1.833,-1.39,0.95,3.71,1.58,0.06,-3.12,
1.836,-2.43,1.42,2.82,1.58,0.06,-3.12,
1.838,-2.43,1.42,2.82,1.69,0.04,-3.28,
1.839,-2.43,1.42,2.82,1.79,0.02,-3.42,
1.84,-3.63,2.01,1.83,1.79,0.02,-3.42,
1.841,-3.63,2.01,1.83,1.86,-0.01,-3.54,
1.842,-3.63,2.01,1.83,1.91,-0.04,-3.64,
1.845,-4.88,2.65,0.82,1.91,-0.04,-3.64,
1.845,-4.88,2.65,0.82,1.95,-0.06,-3.73,
1.847,-4.88,2.65,0.82,1.97,-0.09,-3.81,
1.85,-4.88,2.65,0.82,1.96,-0.12,-3.86,
1.85,-6.15,3.32,-0.27,1.96,-0.12,-3.86,
1.853,-6.15,3.32,-0.27,1.94,-0.15,-3.90,
1.855,-7.35,3.94,-1.42,1.94,-0.15,-3.90,
1.856,-7.35,3.94,-1.42,1.89,-0.18,-3.93,
1.857,-7.35,3.94,-1.42,1.82,-0.22,-3.93,
1.86,-8.47,4.61,-2.56,1.82,-0.22,-3.93,
1.86,-8.47,4.61,-2.56,1.73,-0.25,-3.93,
1.862,-8.47,4.61,-2.56,1.63,-0.28,-3.91,
1.865,-9.48,5.32,-3.56,1.63,-0.28,-3.91,
1.865,-9.48,5.32,-3.56,1.51,-0.29,-3.87,
1.867,-9.48,5.32,-3.56,1.37,-0.31,-3.83,
1.872,-10.45,6.02,-4.35,1.37,-0.31,-3.83,
1.873,-10.45,6.02,-4.35,1.23,-0.31,-3.77,
1.877,-10.45,6.02,-4.35,1.08,-0.29,-3.70,
1.878,-11.34,6.61,-4.89,1.08,-0.29,-3.70,
1.879,-11.34,6.61,-4.89,0.92,-0.27,-3.63,
1.881,-11.34,6.61,-4.89,0.76,-0.22,-3.55,
1.881,-12.25,7.06,-5.13,0.76,-0.22,-3.55,
1.882,-12.25,7.06,-5.13,0.61,-0.17,-3.47,
1.883,-12.25,7.06,-5.13,0.45,-0.10,-3.38,
1.886,-13.05,7.44,-5.02,0.45,-0.10,-3.38,
1.886,-13.05,7.44,-5.02,0.31,-0.02,-3.29,
1.904,-13.05,7.44,-5.02,0.17,0.06,-3.19,
1.905,-13.05,7.44,-5.02,0.04,0.16,-3.08,
1.906,-13.81,7.80,-4.63,0.04,0.16,-3.08,
1.906,-13.81,7.80,-4.63,-0.07,0.27,-2.97,
1.907,-14.60,8.13,-4.02,-0.07,0.27,-2.97,
1.907,-14.60,8.13,-4.02,-0.17,0.38,-2.86,
1.908,-14.60,8.13,-4.02,-0.25,0.51,-2.74,
1.908,-15.39,8.37,-3.19,-0.25,0.51,-2.74,
1.909,-15.39,8.37,-3.19,-0.32,0.65,-2.62,
1.909,-15.39,8.37,-3.19,-0.37,0.79,-2.49,
1.932,-15.39,8.37,-3.19,-0.40,0.93,-2.35,
1.932,-16.09,8.57,-2.24,-0.40,0.93,-2.35,
1.933,-16.09,8.57,-2.24,-0.42,1.08,-2.22,
1.933,-16.09,8.57,-2.24,-0.42,1.23,-2.08,
1.933,-16.09,8.57,-2.24,-0.40,1.38,-1.93,
1.934,-16.76,8.71,-1.23,-0.40,1.38,-1.93,
1.934,-17.37,8.85,-0.17,-0.40,1.38,-1.93,
1.934,-17.37,8.85,-0.17,-0.37,1.53,-1.77,
1.935,-17.37,8.85,-0.17,-0.32,1.69,-1.61,
1.935,-17.37,8.85,-0.17,-0.26,1.85,-1.44,
1.935,-17.95,8.93,0.81,-0.26,1.85,-1.44,
1.936,-17.95,8.93,0.81,-0.19,2.01,-1.26,
1.936,-18.48,8.96,1.72,-0.19,2.01,-1.26,
1.936,-18.48,8.96,1.72,-0.12,2.16,-1.08,
1.937,-18.48,8.96,1.72,-0.03,2.30,-0.88,
1.937,-18.48,8.96,1.72,0.05,2.44,-0.67,
1.937,-18.96,8.86,2.52,0.05,2.44,-0.67,
1.938,-18.96,8.86,2.52,0.14,2.56,-0.45,
1.938,-19.43,8.53,3.11,0.14,2.56,-0.45,
1.938,-19.43,8.53,3.11,0.24,2.67,-0.23,
1.938,-19.43,8.53,3.11,0.33,2.78,-0.00,
1.94,-19.43,8.53,3.11,0.43,2.88,0.24,
1.945,-19.85,7.95,3.51,0.43,2.88,0.24,
1.946,-19.85,7.95,3.51,0.52,2.96,0.48,
1.946,-20.18,7.11,3.74,0.52,2.96,0.48,
1.947,-20.18,7.11,3.74,0.61,3.04,0.72,
1.947,-20.18,7.11,3.74,0.70,3.12,0.97,
1.949,-20.18,7.11,3.74,0.77,3.18,1.21,
1.95,-20.35,6.02,3.77,0.77,3.18,1.21,
1.952,-20.35,6.02,3.77,0.85,3.24,1.45,
1.955,-20.45,4.72,3.66,0.85,3.24,1.45,
1.956,-20.45,4.72,3.66,0.92,3.28,1.68,
1.956,-20.45,4.72,3.66,0.98,3.32,1.91,
1.959,-20.44,3.33,3.47,0.98,3.32,1.91,
1.959,-20.44,3.33,3.47,1.04,3.34,2.13,
1.961,-20.44,3.33,3.47,1.08,3.35,2.34,
1.964,-20.44,3.33,3.47,1.12,3.35,2.54,
1.965,-20.34,1.88,3.23,1.12,3.35,2.54,
1.966,-20.34,1.88,3.23,1.15,3.34,2.72,
1.975,-20.34,1.88,3.23,1.18,3.31,2.90,
1.976,-20.06,0.56,3.06,1.18,3.31,2.90,
1.976,-20.06,0.56,3.06,1.19,3.26,3.06,
1.976,-19.66,-0.51,2.96,1.19,3.26,3.06,
1.976,-19.66,-0.51,2.96,1.20,3.20,3.22,
1.977,-19.66,-0.51,2.96,1.21,3.13,3.36,
1.979,-19.14,-1.36,2.89,1.21,3.13,3.36,
1.979,-19.14,-1.36,2.89,1.21,3.04,3.49,
1.982,-19.14,-1.36,2.89,1.21,2.95,3.62,
1.984,-19.14,-1.36,2.89,1.21,2.84,3.73,
1.985,-18.42,-2.05,2.78,1.21,2.84,3.73,
1.993,-18.42,-2.05,2.78,1.20,2.74,3.83,
1.994,-18.42,-2.05,2.78,1.19,2.64,3.92,
1.994,-17.51,-2.55,2.57,1.19,2.64,3.92,
1.994,-17.51,-2.55,2.57,1.17,2.54,4.00,
1.994,-17.51,-2.55,2.57,1.15,2.45,4.07,
1.995,-16.52,-2.92,2.23,1.15,2.45,4.07,
1.996,-16.52,-2.92,2.23,1.12,2.36,4.13,
1.998,-16.52,-2.92,2.23,1.08,2.30,4.19,
1.999,-15.56,-3.27,1.73,1.08,2.30,4.19,
2.001,-15.56,-3.27,1.73,1.03,2.24,4.24,
2.004,-15.56,-3.27,1.73,0.98,2.20,4.28,
2.005,-14.70,-3.61,1.16,0.98,2.20,4.28,
2.007,-14.70,-3.61,1.16,0.92,2.16,4.32,
2.009,-14.70,-3.61,1.16,0.85,2.14,4.36,
2.009,-13.98,-3.90,0.65,0.85,2.14,4.36,
2.011,-13.98,-3.90,0.65,0.78,2.14,4.40,
2.013,-13.98,-3.90,0.65,0.69,2.14,4.44,
2.013,-13.51,-4.12,0.23,0.69,2.14,4.44,
2.017,-13.51,-4.12,0.23,0.61,2.16,4.48,
2.018,-13.51,-4.12,0.23,0.53,2.16,4.52,
2.018,-13.32,-4.41,0.03,0.53,2.16,4.52,
2.022,-13.32,-4.41,0.03,0.45,2.15,4.57,
2.023,-13.32,-4.41,0.03,0.37,2.13,4.62,
2.024,-13.23,-4.80,0.02,0.37,2.13,4.62,
2.026,-13.23,-4.80,0.02,0.30,2.09,4.67,
2.029,-13.23,-4.80,0.02,0.23,2.02,4.73,
2.029,-13.06,-5.20,0.09,0.23,2.02,4.73,
2.031,-13.06,-5.20,0.09,0.16,1.95,4.78,
2.033,-13.06,-5.20,0.09,0.10,1.85,4.84,
2.034,-12.69,-5.50,0.11,0.10,1.85,4.84,
2.036,-12.69,-5.50,0.11,0.03,1.76,4.90,
2.039,-12.09,-5.62,0.03,0.03,1.76,4.90,
2.039,-12.09,-5.62,0.03,-0.04,1.65,4.95,
2.041,-12.09,-5.62,0.03,-0.11,1.54,5.01,
2.043,-12.09,-5.62,0.03,-0.19,1.43,5.07,
2.043,-11.31,-5.58,-0.12,-0.19,1.43,5.07,
2.045,-11.31,-5.58,-0.12,-0.27,1.31,5.13,
2.048,-11.31,-5.58,-0.12,-0.36,1.19,5.19,
2.049,-10.46,-5.57,-0.33,-0.36,1.19,5.19,
2.05,-10.46,-5.57,-0.33,-0.45,1.06,5.24,
2.054,-10.46,-5.57,-0.33,-0.54,0.94,5.29,
2.054,-9.60,-5.61,-0.65,-0.54,0.94,5.29,
2.056,-9.60,-5.61,-0.65,-0.64,0.81,5.34,
2.058,-9.60,-5.61,-0.65,-0.73,0.69,5.38,
2.058,-8.69,-5.75,-1.03,-0.73,0.69,5.38,
2.063,-7.75,-5.90,-1.35,-0.73,0.69,5.38,
2.063,-7.75,-5.90,-1.35,-0.83,0.57,5.42,
2.064,-7.75,-5.90,-1.35,-0.93,0.45,5.45,
2.065,-7.75,-5.90,-1.35,-1.04,0.34,5.47,
2.068,-7.75,-5.90,-1.35,-1.15,0.25,5.49,
2.09,-6.80,-6.09,-1.70,-1.15,0.25,5.49,
2.09,-6.80,-6.09,-1.70,-1.26,0.16,5.51,
2.091,-6.80,-6.09,-1.70,-1.36,0.08,5.51,
2.091,-5.87,-6.38,-2.02,-1.36,0.08,5.51,
2.091,-5.87,-6.38,-2.02,-1.46,0.01,5.51,
2.091,-5.87,-6.38,-2.02,-1.56,-0.05,5.49,
2.092,-5.04,-6.67,-2.20,-1.56,-0.05,5.49,
2.092,-5.04,-6.67,-2.20,-1.66,-0.10,5.48,
2.092,-5.04,-6.67,-2.20,-1.74,-0.15,5.45,
2.092,-4.27,-6.94,-2.22,-1.74,-0.15,5.45,
2.093,-4.27,-6.94,-2.22,-1.81,-0.18,5.42,
2.093,-3.58,-7.10,-2.04,-1.81,-0.18,5.42,
2.093,-3.58,-7.10,-2.04,-1.88,-0.21,5.39,
2.093,-3.58,-7.10,-2.04,-1.94,-0.22,5.35,
2.115,-3.58,-7.10,-2.04,-1.98,-0.22,5.31,
2.115,-2.98,-7.17,-1.74,-1.98,-0.22,5.31,
2.116,-2.98,-7.17,-1.74,-2.01,-0.20,5.28,
2.116,-2.98,-7.17,-1.74,-2.03,-0.17,5.25,
2.116,-2.53,-7.15,-1.32,-2.03,-0.17,5.25,
2.116,-2.53,-7.15,-1.32,-2.03,-0.13,5.22,
2.117,-2.22,-7.12,-0.84,-2.03,-0.13,5.22,
2.117,-2.22,-7.12,-0.84,-2.02,-0.08,5.19,
2.117,-2.22,-7.12,-0.84,-2.00,-0.02,5.17,
2.117,-2.22,-7.12,-0.84,-1.96,0.05,5.15,
2.117,-2.02,-7.09,-0.29,-1.96,0.05,5.15,
2.118,-2.02,-7.09,-0.29,-1.91,0.13,5.13,
2.118,-2.02,-7.09,-0.29,-1.84,0.21,5.12,
2.118,-1.87,-7.10,0.24,-1.84,0.21,5.12,
2.118,-1.87,-7.10,0.24,-1.77,0.30,5.11,
2.118,-1.87,-7.10,0.24,-1.69,0.40,5.11,
2.119,-1.84,-7.19,0.76,-1.69,0.40,5.11,
2.124,-1.84,-7.19,0.76,-1.59,0.49,5.11,
2.125,-1.84,-7.19,0.76,-1.50,0.58,5.12,
2.125,-1.84,-7.32,1.30,-1.50,0.58,5.12,
2.127,-1.84,-7.32,1.30,-1.39,0.68,5.13,
2.129,-1.85,-7.49,1.85,-1.39,0.68,5.13,
2.13,-1.85,-7.49,1.85,-1.28,0.76,5.14,
2.13,-1.85,-7.49,1.85,-1.16,0.85,5.15,
2.134,-1.82,-7.65,2.35,-1.16,0.85,5.15,
2.134,-1.82,-7.65,2.35,-1.04,0.92,5.17,
2.136,-1.82,-7.65,2.35,-0.92,0.99,5.18,
2.137,-1.74,-7.78,2.75,-0.92,0.99,5.18,
2.138,-1.74,-7.78,2.75,-0.80,1.06,5.20,
2.141,-1.74,-7.78,2.75,-0.68,1.11,5.21,
2.142,-1.74,-7.78,2.75,-0.55,1.16,5.23,
2.143,-1.59,-7.87,3.07,-0.55,1.16,5.23,
2.145,-1.59,-7.87,3.07,-0.43,1.20,5.24,
2.148,-1.59,-7.87,3.07,-0.32,1.23,5.26,
2.148,-1.45,-7.96,3.27,-0.32,1.23,5.26,
2.15,-1.45,-7.96,3.27,-0.20,1.25,5.27,
2.152,-1.31,-8.04,3.37,-0.20,1.25,5.27,
2.152,-1.31,-8.04,3.37,-0.10,1.27,5.28,
2.155,-1.31,-8.04,3.37,-0.00,1.28,5.28,
2.157,-1.12,-8.17,3.32,-0.00,1.28,5.28,
2.157,-1.12,-8.17,3.32,0.09,1.28,5.29,
2.161,-1.12,-8.17,3.32,0.17,1.27,5.30,
2.163,-0.94,-8.34,3.24,0.17,1.27,5.30,
2.163,-0.94,-8.34,3.24,0.24,1.26,5.30,
2.165,-0.94,-8.34,3.24,0.30,1.23,5.30,
2.167,-0.94,-8.34,3.24,0.36,1.21,5.30,
2.167,-0.74,-8.52,3.12,0.36,1.21,5.30,
2.172,-0.74,-8.52,3.12,0.39,1.17,5.30,
2.179,-0.50,-8.64,2.93,0.39,1.17,5.30,
2.179,-0.50,-8.64,2.93,0.42,1.12,5.29,
2.179,-0.50,-8.64,2.93,0.45,1.08,5.29,
2.179,-0.50,-8.64,2.93,0.46,1.02,5.28,
2.18,-0.50,-8.64,2.93,0.46,0.97,5.27,
2.18,-0.30,-8.67,2.81,0.46,0.97,5.27,
2.182,-0.30,-8.67,2.81,0.45,0.90,5.27,
2.182,-0.18,-8.67,2.68,0.45,0.90,5.27,
2.184,-0.18,-8.67,2.68,0.44,0.83,5.26,
2.192,-0.18,-8.67,2.68,0.42,0.76,5.26,
2.193,-0.10,-8.68,2.61,0.42,0.76,5.26,
2.193,-0.10,-8.68,2.61,0.40,0.68,5.25,
2.193,-0.10,-8.68,2.61,0.38,0.59,5.25,
2.193,-0.05,-8.72,2.59,0.38,0.59,5.25,
2.195,-0.05,-8.72,2.59,0.34,0.50,5.25,
2.197,-0.05,-8.72,2.59,0.31,0.41,5.26,
2.197,-0.06,-8.83,2.53,0.31,0.41,5.26,
2.199,-0.06,-8.83,2.53,0.27,0.31,5.26,
2.202,-0.06,-8.83,2.53,0.22,0.21,5.27,
2.202,-0.10,-8.96,2.50,0.22,0.21,5.27,
2.204,-0.10,-8.96,2.50,0.18,0.09,5.27,
2.21,-0.10,-8.96,2.50,0.13,-0.03,5.28,
2.21,-0.17,-9.17,2.46,0.13,-0.03,5.28,
2.211,-0.17,-9.17,2.46,0.07,-0.16,5.29,
2.212,-0.17,-9.17,2.46,0.01,-0.30,5.29,
2.212,-0.22,-9.40,2.41,0.01,-0.30,5.29,
2.214,-0.22,-9.40,2.41,-0.05,-0.46,5.30,
2.217,-0.22,-9.40,2.41,-0.12,-0.62,5.30,
2.217,-0.20,-9.61,2.34,-0.12,-0.62,5.30,
2.219,-0.20,-9.61,2.34,-0.19,-0.79,5.30,
2.226,-0.20,-9.61,2.34,-0.26,-0.97,5.30,
2.226,-0.13,-9.79,2.23,-0.26,-0.97,5.30,
2.227,-0.13,-9.79,2.23,-0.34,-1.15,5.30,
2.227,-0.13,-9.79,2.23,-0.42,-1.34,5.29,
2.227,0.01,-9.97,2.07,-0.42,-1.34,5.29,
2.229,0.01,-9.97,2.07,-0.49,-1.52,5.29,
2.232,0.01,-9.97,2.07,-0.57,-1.71,5.27,
2.232,0.21,-10.09,1.87,-0.57,-1.71,5.27,
2.252,0.21,-10.09,1.87,-0.65,-1.90,5.26,
2.252,0.21,-10.09,1.87,-0.73,-2.07,5.24,
2.253,0.41,-10.24,1.57,-0.73,-2.07,5.24,
2.253,0.41,-10.24,1.57,-0.81,-2.25,5.23,
2.253,0.41,-10.24,1.57,-0.89,-2.41,5.21,
2.254,0.64,-10.39,1.23,-0.89,-2.41,5.21,
2.254,0.64,-10.39,1.23,-0.97,-2.57,5.18,
2.254,0.64,-10.39,1.23,-1.05,-2.72,5.16,
2.255,0.88,-10.56,0.89,-1.05,-2.72,5.16,
2.255,0.88,-10.56,0.89,-1.13,-2.86,5.14,
2.255,0.88,-10.56,0.89,-1.20,-2.98,5.11,
2.256,1.14,-10.66,0.59,-1.20,-2.98,5.11,
2.256,1.14,-10.66,0.59,-1.27,-3.10,5.08,
2.256,1.14,-10.66,0.59,-1.34,-3.21,5.05,
2.257,1.40,-10.74,0.26,-1.34,-3.21,5.05,
2.26,1.40,-10.74,0.26,-1.40,-3.31,5.02,
2.262,1.40,-10.74,0.26,-1.46,-3.40,4.99,
2.262,1.67,-10.77,-0.03,-1.46,-3.40,4.99,
2.264,1.67,-10.77,-0.03,-1.51,-3.48,4.96,
2.266,1.67,-10.77,-0.03,-1.56,-3.55,4.93,
2.266,1.93,-10.75,-0.30,-1.56,-3.55,4.93,
2.269,1.93,-10.75,-0.30,-1.61,-3.61,4.91,
2.274,1.93,-10.75,-0.30,-1.65,-3.67,4.88,
2.274,2.15,-10.74,-0.53,-1.65,-3.67,4.88,
2.274,2.15,-10.74,-0.53,-1.69,-3.71,4.85,
2.276,2.15,-10.74,-0.53,-1.72,-3.75,4.82,
2.277,2.37,-10.72,-0.76,-1.72,-3.75,4.82,
2.278,2.37,-10.72,-0.76,-1.74,-3.78,4.80,
2.281,2.37,-10.72,-0.76,-1.76,-3.80,4.77,
2.282,2.56,-10.74,-0.95,-1.76,-3.80,4.77,
2.284,2.56,-10.74,-0.95,-1.78,-3.81,4.75,
2.286,2.56,-10.74,-0.95,-1.79,-3.81,4.72,
2.289,2.74,-10.73,-1.11,-1.79,-3.81,4.72,
2.289,2.74,-10.73,-1.11,-1.80,-3.81,4.70,
2.293,2.74,-10.73,-1.11,-1.80,-3.80,4.68,
2.293,2.88,-10.74,-1.23,-1.80,-3.80,4.68,
2.293,2.88,-10.74,-1.23,-1.79,-3.78,4.65,
2.297,2.88,-10.74,-1.23,-1.78,-3.75,4.63,
2.297,3.03,-10.77,-1.37,-1.78,-3.75,4.63,
2.299,3.03,-10.77,-1.37,-1.76,-3.72,4.61,
2.302,3.03,-10.77,-1.37,-1.74,-3.68,4.59,
2.302,3.13,-10.77,-1.47,-1.74,-3.68,4.59,
2.309,3.13,-10.77,-1.47,-1.71,-3.64,4.57,
2.309,3.13,-10.77,-1.47,-1.68,-3.59,4.55,
2.309,3.22,-10.79,-1.60,-1.68,-3.59,4.55,
2.309,3.22,-10.79,-1.60,-1.65,-3.55,4.53,
2.312,3.22,-10.79,-1.60,-1.61,-3.49,4.51,
2.312,3.30,-10.83,-1.74,-1.61,-3.49,4.51,
2.313,3.30,-10.83,-1.74,-1.57,-3.43,4.49,
2.316,3.38,-10.86,-1.90,-1.57,-3.43,4.49,
2.316,3.38,-10.86,-1.90,-1.52,-3.36,4.47,
2.318,3.38,-10.86,-1.90,-1.48,-3.30,4.46,
2.321,3.46,-10.88,-2.05,-1.48,-3.30,4.46,
2.322,3.46,-10.88,-2.05,-1.43,-3.23,4.44,
2.327,3.46,-10.88,-2.05,-1.38,-3.15,4.42,
2.327,3.46,-10.88,-2.05,-1.32,-3.07,4.41,
2.328,3.55,-10.91,-2.23,-1.32,-3.07,4.41,
2.328,3.55,-10.91,-2.23,-1.27,-2.99,4.39,
2.331,3.55,-10.91,-2.23,-1.22,-2.91,4.38,
2.331,3.65,-10.92,-2.39,-1.22,-2.91,4.38,
2.333,3.65,-10.92,-2.39,-1.16,-2.82,4.36,
2.336,3.65,-10.92,-2.39,-1.11,-2.73,4.35,
2.336,3.76,-10.94,-2.54,-1.11,-2.73,4.35,
2.338,3.76,-10.94,-2.54,-1.05,-2.64,4.33,
2.343,3.76,-10.94,-2.54,-1.00,-2.54,4.32,
2.343,3.85,-10.99,-2.69,-1.00,-2.54,4.32,
2.344,3.85,-10.99,-2.69,-0.95,-2.44,4.30,
2.346,3.85,-10.99,-2.69,-0.89,-2.34,4.28,
2.346,3.93,-11.07,-2.87,-0.89,-2.34,4.28,
2.348,3.93,-11.07,-2.87,-0.83,-2.24,4.26,
2.351,3.93,-11.07,-2.87,-0.77,-2.16,4.23,
2.351,4.16,-11.01,-2.89,-0.77,-2.16,4.23,
2.353,4.16,-11.01,-2.89,-0.70,-2.08,4.20,
2.356,4.22,-11.22,-2.99,-0.70,-2.08,4.20,
2.356,4.22,-11.22,-2.99,-0.63,-1.99,4.17,
2.358,4.22,-11.22,-2.99,-0.57,-1.89,4.14,
2.361,4.23,-11.57,-3.14,-0.57,-1.89,4.14,
2.362,4.23,-11.57,-3.14,-0.51,-1.78,4.10,
2.363,4.23,-11.57,-3.14,-0.45,-1.67,4.06,
2.366,4.23,-11.57,-3.14,-0.39,-1.56,4.02,
2.366,4.33,-11.85,-3.30,-0.39,-1.56,4.02,
2.368,4.33,-11.85,-3.30,-0.34,-1.45,3.96,
2.373,4.55,-12.08,-3.43,-0.34,-1.45,3.96,
2.373,4.55,-12.08,-3.43,-0.29,-1.34,3.91,
2.377,4.55,-12.08,-3.43,-0.25,-1.24,3.84,
2.378,4.81,-12.21,-3.56,-0.25,-1.24,3.84,
2.379,4.81,-12.21,-3.56,-0.21,-1.14,3.77,
2.38,4.81,-12.21,-3.56,-0.17,-1.05,3.70,
2.381,5.09,-12.24,-3.61,-0.17,-1.05,3.70,
2.381,5.09,-12.24,-3.61,-0.13,-0.96,3.62,
2.383,5.09,-12.24,-3.61,-0.10,-0.88,3.54,
2.386,5.42,-12.16,-3.67,-0.10,-0.88,3.54,
2.386,5.42,-12.16,-3.67,-0.06,-0.79,3.45,
2.402,5.42,-12.16,-3.67,-0.03,-0.71,3.36,
2.402,5.42,-12.16,-3.67,-0.01,-0.63,3.26,
2.403,5.79,-12.08,-3.74,-0.01,-0.63,3.26,
2.403,5.79,-12.08,-3.74,0.01,-0.55,3.15,
2.403,5.79,-12.08,-3.74,0.03,-0.47,3.04,
2.403,6.18,-11.96,-3.80,0.03,-0.47,3.04,
2.404,6.18,-11.96,-3.80,0.04,-0.40,2.92,
2.427,6.18,-11.96,-3.80,0.05,-0.34,2.80,
2.427,6.54,-11.80,-3.91,0.05,-0.34,2.80,
2.428,6.54,-11.80,-3.91,0.05,-0.27,2.67,
2.428,6.87,-11.64,-4.05,0.05,-0.27,2.67,
2.428,6.87,-11.64,-4.05,0.05,-0.21,2.54,
2.428,6.87,-11.64,-4.05,0.03,-0.15,2.41,
2.429,7.18,-11.49,-4.16,0.03,-0.15,2.41,
2.429,7.18,-11.49,-4.16,0.02,-0.09,2.27,
2.429,7.18,-11.49,-4.16,-0.01,-0.04,2.12,
2.429,7.18,-11.49,-4.16,-0.04,0.01,1.97,
2.43,7.47,-11.39,-4.33,-0.04,0.01,1.97,
2.43,7.47,-11.39,-4.33,-0.07,0.05,1.81,
2.43,7.47,-11.39,-4.33,-0.11,0.09,1.65,
2.43,7.70,-11.35,-4.45,-0.11,0.09,1.65,
2.431,7.70,-11.35,-4.45,-0.16,0.12,1.48,
2.431,7.70,-11.35,-4.45,-0.21,0.15,1.31,
2.431,7.93,-11.34,-4.52,-0.21,0.15,1.31,
2.431,7.93,-11.34,-4.52,-0.26,0.17,1.13,
2.432,7.93,-11.34,-4.52,-0.32,0.19,0.94,
2.432,8.14,-11.35,-4.52,-0.32,0.19,0.94,
2.432,8.14,-11.35,-4.52,-0.38,0.21,0.74,
2.435,8.14,-11.35,-4.52,-0.44,0.22,0.55,
2.436,8.18,-11.32,-4.51,-0.44,0.22,0.55,
2.44,8.18,-11.32,-4.51,-0.50,0.24,0.34,
2.44,8.13,-11.31,-4.41,-0.50,0.24,0.34,
2.441,8.13,-11.31,-4.41,-0.56,0.25,0.14,
2.444,8.13,-11.31,-4.41,-0.61,0.26,-0.07,
2.445,8.13,-11.31,-4.41,-0.67,0.27,-0.28,
2.446,7.93,-11.35,-4.32,-0.67,0.27,-0.28,
2.452,7.51,-11.43,-4.30,-0.67,0.27,-0.28,
2.452,7.51,-11.43,-4.30,-0.73,0.27,-0.50,
2.453,7.51,-11.43,-4.30,-0.78,0.28,-0.71,
2.453,7.51,-11.43,-4.30,-0.83,0.28,-0.92,
2.456,7.51,-11.43,-4.30,-0.89,0.29,-1.12,
2.456,6.89,-11.60,-4.30,-0.89,0.29,-1.12,
2.458,6.89,-11.60,-4.30,-0.94,0.29,-1.32,
2.46,6.89,-11.60,-4.30,-0.99,0.30,-1.52,
2.46,6.19,-11.86,-4.39,-0.99,0.30,-1.52,
2.463,6.19,-11.86,-4.39,-1.04,0.31,-1.70,
2.465,6.19,-11.86,-4.39,-1.09,0.33,-1.88,
2.465,5.52,-12.16,-4.50,-1.09,0.33,-1.88,
2.467,5.52,-12.16,-4.50,-1.15,0.33,-2.05,
2.47,5.52,-12.16,-4.50,-1.21,0.35,-2.21,
2.471,4.87,-12.51,-4.68,-1.21,0.35,-2.21,
2.474,4.87,-12.51,-4.68,-1.28,0.36,-2.37,
2.479,4.87,-12.51,-4.68,-1.35,0.38,-2.52,
2.48,4.21,-12.85,-4.92,-1.35,0.38,-2.52,
2.48,4.21,-12.85,-4.92,-1.43,0.41,-2.66,
2.48,4.21,-12.85,-4.92,-1.52,0.45,-2.80,
2.48,3.50,-13.15,-5.21,-1.52,0.45,-2.80,
2.482,3.50,-13.15,-5.21,-1.61,0.49,-2.94,
2.486,3.50,-13.15,-5.21,-1.71,0.54,-3.07,
2.486,2.80,-13.44,-5.48,-1.71,0.54,-3.07,
2.502,2.80,-13.44,-5.48,-1.81,0.60,-3.20,
2.502,2.80,-13.44,-5.48,-1.92,0.68,-3.32,
2.503,2.12,-13.70,-5.70,-1.92,0.68,-3.32,
2.503,2.12,-13.70,-5.70,-2.03,0.76,-3.44,
2.503,2.12,-13.70,-5.70,-2.14,0.85,-3.56,
2.504,1.45,-13.98,-5.84,-2.14,0.85,-3.56,
2.504,1.45,-13.98,-5.84,-2.26,0.96,-3.68,
2.504,0.79,-14.26,-5.84,-2.26,0.96,-3.68,
2.504,0.79,-14.26,-5.84,-2.37,1.07,-3.79,
2.505,0.79,-14.26,-5.84,-2.48,1.19,-3.91,
2.505,0.79,-14.26,-5.84,-2.59,1.31,-4.02,
2.506,0.15,-14.52,-5.74,-2.59,1.31,-4.02,
2.507,0.15,-14.52,-5.74,-2.70,1.45,-4.13,
2.51,0.15,-14.52,-5.74,-2.80,1.59,-4.25,
2.51,-0.42,-14.73,-5.45,-2.80,1.59,-4.25,
2.512,-0.42,-14.73,-5.45,-2.89,1.73,-4.36,
2.514,-0.42,-14.73,-5.45,-2.97,1.88,-4.48,
2.515,-0.95,-14.97,-5.09,-2.97,1.88,-4.48,
2.517,-0.95,-14.97,-5.09,-3.04,2.04,-4.60,
2.523,-1.54,-15.20,-4.65,-3.04,2.04,-4.60,
2.524,-1.54,-15.20,-4.65,-3.10,2.20,-4.73,
2.524,-1.54,-15.20,-4.65,-3.15,2.36,-4.86,
2.525,-2.16,-15.44,-4.05,-3.15,2.36,-4.86,
2.525,-2.16,-15.44,-4.05,-3.19,2.53,-5.00,
2.527,-2.16,-15.44,-4.05,-3.21,2.70,-5.14,
2.529,-2.85,-15.62,-3.34,-3.21,2.70,-5.14,
2.53,-2.85,-15.62,-3.34,-3.21,2.86,-5.29,
2.532,-2.85,-15.62,-3.34,-3.20,3.02,-5.45,
2.535,-2.85,-15.62,-3.34,-3.17,3.18,-5.60,
2.535,-3.63,-15.71,-2.48,-3.17,3.18,-5.60,
2.536,-3.63,-15.71,-2.48,-3.12,3.33,-5.76,
2.54,-3.63,-15.71,-2.48,-3.06,3.48,-5.92,
2.54,-4.52,-15.70,-1.58,-3.06,3.48,-5.92,
2.541,-4.52,-15.70,-1.58,-2.97,3.63,-6.08,
2.544,-4.52,-15.70,-1.58,-2.87,3.77,-6.23,
2.544,-5.50,-15.69,-0.66,-2.87,3.77,-6.23,
2.546,-5.50,-15.69,-0.66,-2.75,3.89,-6.38,
2.549,-5.50,-15.69,-0.66,-2.62,4.01,-6.52,
2.549,-6.48,-15.61,0.26,-2.62,4.01,-6.52,
2.551,-6.48,-15.61,0.26,-2.47,4.11,-6.66,
2.555,-7.47,-15.44,1.03,-2.47,4.11,-6.66,
2.557,-7.47,-15.44,1.03,-2.31,4.20,-6.79,
2.558,-7.47,-15.44,1.03,-2.14,4.27,-6.91,
2.559,-7.47,-15.44,1.03,-1.96,4.32,-7.04,
2.559,-8.40,-15.05,1.62,-1.96,4.32,-7.04,
2.561,-8.40,-15.05,1.62,-1.77,4.36,-7.15,
2.565,-9.32,-14.66,2.14,-1.77,4.36,-7.15,
2.588,-9.32,-14.66,2.14,-1.58,4.36,-7.26,
2.588,-9.32,-14.66,2.14,-1.39,4.34,-7.35,
2.588,-9.32,-14.66,2.14,-1.19,4.28,-7.43,
2.589,-10.19,-14.18,2.53,-1.19,4.28,-7.43,
2.589,-10.19,-14.18,2.53,-0.99,4.21,-7.49,
2.589,-10.19,-14.18,2.53,-0.80,4.12,-7.54,
2.59,-10.95,-13.49,2.80,-0.80,4.12,-7.54,
2.59,-10.95,-13.49,2.80,-0.61,4.02,-7.57,
2.59,-11.61,-12.65,2.96,-0.61,4.02,-7.57,
2.591,-11.61,-12.65,2.96,-0.43,3.92,-7.59,
2.591,-11.61,-12.65,2.96,-0.26,3.81,-7.60,
2.591,-11.61,-12.65,2.96,-0.10,3.70,-7.59,
2.592,-12.18,-11.77,3.03,-0.10,3.70,-7.59,
2.592,-12.18,-11.77,3.03,0.04,3.59,-7.59,
2.592,-12.58,-10.89,3.03,0.04,3.59,-7.59,
2.592,-12.58,-10.89,3.03,0.16,3.48,-7.57,
2.593,-12.58,-10.89,3.03,0.27,3.36,-7.55,
2.596,-12.80,-10.02,2.95,0.27,3.36,-7.55,
2.597,-12.80,-10.02,2.95,0.36,3.24,-7.52,
2.597,-12.80,-10.02,2.95,0.44,3.11,-7.48,
2.599,-12.80,-10.02,2.95,0.50,2.97,-7.45,
2.6,-12.88,-9.18,2.78,0.50,2.97,-7.45,
2.602,-12.88,-9.18,2.78,0.55,2.83,-7.41,
2.618,-12.88,-8.37,2.57,0.55,2.83,-7.41,
2.621,-12.88,-8.37,2.57,0.59,2.69,-7.37,
2.621,-12.88,-8.37,2.57,0.61,2.54,-7.33,
2.621,-12.88,-8.37,2.57,0.63,2.40,-7.29,
2.622,-12.69,-7.62,2.36,0.63,2.40,-7.29,
2.622,-12.69,-7.62,2.36,0.64,2.27,-7.25,
2.625,-12.34,-6.81,2.24,0.64,2.27,-7.25,
2.626,-12.34,-6.81,2.24,0.65,2.14,-7.22,
2.626,-12.34,-6.81,2.24,0.64,2.02,-7.18,
2.627,-11.87,-5.95,2.17,0.64,2.02,-7.18,
2.627,-11.87,-5.95,2.17,0.64,1.92,-7.15,
2.627,-11.87,-5.95,2.17,0.64,1.83,-7.12,
2.627,-11.39,-5.00,2.13,0.64,1.83,-7.12,
2.627,-11.39,-5.00,2.13,0.63,1.75,-7.10,
2.628,-11.39,-5.00,2.13,0.63,1.68,-7.07,
2.629,-10.90,-4.04,2.13,0.63,1.68,-7.07,
2.631,-10.90,-4.04,2.13,0.63,1.62,-7.06,
2.639,-10.90,-4.04,2.13,0.64,1.57,-7.05,
2.639,-10.90,-4.04,2.13,0.65,1.53,-7.04,
2.639,-10.90,-4.04,2.13,0.66,1.51,-7.03,
2.639,-10.48,-3.06,2.22,0.66,1.51,-7.03,
2.639,-10.48,-3.06,2.22,0.69,1.48,-7.04,
2.639,-10.06,-2.09,2.38,0.69,1.48,-7.04,
2.642,-10.06,-2.09,2.38,0.72,1.47,-7.04,
2.644,-10.06,-2.09,2.38,0.76,1.46,-7.04,
2.644,-9.72,-1.16,2.57,0.76,1.46,-7.04,
2.646,-9.72,-1.16,2.57,0.80,1.46,-7.05,
2.649,-9.48,-0.35,2.79,0.80,1.46,-7.05,
2.65,-9.48,-0.35,2.79,0.84,1.46,-7.06,
2.653,-9.48,-0.35,2.79,0.89,1.46,-7.06,
2.653,-9.48,-0.35,2.79,0.94,1.47,-7.07,
2.653,-9.41,0.35,2.95,0.94,1.47,-7.07,
2.659,-9.41,0.35,2.95,0.99,1.47,-7.06,
2.66,-9.41,0.35,2.95,1.04,1.47,-7.06,
2.66,-9.54,0.93,3.12,1.04,1.47,-7.06,
2.661,-9.54,0.93,3.12,1.09,1.48,-7.04,
2.665,-9.91,1.50,3.32,1.09,1.48,-7.04,
2.665,-9.91,1.50,3.32,1.14,1.47,-7.01,
2.667,-9.91,1.50,3.32,1.18,1.47,-6.96,
2.668,-9.91,1.50,3.32,1.23,1.45,-6.90,
2.669,-10.47,2.05,3.58,1.23,1.45,-6.90,
2.671,-10.47,2.05,3.58,1.28,1.43,-6.81,
2.675,-10.47,2.05,3.58,1.33,1.39,-6.70,
2.675,-11.02,2.62,3.97,1.33,1.39,-6.70,
2.675,-11.02,2.62,3.97,1.39,1.35,-6.58,
2.678,-11.02,2.62,3.97,1.44,1.29,-6.43,
2.678,-11.51,3.21,4.41,1.44,1.29,-6.43,
2.68,-11.51,3.21,4.41,1.50,1.21,-6.26,
2.683,-11.91,3.78,4.77,1.50,1.21,-6.26,
2.684,-11.91,3.78,4.77,1.57,1.12,-6.08,
2.687,-11.91,3.78,4.77,1.64,1.01,-5.88,
2.693,-12.20,4.20,4.97,1.64,1.01,-5.88,
2.694,-12.20,4.20,4.97,1.71,0.89,-5.66,
2.694,-12.20,4.20,4.97,1.78,0.76,-5.44,
2.694,-12.38,4.42,5.04,1.78,0.76,-5.44,
2.7,-12.38,4.42,5.04,1.86,0.63,-5.21,
2.701,-12.38,4.42,5.04,1.94,0.48,-4.97,
2.701,-12.38,4.42,5.04,2.02,0.34,-4.74,
2.701,-12.33,4.48,4.89,2.02,0.34,-4.74,
2.701,-12.33,4.48,4.89,2.10,0.21,-4.50,
2.704,-12.33,4.48,4.89,2.18,0.07,-4.27,
2.704,-12.08,4.44,4.57,2.18,0.07,-4.27,
2.705,-12.08,4.44,4.57,2.26,-0.05,-4.04,
2.714,-11.64,4.38,4.13,2.26,-0.05,-4.04,
2.714,-11.64,4.38,4.13,2.35,-0.18,-3.82,
2.714,-11.64,4.38,4.13,2.43,-0.30,-3.61,
2.714,-11.64,4.38,4.13,2.51,-0.40,-3.41,
2.715,-10.98,4.36,3.49,2.51,-0.40,-3.41,
2.715,-10.98,4.36,3.49,2.58,-0.51,-3.22,
2.717,-10.98,4.36,3.49,2.65,-0.60,-3.04,
2.718,-10.17,4.37,2.74,2.65,-0.60,-3.04,
2.72,-10.17,4.37,2.74,2.72,-0.69,-2.88,
2.723,-9.26,4.38,1.89,2.72,-0.69,-2.88,
2.724,-9.26,4.38,1.89,2.78,-0.78,-2.73,
2.725,-9.26,4.38,1.89,2.83,-0.86,-2.59,
2.727,-8.31,4.34,0.94,2.83,-0.86,-2.59,
2.728,-8.31,4.34,0.94,2.87,-0.93,-2.47,
2.738,-8.31,4.34,0.94,2.89,-0.99,-2.36,
2.738,-8.31,4.34,0.94,2.90,-1.04,-2.26,
2.738,-7.43,4.17,-0.09,2.90,-1.04,-2.26,
2.738,-7.43,4.17,-0.09,2.90,-1.08,-2.18,
2.739,-6.57,3.88,-1.16,2.90,-1.08,-2.18,
2.739,-6.57,3.88,-1.16,2.88,-1.11,-2.11,
2.743,-6.57,3.88,-1.16,2.85,-1.14,-2.06,
2.744,-6.57,3.88,-1.16,2.79,-1.15,-2.02,
2.744,-5.76,3.61,-2.19,2.79,-1.15,-2.02,
2.745,-5.76,3.61,-2.19,2.72,-1.16,-1.99,
2.747,-5.76,3.61,-2.19,2.63,-1.15,-1.98,
2.747,-5.02,3.44,-3.16,2.63,-1.15,-1.98,
2.75,-5.02,3.44,-3.16,2.53,-1.13,-1.97,
2.752,-5.02,3.44,-3.16,2.41,-1.11,-1.96,
2.752,-4.38,3.40,-4.01,2.41,-1.11,-1.96,
2.756,-4.38,3.40,-4.01,2.28,-1.07,-1.97,
2.757,-4.38,3.40,-4.01,2.14,-1.03,-1.98,
2.757,-3.84,3.45,-4.63,2.14,-1.03,-1.98,
2.76,-3.84,3.45,-4.63,1.98,-0.98,-1.99,
2.762,-3.84,3.45,-4.63,1.83,-0.94,-2.01,
2.763,-3.43,3.59,-5.03,1.83,-0.94,-2.01,
2.765,-3.43,3.59,-5.03,1.67,-0.89,-2.03,
2.768,-3.43,3.59,-5.03,1.51,-0.85,-2.06,
2.768,-3.15,3.73,-5.15,1.51,-0.85,-2.06,
2.769,-3.15,3.73,-5.15,1.36,-0.81,-2.09,
2.783,-3.15,3.73,-5.15,1.21,-0.76,-2.12,
2.784,-2.99,3.89,-4.94,1.21,-0.76,-2.12,
2.784,-2.99,3.89,-4.94,1.08,-0.72,-2.14,
2.784,-2.99,3.89,-4.94,0.95,-0.69,-2.17,
2.784,-3.00,4.04,-4.52,0.95,-0.69,-2.17,
2.784,-3.00,4.04,-4.52,0.84,-0.65,-2.20,
2.784,-3.17,4.08,-3.99,0.84,-0.65,-2.20,
2.787,-3.17,4.08,-3.99,0.74,-0.61,-2.22,
2.787,-3.17,4.08,-3.99,0.65,-0.57,-2.25,
2.787,-3.17,4.08,-3.99,0.57,-0.54,-2.27,
2.787,-3.49,4.03,-3.41,0.57,-0.54,-2.27,
2.789,-3.49,4.03,-3.41,0.51,-0.52,-2.29,
2.792,-3.49,4.03,-3.41,0.46,-0.51,-2.30,
2.792,-3.96,3.89,-2.91,0.46,-0.51,-2.30,
2.794,-3.96,3.89,-2.91,0.41,-0.51,-2.32,
2.797,-3.96,3.89,-2.91,0.38,-0.51,-2.33,
2.797,-4.49,3.68,-2.55,0.38,-0.51,-2.33,
2.799,-4.49,3.68,-2.55,0.35,-0.52,-2.34,
2.802,-4.49,3.68,-2.55,0.33,-0.53,-2.36,
2.802,-5.02,3.45,-2.27,0.33,-0.53,-2.36,
2.804,-5.02,3.45,-2.27,0.32,-0.56,-2.37,
2.807,-5.02,3.45,-2.27,0.31,-0.60,-2.38,
2.807,-5.62,3.18,-2.11,0.31,-0.60,-2.38,
2.81,-5.62,3.18,-2.11,0.31,-0.64,-2.39,
2.812,-5.62,3.18,-2.11,0.32,-0.68,-2.40,
2.812,-6.30,2.91,-2.06,0.32,-0.68,-2.40,
2.814,-6.30,2.91,-2.06,0.33,-0.73,-2.42,
2.817,-6.92,2.68,-2.13,0.33,-0.73,-2.42,
2.817,-6.92,2.68,-2.13,0.33,-0.79,-2.44,
2.819,-6.92,2.68,-2.13,0.34,-0.86,-2.45,
2.822,-6.92,2.68,-2.13,0.35,-0.94,-2.47,
2.823,-7.48,2.49,-2.28,0.35,-0.94,-2.47,
2.824,-7.48,2.49,-2.28,0.36,-1.01,-2.48,
2.828,-7.48,2.49,-2.28,0.36,-1.08,-2.49,
2.828,-7.89,2.37,-2.58,0.36,-1.08,-2.49,
2.83,-7.89,2.37,-2.58,0.36,-1.14,-2.51,
2.832,-7.89,2.37,-2.58,0.35,-1.18,-2.52,
2.833,-8.12,2.29,-3.00,0.35,-1.18,-2.52,
2.835,-8.12,2.29,-3.00,0.33,-1.22,-2.52,
2.837,-8.12,2.29,-3.00,0.32,-1.23,-2.53,
2.838,-8.28,2.20,-3.49,0.32,-1.23,-2.53,
2.839,-8.28,2.20,-3.49,0.29,-1.23,-2.54,
2.842,-8.28,2.20,-3.49,0.27,-1.21,-2.56,
2.842,-8.42,2.01,-4.02,0.27,-1.21,-2.56,
2.844,-8.42,2.01,-4.02,0.24,-1.17,-2.57,
2.846,-8.42,2.01,-4.02,0.21,-1.11,-2.60,
2.847,-8.61,1.76,-4.50,0.21,-1.11,-2.60,
2.849,-8.61,1.76,-4.50,0.19,-1.05,-2.63,
2.851,-8.61,1.76,-4.50,0.16,-0.98,-2.67,
2.852,-8.87,1.39,-4.83,0.16,-0.98,-2.67,
2.854,-8.87,1.39,-4.83,0.13,-0.91,-2.71,
2.857,-8.87,1.39,-4.83,0.11,-0.83,-2.76,
2.858,-9.17,1.02,-5.02,0.11,-0.83,-2.76,
2.859,-9.17,1.02,-5.02,0.08,-0.75,-2.82,
2.862,-9.17,1.02,-5.02,0.06,-0.67,-2.88,
2.862,-9.50,0.78,-5.08,0.06,-0.67,-2.88,
2.864,-9.50,0.78,-5.08,0.05,-0.58,-2.94,
2.867,-9.50,0.78,-5.08,0.04,-0.48,-2.99,
2.867,-9.96,0.67,-5.06,0.04,-0.48,-2.99,
2.869,-9.96,0.67,-5.06,0.03,-0.38,-3.05,
2.875,-10.55,0.71,-4.94,0.03,-0.38,-3.05,
2.876,-10.55,0.71,-4.94,0.03,-0.28,-3.10,
2.876,-10.55,0.71,-4.94,0.04,-0.17,-3.15,
2.88,-11.21,0.91,-4.76,0.04,-0.17,-3.15,
2.881,-11.21,0.91,-4.76,0.05,-0.05,-3.19,
2.882,-11.21,0.91,-4.76,0.08,0.07,-3.22,
2.883,-11.21,0.91,-4.76,0.11,0.20,-3.25,
2.884,-11.90,1.18,-4.56,0.11,0.20,-3.25,
2.884,-11.90,1.18,-4.56,0.14,0.33,-3.26,
2.886,-11.90,1.18,-4.56,0.18,0.47,-3.26,
2.887,-12.65,1.45,-4.40,0.18,0.47,-3.26,
2.899,-12.65,1.45,-4.40,0.22,0.61,-3.25,
2.899,-12.65,1.45,-4.40,0.27,0.76,-3.23,
2.899,-13.44,1.66,-4.24,0.27,0.76,-3.23,
2.9,-13.44,1.66,-4.24,0.31,0.92,-3.20,
2.915,-14.32,1.85,-4.11,0.31,0.92,-3.20,
2.916,-14.32,1.85,-4.11,0.36,1.07,-3.16,
2.916,-14.32,1.85,-4.11,0.41,1.24,-3.10,
2.916,-15.24,1.92,-4.05,0.41,1.24,-3.10,
2.917,-15.24,1.92,-4.05,0.46,1.40,-3.03,
2.917,-15.24,1.92,-4.05,0.50,1.57,-2.94,
2.917,-15.24,1.92,-4.05,0.54,1.75,-2.84,
2.918,-16.22,1.85,-4.07,0.54,1.75,-2.84,
2.918,-16.22,1.85,-4.07,0.57,1.92,-2.72,
2.919,-17.29,1.59,-4.14,0.57,1.92,-2.72,
2.919,-17.29,1.59,-4.14,0.60,2.09,-2.59,
2.919,-17.29,1.59,-4.14,0.63,2.28,-2.45,
2.92,-17.29,1.59,-4.14,0.65,2.46,-2.29,
2.92,-18.33,1.24,-4.26,0.65,2.46,-2.29,
2.92,-18.33,1.24,-4.26,0.65,2.65,-2.12,
2.922,-18.33,1.24,-4.26,0.65,2.85,-1.94,
2.922,-19.11,1.01,-4.41,0.65,2.85,-1.94,
2.924,-19.11,1.01,-4.41,0.63,3.05,-1.76,
2.926,-19.84,0.77,-4.56,0.63,3.05,-1.76,
2.927,-19.84,0.77,-4.56,0.61,3.25,-1.58,
2.928,-19.84,0.77,-4.56,0.58,3.44,-1.39,
2.931,-19.84,0.77,-4.56,0.54,3.62,-1.21,
2.931,-20.40,0.45,-4.54,0.54,3.62,-1.21,
2.933,-20.40,0.45,-4.54,0.49,3.77,-1.01,
2.936,-20.40,0.45,-4.54,0.44,3.91,-0.81,
2.936,-20.84,0.14,-4.42,0.44,3.91,-0.81,
2.939,-20.84,0.14,-4.42,0.37,4.04,-0.63,
2.943,-20.84,0.14,-4.42,0.31,4.18,-0.48,
2.943,-20.15,1.47,-3.95,0.31,4.18,-0.48,
2.944,-20.15,1.47,-3.95,0.26,4.33,-0.39,
2.946,-20.15,1.47,-3.95,0.20,4.47,-0.30,
2.946,-18.94,2.00,-3.43,0.20,4.47,-0.30,
2.948,-18.94,2.00,-3.43,0.14,4.58,-0.19,
2.953,-18.54,1.02,-3.19,0.14,4.58,-0.19,
2.954,-18.54,1.02,-3.19,0.08,4.65,-0.06,
2.954,-18.54,1.02,-3.19,0.01,4.70,0.05,
2.959,-17.67,0.85,-3.10,0.01,4.70,0.05,
2.96,-17.67,0.85,-3.10,-0.07,4.72,0.12,
2.961,-17.67,0.85,-3.10,-0.15,4.72,0.17,
2.962,-17.67,0.85,-3.10,-0.25,4.67,0.21,
2.962,-17.11,0.38,-2.81,-0.25,4.67,0.21,
2.963,-17.11,0.38,-2.81,-0.35,4.58,0.26,
2.966,-16.77,-0.41,-2.70,-0.35,4.58,0.26,
2.967,-16.77,-0.41,-2.70,-0.46,4.48,0.33,
2.968,-16.77,-0.41,-2.70,-0.58,4.37,0.43,
2.971,-16.77,-0.41,-2.70,-0.70,4.27,0.55,
2.971,-16.68,-1.38,-2.86,-0.70,4.27,0.55,
2.98,-16.68,-1.38,-2.86,-0.83,4.19,0.69,
2.982,-16.70,-2.32,-3.04,-0.83,4.19,0.69,
2.983,-16.70,-2.32,-3.04,-0.96,4.13,0.86,
2.983,-16.70,-2.32,-3.04,-1.11,4.05,1.07,
2.984,-16.72,-2.88,-2.88,-1.11,4.05,1.07,
2.985,-16.72,-2.88,-2.88,-1.29,3.92,1.32,
2.986,-16.72,-2.88,-2.88,-1.49,3.76,1.61,
2.987,-16.72,-2.88,-2.88,-1.72,3.55,1.94,
2.987,-16.82,-3.34,-2.80,-1.72,3.55,1.94,
2.988,-16.82,-3.34,-2.80,-1.98,3.30,2.29,
3.006,-16.82,-3.34,-2.80,-2.25,3.01,2.66,
3.007,-16.73,-3.90,-2.81,-2.25,3.01,2.66,
3.007,-16.73,-3.90,-2.81,-2.51,2.70,3.03,
3.007,-16.73,-3.90,-2.81,-2.77,2.35,3.39,
3.007,-16.18,-4.50,-2.54,-2.77,2.35,3.39,
3.007,-16.18,-4.50,-2.54,-3.00,1.98,3.71,
3.008,-16.18,-4.50,-2.54,-3.22,1.61,3.99,
3.008,-14.61,-4.17,-1.91,-3.22,1.61,3.99,
3.008,-14.61,-4.17,-1.91,-3.42,1.24,4.22,
3.008,-14.61,-4.17,-1.91,-3.60,0.90,4.40,
3.008,-12.57,-3.35,-0.89,-3.60,0.90,4.40,
3.009,-12.57,-3.35,-0.89,-3.76,0.58,4.54,
3.01,-12.57,-3.35,-0.89,-3.90,0.29,4.66,
3.012,-10.65,-2.65,0.22,-3.90,0.29,4.66,
3.012,-10.65,-2.65,0.22,-4.00,0.03,4.76,
3.015,-8.91,-2.25,1.19,-4.00,0.03,4.76,
3.015,-8.91,-2.25,1.19,-4.08,-0.19,4.85,
3.017,-8.91,-2.25,1.19,-4.14,-0.38,4.93,
3.02,-8.91,-2.25,1.19,-4.16,-0.54,5.01,
3.021,-7.38,-2.12,1.99,-4.16,-0.54,5.01,
3.023,-7.38,-2.12,1.99,-4.16,-0.67,5.08,
3.027,-6.11,-2.13,2.63,-4.16,-0.67,5.08,
3.028,-6.11,-2.13,2.63,-4.14,-0.79,5.15,
3.029,-6.11,-2.13,2.63,-4.09,-0.90,5.20,
3.03,-6.11,-2.13,2.63,-4.02,-1.00,5.24,
3.03,-5.05,-2.14,3.14,-4.02,-1.00,5.24,
3.032,-5.05,-2.14,3.14,-3.94,-1.10,5.27,
3.035,-5.05,-2.14,3.14,-3.85,-1.20,5.28,
3.035,-4.19,-2.13,3.41,-3.85,-1.20,5.28,
3.037,-4.19,-2.13,3.41,-3.75,-1.30,5.29,
3.04,-3.49,-2.10,3.53,-3.75,-1.30,5.29,
3.041,-3.49,-2.10,3.53,-3.64,-1.40,5.29,
3.042,-3.49,-2.10,3.53,-3.53,-1.49,5.28,
3.045,-3.49,-2.10,3.53,-3.42,-1.57,5.25,
3.047,-2.74,-2.11,3.37,-3.42,-1.57,5.25,
3.047,-2.74,-2.11,3.37,-3.33,-1.64,5.20,
3.05,-2.74,-2.11,3.37,-3.24,-1.74,5.14,
3.05,-2.05,-2.08,3.36,-3.24,-1.74,5.14,
3.054,-2.05,-2.08,3.36,-3.14,-1.86,5.10,
3.055,-2.05,-2.08,3.36,-3.03,-1.97,5.08,
3.055,-1.78,-2.31,3.17,-3.03,-1.97,5.08,
3.057,-1.78,-2.31,3.17,-2.92,-2.08,5.06,
3.06,-1.78,-2.31,3.17,-2.80,-2.19,5.05,
3.086,-1.71,-2.61,2.89,-2.80,-2.19,5.05,
3.086,-1.71,-2.61,2.89,-2.68,-2.28,5.05,
3.086,-1.58,-2.75,2.70,-2.68,-2.28,5.05,
3.087,-1.58,-2.75,2.70,-2.56,-2.37,5.06,
3.087,-1.58,-2.75,2.70,-2.45,-2.45,5.08,
3.087,-1.58,-2.75,2.70,-2.33,-2.51,5.10,
3.087,-1.28,-2.67,2.51,-2.33,-2.51,5.10,
3.088,-1.28,-2.67,2.51,-2.22,-2.56,5.13,
3.088,-1.28,-2.67,2.51,-2.11,-2.60,5.15,
3.088,-0.82,-2.45,2.23,-2.11,-2.60,5.15,
3.088,-0.82,-2.45,2.23,-2.00,-2.62,5.16,
3.089,-0.82,-2.45,2.23,-1.90,-2.63,5.17,
3.089,-0.23,-2.17,1.91,-1.90,-2.63,5.17,
3.089,-0.23,-2.17,1.91,-1.80,-2.62,5.16,
3.089,-0.23,-2.17,1.91,-1.70,-2.62,5.14,
3.089,0.38,-1.88,1.58,-1.70,-2.62,5.14,
3.09,0.38,-1.88,1.58,-1.61,-2.61,5.12,
3.095,0.38,-1.88,1.58,-1.52,-2.59,5.09,
3.096,0.87,-1.69,1.22,-1.52,-2.59,5.09,
3.097,0.87,-1.69,1.22,-1.42,-2.56,5.05,
3.097,0.87,-1.69,1.22,-1.34,-2.51,5.02,
3.097,1.17,-1.58,0.87,-1.34,-2.51,5.02,
3.098,1.17,-1.58,0.87,-1.25,-2.46,4.98,
3.1,1.17,-1.58,0.87,-1.16,-2.40,4.95,
3.1,1.31,-1.61,0.54,-1.16,-2.40,4.95,
3.102,1.31,-1.61,0.54,-1.08,-2.32,4.91,
3.104,1.31,-1.61,0.54,-1.01,-2.24,4.88,
3.105,1.24,-1.74,0.17,-1.01,-2.24,4.88,
3.118,1.24,-1.74,0.17,-0.93,-2.15,4.85,
3.118,1.24,-1.74,0.17,-0.87,-2.05,4.83,
3.119,1.08,-1.92,-0.19,-0.87,-2.05,4.83,
3.119,1.08,-1.92,-0.19,-0.80,-1.94,4.81,
3.119,1.08,-1.92,-0.19,-0.74,-1.83,4.79,
3.119,0.86,-2.08,-0.47,-0.74,-1.83,4.79,
3.12,0.86,-2.08,-0.47,-0.68,-1.71,4.78,
3.12,0.86,-2.08,-0.47,-0.63,-1.59,4.77,
3.12,0.61,-2.24,-0.68,-0.63,-1.59,4.77,
3.122,0.61,-2.24,-0.68,-0.58,-1.46,4.77,
3.124,0.38,-2.40,-0.82,-0.58,-1.46,4.77,
3.125,0.38,-2.40,-0.82,-0.53,-1.33,4.78,
3.126,0.38,-2.40,-0.82,-0.49,-1.20,4.79,
3.129,0.38,-2.40,-0.82,-0.44,-1.06,4.81,
3.129,0.16,-2.60,-0.94,-0.44,-1.06,4.81,
3.131,0.16,-2.60,-0.94,-0.40,-0.91,4.82,
3.134,0.16,-2.60,-0.94,-0.36,-0.76,4.84,
3.134,-0.05,-2.79,-1.02,-0.36,-0.76,4.84,
3.136,-0.05,-2.79,-1.02,-0.33,-0.61,4.87,
3.14,-0.05,-2.79,-1.02,-0.30,-0.46,4.89,
3.141,-0.22,-3.02,-1.03,-0.30,-0.46,4.89,
3.142,-0.22,-3.02,-1.03,-0.27,-0.31,4.92,
3.145,-0.22,-3.02,-1.03,-0.25,-0.15,4.95,
3.145,-0.39,-3.37,-1.07,-0.25,-0.15,4.95,
3.147,-0.39,-3.37,-1.07,-0.23,0.00,4.98,
3.149,-0.39,-3.37,-1.07,-0.21,0.16,5.01,
3.15,-0.57,-3.82,-1.04,-0.21,0.16,5.01,
3.151,-0.57,-3.82,-1.04,-0.20,0.31,5.04,
3.154,-0.57,-3.82,-1.04,-0.20,0.45,5.07,
3.154,-0.64,-4.32,-0.87,-0.20,0.45,5.07,
3.157,-0.64,-4.32,-0.87,-0.19,0.59,5.10,
3.16,-0.64,-4.32,-0.87,-0.20,0.72,5.14,
3.16,-0.67,-4.77,-0.61,-0.20,0.72,5.14,
3.161,-0.67,-4.77,-0.61,-0.20,0.84,5.17,
3.164,-0.67,-4.77,-0.61,-0.21,0.96,5.20,
3.164,-0.61,-5.19,-0.33,-0.21,0.96,5.20,
3.166,-0.61,-5.19,-0.33,-0.23,1.06,5.23,
3.169,-0.61,-5.19,-0.33,-0.24,1.16,5.25,
3.169,-0.50,-5.62,-0.04,-0.24,1.16,5.25,
3.171,-0.50,-5.62,-0.04,-0.26,1.25,5.27,
3.178,-0.38,-6.10,0.31,-0.26,1.25,5.27,
3.179,-0.38,-6.10,0.31,-0.28,1.34,5.29,
3.179,-0.38,-6.10,0.31,-0.30,1.41,5.30,
3.18,-0.38,-6.10,0.31,-0.32,1.48,5.31,
3.18,-0.26,-6.54,0.64,-0.32,1.48,5.31,
3.184,-0.18,-6.92,1.00,-0.32,1.48,5.31,
3.189,-0.11,-7.29,1.31,-0.32,1.48,5.31,
3.214,-0.11,-7.29,1.31,-0.34,1.54,5.32,
3.215,-0.11,-7.29,1.31,-0.37,1.59,5.32,
3.215,-0.11,-7.29,1.31,-0.39,1.63,5.33,
3.215,-0.11,-7.29,1.31,-0.41,1.67,5.33,
3.216,-0.11,-7.29,1.31,-0.44,1.71,5.34,
3.216,-0.11,-7.29,1.31,-0.47,1.74,5.34,
3.216,-0.01,-7.65,1.63,-0.47,1.74,5.34,
3.217,-0.01,-7.65,1.63,-0.50,1.76,5.34,
3.217,0.10,-7.98,1.93,-0.50,1.76,5.34,
3.217,0.10,-7.98,1.93,-0.52,1.77,5.34,
3.217,0.10,-7.98,1.93,-0.55,1.78,5.34,
3.218,0.10,-7.98,1.93,-0.58,1.78,5.35,
3.218,0.21,-8.24,2.22,-0.58,1.78,5.35,
3.218,0.21,-8.24,2.22,-0.61,1.77,5.35,
3.219,0.21,-8.24,2.22,-0.64,1.75,5.34,
3.219,0.31,-8.46,2.49,-0.64,1.75,5.34,
3.219,0.31,-8.46,2.49,-0.67,1.73,5.34,
3.22,0.31,-8.46,2.49,-0.69,1.70,5.34,
3.22,0.47,-8.70,2.74,-0.69,1.70,5.34,
3.22,0.47,-8.70,2.74,-0.72,1.66,5.34,
3.22,0.47,-8.70,2.74,-0.75,1.62,5.34,
3.221,0.64,-8.95,2.93,-0.75,1.62,5.34,
3.221,0.64,-8.95,2.93,-0.79,1.57,5.33,
3.228,0.64,-8.95,2.93,-0.82,1.52,5.33,
3.228,0.83,-9.16,3.07,-0.82,1.52,5.33,
3.25,0.83,-9.16,3.07,-0.85,1.46,5.32,
3.25,1.00,-9.33,3.21,-0.85,1.46,5.32,
3.25,1.00,-9.33,3.21,-0.88,1.40,5.32,
3.25,1.00,-9.33,3.21,-0.91,1.34,5.31,
3.25,1.14,-9.43,3.33,-0.91,1.34,5.31,
3.25,1.14,-9.43,3.33,-0.94,1.28,5.30,
3.251,1.14,-9.43,3.33,-0.97,1.21,5.29,
3.251,1.14,-9.43,3.33,-0.99,1.14,5.28,
3.251,1.21,-9.55,3.48,-0.99,1.14,5.28,
3.251,1.21,-9.55,3.48,-1.02,1.06,5.28,
3.251,1.21,-9.55,3.48,-1.03,0.98,5.27,
3.251,1.33,-9.68,3.66,-1.03,0.98,5.27,
3.252,1.33,-9.68,3.66,-1.04,0.89,5.27,
3.252,1.33,-9.68,3.66,-1.05,0.81,5.26,
3.252,1.43,-9.80,3.81,-1.05,0.81,5.26,
3.252,1.43,-9.80,3.81,-1.05,0.72,5.26,
3.253,1.43,-9.80,3.81,-1.05,0.63,5.26,
3.254,1.49,-9.91,3.89,-1.05,0.63,5.26,
3.256,1.49,-9.91,3.89,-1.04,0.55,5.25,
3.259,1.49,-9.91,3.89,-1.02,0.46,5.25,
3.26,1.45,-10.05,3.87,-1.02,0.46,5.25,
3.261,1.45,-10.05,3.87,-1.00,0.38,5.25,
3.264,1.45,-10.05,3.87,-0.98,0.29,5.25,
3.265,1.32,-10.29,3.70,-0.98,0.29,5.25,
3.265,1.32,-10.29,3.70,-0.96,0.21,5.25,
3.268,1.32,-10.29,3.70,-0.93,0.13,5.24,
3.268,1.15,-10.65,3.39,-0.93,0.13,5.24,
3.27,1.15,-10.65,3.39,-0.91,0.05,5.24,
3.278,1.15,-10.65,3.39,-0.89,-0.03,5.25,
3.278,0.92,-11.03,2.93,-0.89,-0.03,5.25,
3.279,0.92,-11.03,2.93,-0.87,-0.11,5.25,
3.279,0.92,-11.03,2.93,-0.85,-0.17,5.26,
3.279,0.72,-11.42,2.41,-0.85,-0.17,5.26,
3.286,0.63,-11.89,1.85,-0.85,-0.17,5.26,
3.287,0.63,-11.89,1.85,-0.84,-0.23,5.28,
3.287,0.63,-11.89,1.85,-0.83,-0.29,5.29,
3.287,0.63,-11.89,1.85,-0.83,-0.34,5.30,
3.288,0.63,-11.89,1.85,-0.83,-0.39,5.31,
3.288,0.80,-12.47,1.39,-0.83,-0.39,5.31,
3.3,0.80,-12.47,1.39,-0.84,-0.45,5.31,
3.301,0.80,-12.47,1.39,-0.85,-0.50,5.30,
3.301,1.32,-13.01,1.00,-0.85,-0.50,5.30,
3.301,1.32,-13.01,1.00,-0.88,-0.55,5.28,
3.301,1.32,-13.01,1.00,-0.91,-0.59,5.26,
3.302,2.02,-13.37,0.63,-0.91,-0.59,5.26,
3.302,2.02,-13.37,0.63,-0.94,-0.63,5.22,
3.303,2.02,-13.37,0.63,-0.98,-0.66,5.17,
3.303,2.82,-13.45,0.34,-0.98,-0.66,5.17,
3.306,2.82,-13.45,0.34,-1.02,-0.68,5.12,
3.308,2.82,-13.45,0.34,-1.06,-0.70,5.06,
3.31,3.62,-13.39,0.18,-1.06,-0.70,5.06,
3.31,3.62,-13.39,0.18,-1.10,-0.71,4.99,
3.312,3.62,-13.39,0.18,-1.15,-0.72,4.91,
3.313,4.35,-13.24,0.14,-1.15,-0.72,4.91,
3.315,4.35,-13.24,0.14,-1.19,-0.72,4.83,
3.318,4.35,-13.24,0.14,-1.24,-0.72,4.73,
3.318,4.99,-13.16,0.12,-1.24,-0.72,4.73,
3.32,4.99,-13.16,0.12,-1.28,-0.72,4.63,
3.322,4.99,-13.16,0.12,-1.32,-0.70,4.53,
3.323,5.51,-13.12,0.11,-1.32,-0.70,4.53,
3.326,5.51,-13.12,0.11,-1.37,-0.69,4.42,
3.327,5.51,-13.12,0.11,-1.41,-0.68,4.30,
3.328,5.95,-13.15,0.26,-1.41,-0.68,4.30,
3.33,5.95,-13.15,0.26,-1.45,-0.67,4.18,
3.332,5.95,-13.15,0.26,-1.49,-0.66,4.06,
3.332,6.33,-13.22,0.47,-1.49,-0.66,4.06,
3.335,6.33,-13.22,0.47,-1.52,-0.66,3.93,
3.338,6.33,-13.22,0.47,-1.54,-0.67,3.81,
3.338,6.59,-13.27,0.81,-1.54,-0.67,3.81,
3.341,6.59,-13.27,0.81,-1.57,-0.68,3.68,
3.343,6.59,-13.27,0.81,-1.58,-0.70,3.54,
3.344,6.80,-13.31,1.10,-1.58,-0.70,3.54,
3.345,6.80,-13.31,1.10,-1.58,-0.72,3.40,
3.348,6.80,-13.31,1.10,-1.58,-0.74,3.26,
3.348,6.95,-13.38,1.38,-1.58,-0.74,3.26,
3.35,6.95,-13.38,1.38,-1.57,-0.76,3.12,
3.352,6.95,-13.38,1.38,-1.56,-0.78,2.98,
3.353,7.03,-13.50,1.57,-1.56,-0.78,2.98,
3.354,7.03,-13.50,1.57,-1.54,-0.81,2.83,
3.358,7.12,-13.66,1.74,-1.54,-0.81,2.83,
3.359,7.12,-13.66,1.74,-1.51,-0.84,2.68,
3.36,7.12,-13.66,1.74,-1.49,-0.87,2.53,
3.362,7.12,-13.66,1.74,-1.46,-0.89,2.37,
3.363,7.20,-13.86,1.80,-1.46,-0.89,2.37,
3.365,7.20,-13.86,1.80,-1.42,-0.92,2.21,
3.367,7.20,-13.86,1.80,-1.38,-0.94,2.05,
3.368,7.31,-14.03,1.74,-1.38,-0.94,2.05,
3.37,7.31,-14.03,1.74,-1.34,-0.95,1.88,
3.373,7.31,-14.03,1.74,-1.30,-0.97,1.72,
3.373,7.38,-14.29,1.66,-1.30,-0.97,1.72,
3.379,7.38,-14.29,1.66,-1.26,-0.98,1.54,
3.381,7.38,-14.29,1.66,-1.21,-0.99,1.36,
3.382,7.52,-14.58,1.54,-1.21,-0.99,1.36,
3.384,7.52,-14.58,1.54,-1.16,-1.00,1.18,
3.384,7.52,-14.58,1.54,-1.12,-1.01,0.98,
3.385,7.82,-14.83,1.40,-1.12,-1.01,0.98,
3.385,7.82,-14.83,1.40,-1.07,-1.01,0.78,
3.388,7.82,-14.83,1.40,-1.03,-1.00,0.58,
3.389,8.15,-14.96,1.20,-1.03,-1.00,0.58,
3.411,8.15,-14.96,1.20,-0.99,-0.98,0.37,
3.428,8.15,-14.96,1.20,-0.94,-0.96,0.15,
3.428,8.43,-14.98,0.97,-0.94,-0.96,0.15,
3.429,8.43,-14.98,0.97,-0.90,-0.92,-0.08,
3.429,8.43,-14.98,0.97,-0.86,-0.88,-0.31,
3.429,8.66,-14.91,0.74,-0.86,-0.88,-0.31,
3.429,8.66,-14.91,0.74,-0.81,-0.83,-0.55,
3.429,8.66,-14.91,0.74,-0.76,-0.76,-0.80,
3.43,8.75,-14.93,0.53,-0.76,-0.76,-0.80,
3.43,8.75,-14.93,0.53,-0.71,-0.69,-1.05,
3.43,8.78,-14.94,0.38,-0.71,-0.69,-1.05,
3.43,8.78,-14.94,0.38,-0.65,-0.61,-1.31,
3.43,8.78,-14.94,0.38,-0.59,-0.52,-1.57,
3.431,8.78,-14.94,0.38,-0.52,-0.42,-1.83,
3.431,8.69,-14.98,0.27,-0.52,-0.42,-1.83,
3.431,8.69,-14.98,0.27,-0.45,-0.32,-2.10,
3.431,8.44,-15.01,0.17,-0.45,-0.32,-2.10,
3.431,8.44,-15.01,0.17,-0.36,-0.20,-2.38,
3.432,8.44,-15.01,0.17,-0.27,-0.07,-2.65,
3.432,7.98,-15.06,0.14,-0.27,-0.07,-2.65,
3.432,7.98,-15.06,0.14,-0.17,0.06,-2.93,
3.432,7.98,-15.06,0.14,-0.07,0.19,-3.21,
3.432,7.31,-15.12,0.11,-0.07,0.19,-3.21,
3.433,7.31,-15.12,0.11,0.05,0.33,-3.50,
3.433,7.31,-15.12,0.11,0.18,0.47,-3.77,
3.433,7.31,-15.12,0.11,0.32,0.61,-4.05,
3.433,6.47,-15.06,0.03,0.32,0.61,-4.05,
3.434,6.47,-15.06,0.03,0.47,0.76,-4.31,
3.437,6.47,-15.06,0.03,0.62,0.91,-4.57,
3.438,5.46,-14.84,-0.18,0.62,0.91,-4.57,
3.439,5.46,-14.84,-0.18,0.78,1.07,-4.81,
3.443,4.24,-14.56,-0.52,0.78,1.07,-4.81,
3.443,4.24,-14.56,-0.52,0.94,1.22,-5.03,
3.444,4.24,-14.56,-0.52,1.11,1.38,-5.24,
3.446,2.92,-14.24,-0.83,1.11,1.38,-5.24,
3.447,2.92,-14.24,-0.83,1.27,1.52,-5.43,
3.449,2.92,-14.24,-0.83,1.43,1.66,-5.61,
3.451,2.92,-14.24,-0.83,1.59,1.78,-5.77,
3.452,1.49,-13.97,-1.07,1.59,1.78,-5.77,
3.454,1.49,-13.97,-1.07,1.75,1.88,-5.91,
3.458,1.49,-13.97,-1.07,1.90,1.98,-6.03,
3.458,0.04,-13.63,-1.25,1.90,1.98,-6.03,
3.46,0.04,-13.63,-1.25,2.05,2.06,-6.13,
3.462,0.04,-13.63,-1.25,2.20,2.13,-6.22,
3.462,-1.46,-13.29,-1.42,2.20,2.13,-6.22,
3.465,-1.46,-13.29,-1.42,2.35,2.18,-6.28,
3.466,-1.46,-13.29,-1.42,2.49,2.23,-6.33,
3.467,-2.84,-13.01,-1.61,2.49,2.23,-6.33,
3.47,-2.84,-13.01,-1.61,2.63,2.26,-6.37,
3.471,-2.84,-13.01,-1.61,2.76,2.28,-6.38,
3.472,-3.92,-12.67,-1.82,2.76,2.28,-6.38,
3.477,-3.92,-12.67,-1.82,2.88,2.29,-6.38,
3.477,-3.92,-12.67,-1.82,2.99,2.28,-6.37,
3.477,-4.62,-12.23,-2.13,2.99,2.28,-6.37,
3.479,-4.62,-12.23,-2.13,3.09,2.27,-6.35,
3.481,-4.62,-12.23,-2.13,3.17,2.24,-6.32,
3.481,-4.93,-11.65,-2.51,3.17,2.24,-6.32,
3.483,-4.93,-11.65,-2.51,3.23,2.20,-6.29,
3.486,-4.93,-11.65,-2.51,3.27,2.15,-6.26,
3.487,-4.94,-11.09,-2.95,3.27,2.15,-6.26,
3.488,-4.94,-11.09,-2.95,3.29,2.09,-6.23,
3.496,-4.94,-11.09,-2.95,3.30,2.02,-6.21,
3.497,-4.76,-10.64,-3.39,3.30,2.02,-6.21,
3.497,-4.76,-10.64,-3.39,3.28,1.93,-6.21,
3.497,-4.76,-10.64,-3.39,3.24,1.82,-6.21,
3.498,-4.35,-10.42,-3.76,3.24,1.82,-6.21,
3.507,-4.35,-10.42,-3.76,3.19,1.70,-6.22,
3.507,-4.35,-10.42,-3.76,3.11,1.57,-6.25,
3.507,-3.85,-10.30,-4.04,3.11,1.57,-6.25,
3.507,-3.85,-10.30,-4.04,3.02,1.42,-6.28,
3.507,-3.40,-10.14,-4.29,3.02,1.42,-6.28,
3.508,-3.40,-10.14,-4.29,2.91,1.27,-6.32,
3.517,-3.40,-10.14,-4.29,2.79,1.11,-6.38,
3.518,-3.40,-10.14,-4.29,2.65,0.95,-6.44,
3.518,-2.97,-9.96,-4.53,2.65,0.95,-6.44,
3.519,-2.97,-9.96,-4.53,2.50,0.80,-6.51,
3.519,-2.97,-9.96,-4.53,2.34,0.64,-6.59,
3.519,-2.64,-9.77,-4.71,2.34,0.64,-6.59,
3.52,-2.64,-9.77,-4.71,2.17,0.48,-6.67,
3.521,-2.64,-9.77,-4.71,1.99,0.31,-6.75,
3.521,-2.45,-9.63,-4.84,1.99,0.31,-6.75,
3.523,-2.45,-9.63,-4.84,1.79,0.15,-6.84,
3.527,-2.45,-9.63,-4.84,1.59,-0.03,-6.94,
3.527,-2.40,-9.60,-4.89,1.59,-0.03,-6.94,
3.529,-2.40,-9.60,-4.89,1.37,-0.20,-7.03,
3.531,-2.40,-9.60,-4.89,1.15,-0.38,-7.13,
3.531,-2.55,-9.55,-4.82,1.15,-0.38,-7.13,
3.533,-2.55,-9.55,-4.82,0.92,-0.55,-7.22,
3.536,-2.55,-9.55,-4.82,0.69,-0.74,-7.30,
3.536,-2.91,-9.48,-4.54,0.69,-0.74,-7.30,
3.538,-2.91,-9.48,-4.54,0.46,-0.92,-7.38,
3.541,-3.36,-9.34,-4.12,0.46,-0.92,-7.38,
3.541,-3.36,-9.34,-4.12,0.23,-1.10,-7.46,
3.543,-3.36,-9.34,-4.12,0.01,-1.28,-7.52,
3.546,-3.36,-9.34,-4.12,-0.21,-1.44,-7.58,
3.546,-3.82,-9.12,-3.56,-0.21,-1.44,-7.58,
3.548,-3.82,-9.12,-3.56,-0.41,-1.61,-7.63,
3.551,-3.82,-9.12,-3.56,-0.61,-1.76,-7.67,
3.551,-4.28,-8.76,-2.85,-0.61,-1.76,-7.67,
3.553,-4.28,-8.76,-2.85,-0.80,-1.91,-7.70,
3.556,-4.77,-8.37,-2.16,-0.80,-1.91,-7.70,
3.574,-4.77,-8.37,-2.16,-0.97,-2.06,-7.72,
3.574,-4.77,-8.37,-2.16,-1.14,-2.18,-7.74,
3.574,-4.77,-8.37,-2.16,-1.29,-2.29,-7.75,
3.574,-5.44,-7.95,-1.59,-1.29,-2.29,-7.75,
3.575,-5.44,-7.95,-1.59,-1.42,-2.39,-7.75,
3.575,-6.30,-7.41,-1.04,-1.42,-2.39,-7.75,
3.575,-6.30,-7.41,-1.04,-1.54,-2.48,-7.73,
3.575,-6.30,-7.41,-1.04,-1.65,-2.56,-7.70,
3.575,-7.33,-6.76,-0.53,-1.65,-2.56,-7.70,
3.575,-7.33,-6.76,-0.53,-1.75,-2.64,-7.66,
3.575,-7.33,-6.76,-0.53,-1.82,-2.70,-7.59,
3.578,-7.33,-6.76,-0.53,-1.89,-2.75,-7.51,
3.578,-8.34,-6.11,-0.11,-1.89,-2.75,-7.51,
3.578,-8.34,-6.11,-0.11,-1.93,-2.78,-7.41,
3.581,-8.34,-6.11,-0.11,-1.96,-2.81,-7.31,
3.581,-9.23,-5.54,0.24,-1.96,-2.81,-7.31,
3.584,-9.23,-5.54,0.24,-1.97,-2.84,-7.19,
3.586,-9.23,-5.54,0.24,-1.96,-2.86,-7.06,
3.586,-9.80,-5.06,0.58,-1.96,-2.86,-7.06,
3.588,-9.80,-5.06,0.58,-1.93,-2.87,-6.92,
3.595,-9.80,-5.06,0.58,-1.90,-2.85,-6.78,
3.595,-9.86,-4.52,0.68,-1.90,-2.85,-6.78,
3.596,-9.86,-4.52,0.68,-1.85,-2.80,-6.67,
3.596,-9.86,-4.52,0.68,-1.82,-2.71,-6.60,
3.597,-9.09,-3.90,0.50,-1.82,-2.71,-6.60,
3.598,-9.09,-3.90,0.50,-1.76,-2.65,-6.52,
3.6,-9.09,-3.90,0.50,-1.69,-2.58,-6.43,
3.601,-8.71,-3.25,0.49,-1.69,-2.58,-6.43,
3.603,-8.71,-3.25,0.49,-1.59,-2.50,-6.34,
3.605,-8.71,-3.25,0.49,-1.48,-2.41,-6.23,
3.606,-8.72,-2.71,0.26,-1.48,-2.41,-6.23,
3.625,-8.72,-2.71,0.26,-1.36,-2.29,-6.12,
3.625,-8.72,-2.71,0.26,-1.23,-2.15,-6.01,
3.626,-8.84,-2.21,-0.05,-1.23,-2.15,-6.01,
3.626,-8.84,-2.21,-0.05,-1.10,-1.98,-5.90,
3.626,-8.84,-2.21,-0.05,-0.98,-1.78,-5.79,
3.626,-8.77,-1.77,-0.47,-0.98,-1.78,-5.79,
3.626,-8.77,-1.77,-0.47,-0.86,-1.56,-5.70,
3.626,-8.52,-1.34,-0.93,-0.86,-1.56,-5.70,
3.627,-8.52,-1.34,-0.93,-0.76,-1.33,-5.62,
3.627,-8.52,-1.34,-0.93,-0.65,-1.10,-5.55,
3.627,-8.34,-0.81,-1.27,-0.65,-1.10,-5.55,
3.627,-8.34,-0.81,-1.27,-0.56,-0.88,-5.48,
3.632,-8.37,-0.27,-1.43,-0.56,-0.88,-5.48,
3.632,-8.37,-0.27,-1.43,-0.47,-0.67,-5.42,
3.632,-8.37,-0.27,-1.43,-0.38,-0.46,-5.37,
3.632,-8.37,-0.27,-1.43,-0.29,-0.26,-5.30,
3.636,-8.37,-0.27,-1.43,-0.20,-0.05,-5.24,
3.636,-8.56,0.27,-1.45,-0.20,-0.05,-5.24,
3.638,-8.56,0.27,-1.45,-0.11,0.16,-5.16,
3.641,-8.56,0.27,-1.45,-0.03,0.37,-5.08,
3.641,-8.84,0.77,-1.31,-0.03,0.37,-5.08,
3.643,-8.84,0.77,-1.31,0.06,0.59,-4.99,
3.647,-8.84,0.77,-1.31,0.15,0.81,-4.89,
3.647,-9.19,1.22,-1.06,0.15,0.81,-4.89,
3.647,-9.19,1.22,-1.06,0.24,1.02,-4.79,
3.651,-9.50,1.62,-0.73,0.24,1.02,-4.79,
3.651,-9.50,1.62,-0.73,0.33,1.22,-4.68,
3.652,-9.50,1.62,-0.73,0.42,1.41,-4.57,
3.655,-9.50,1.62,-0.73,0.51,1.59,-4.46,
3.655,-9.72,1.96,-0.30,0.51,1.59,-4.46,
3.658,-9.72,1.96,-0.30,0.61,1.75,-4.35,
3.66,-9.72,1.96,-0.30,0.70,1.90,-4.23,
3.661,-9.89,2.24,0.17,0.70,1.90,-4.23,
3.662,-9.89,2.24,0.17,0.79,2.03,-4.12,
3.665,-9.89,2.24,0.17,0.88,2.14,-4.00,
3.665,-9.96,2.48,0.67,0.88,2.14,-4.00,
3.667,-9.96,2.48,0.67,0.97,2.23,-3.89,
3.67,-9.96,2.48,0.67,1.05,2.30,-3.77,
3.67,-9.96,2.69,1.15,1.05,2.30,-3.77,
3.672,-9.96,2.69,1.15,1.13,2.35,-3.66,
3.677,-9.96,2.69,1.15,1.21,2.38,-3.56,
3.678,-9.92,2.79,1.55,1.21,2.38,-3.56,
3.679,-9.92,2.79,1.55,1.28,2.39,-3.46,
3.68,-9.92,2.79,1.55,1.34,2.37,-3.37,
3.68,-9.80,2.75,1.85,1.34,2.37,-3.37,
3.682,-9.80,2.75,1.85,1.40,2.35,-3.28,
3.685,-9.80,2.75,1.85,1.46,2.30,-3.21,
3.686,-9.73,2.62,2.02,1.46,2.30,-3.21,
3.687,-9.73,2.62,2.02,1.51,2.24,-3.13,
3.692,-9.73,2.62,2.02,1.55,2.16,-3.07,
3.692,-9.70,2.39,1.96,1.55,2.16,-3.07,
3.704,-9.70,2.39,1.96,1.59,2.09,-3.01,
3.705,-9.70,2.39,1.96,1.63,2.00,-2.95,
3.705,-9.73,1.97,1.80,1.63,2.00,-2.95,
3.705,-9.73,1.97,1.80,1.67,1.90,-2.91,
3.705,-9.73,1.97,1.80,1.70,1.80,-2.87,
3.706,-9.76,1.44,1.57,1.70,1.80,-2.87,
3.706,-9.76,1.44,1.57,1.73,1.68,-2.84,
3.706,-9.76,1.44,1.57,1.77,1.57,-2.81,
3.707,-9.92,0.93,1.21,1.77,1.57,-2.81,
3.707,-9.92,0.93,1.21,1.79,1.45,-2.79,
3.712,-10.08,0.50,0.77,1.79,1.45,-2.79,
3.712,-10.08,0.50,0.77,1.82,1.33,-2.78,
3.713,-10.08,0.50,0.77,1.84,1.21,-2.77,
3.714,-10.08,0.50,0.77,1.85,1.09,-2.77,
3.715,-10.22,0.10,0.15,1.85,1.09,-2.77,
3.717,-10.22,0.10,0.15,1.86,0.97,-2.78,
3.719,-10.22,0.10,0.15,1.86,0.84,-2.79,
3.719,-10.34,-0.22,-0.55,1.86,0.84,-2.79,
3.735,-10.34,-0.22,-0.55,1.86,0.72,-2.81,
3.735,-10.34,-0.22,-0.55,1.85,0.59,-2.83,
3.735,-10.43,-0.36,-1.32,1.85,0.59,-2.83,
3.735,-10.43,-0.36,-1.32,1.83,0.47,-2.85,
3.736,-10.43,-0.36,-1.32,1.80,0.35,-2.88,
3.736,-10.51,-0.26,-2.12,1.80,0.35,-2.88,
3.736,-10.51,-0.26,-2.12,1.76,0.24,-2.90,
3.736,-10.51,-0.26,-2.12,1.70,0.14,-2.93,
3.736,-10.59,0.01,-2.94,1.70,0.14,-2.93,
3.737,-10.59,0.01,-2.94,1.64,0.04,-2.95,
3.739,-10.59,0.01,-2.94,1.57,-0.05,-2.97,
3.74,-10.64,0.44,-3.70,1.57,-0.05,-2.97,
3.742,-10.64,0.44,-3.70,1.49,-0.12,-2.98,
3.744,-10.64,0.44,-3.70,1.40,-0.18,-3.00,
3.745,-10.73,0.96,-4.39,1.40,-0.18,-3.00,
3.746,-10.73,0.96,-4.39,1.31,-0.23,-3.01,
3.749,-10.73,0.96,-4.39,1.21,-0.26,-3.01,
3.749,-10.88,1.50,-4.97,1.21,-0.26,-3.01,
3.751,-10.88,1.50,-4.97,1.11,-0.28,-3.01,
3.754,-10.88,1.50,-4.97,1.01,-0.29,-3.00,
3.755,-11.13,2.01,-5.41,1.01,-0.29,-3.00,
3.756,-11.13,2.01,-5.41,0.92,-0.28,-2.99,
3.759,-11.13,2.01,-5.41,0.82,-0.27,-2.96,
3.76,-11.42,2.42,-5.62,0.82,-0.27,-2.96,
3.761,-11.42,2.42,-5.62,0.73,-0.24,-2.94,
3.764,-11.42,2.42,-5.62,0.65,-0.19,-2.91,
3.764,-11.87,2.71,-5.75,0.65,-0.19,-2.91,
3.766,-11.87,2.71,-5.75,0.57,-0.13,-2.88,
3.769,-11.87,2.71,-5.75,0.50,-0.07,-2.85,
3.769,-12.34,2.92,-5.69,0.50,-0.07,-2.85,
3.771,-12.34,2.92,-5.69,0.44,0.01,-2.80,
3.777,-12.34,2.92,-5.69,0.39,0.09,-2.76,
3.777,-12.85,3.06,-5.53,0.39,0.09,-2.76,
3.777,-12.85,3.06,-5.53,0.34,0.19,-2.71,
3.779,-13.40,3.11,-5.30,0.34,0.19,-2.71,
3.779,-13.40,3.11,-5.30,0.31,0.29,-2.65,
3.783,-13.40,3.11,-5.30,0.28,0.40,-2.60,
3.784,-13.96,3.14,-5.02,0.28,0.40,-2.60,
3.784,-13.96,3.14,-5.02,0.26,0.53,-2.54,
3.786,-13.96,3.14,-5.02,0.24,0.66,-2.47,
3.789,-14.59,3.19,-4.74,0.24,0.66,-2.47,
3.789,-14.59,3.19,-4.74,0.23,0.79,-2.40,
3.801,-14.59,3.19,-4.74,0.23,0.94,-2.33,
3.801,-14.59,3.19,-4.74,0.23,1.08,-2.25,
3.801,-15.23,3.19,-4.42,0.23,1.08,-2.25,
3.801,-15.23,3.19,-4.42,0.24,1.22,-2.17,
3.802,-15.23,3.19,-4.42,0.24,1.37,-2.09,
3.802,-15.96,3.15,-4.12,0.24,1.37,-2.09,
3.802,-15.96,3.15,-4.12,0.26,1.51,-2.00,
3.804,-15.96,3.15,-4.12,0.27,1.66,-1.90,
3.804,-16.73,3.07,-3.86,0.27,1.66,-1.90,
3.806,-16.73,3.07,-3.86,0.28,1.80,-1.80,
3.809,-17.58,2.91,-3.62,0.28,1.80,-1.80,
3.81,-17.58,2.91,-3.62,0.29,1.94,-1.69,
3.813,-17.58,2.91,-3.62,0.30,2.08,-1.57,
3.813,-17.58,2.91,-3.62,0.31,2.21,-1.45,
3.814,-18.51,2.68,-3.40,0.31,2.21,-1.45,
3.816,-18.51,2.68,-3.40,0.31,2.34,-1.32,
3.818,-18.51,2.68,-3.40,0.31,2.46,-1.18,
3.818,-19.37,2.34,-3.18,0.31,2.46,-1.18,
3.821,-19.37,2.34,-3.18,0.31,2.56,-1.03,
3.823,-19.37,2.34,-3.18,0.30,2.66,-0.87,
3.823,-20.15,1.96,-3.02,0.30,2.66,-0.87,
3.826,-20.15,1.96,-3.02,0.28,2.74,-0.71,
3.828,-20.15,1.96,-3.02,0.25,2.81,-0.53,
3.829,-20.89,1.67,-2.82,0.25,2.81,-0.53,
3.831,-20.89,1.67,-2.82,0.21,2.86,-0.35,
3.834,-20.89,1.67,-2.82,0.17,2.90,-0.16,
3.834,-21.53,1.52,-2.58,0.17,2.90,-0.16,
3.836,-21.53,1.52,-2.58,0.12,2.93,0.03,
3.838,-21.53,1.52,-2.58,0.06,2.93,0.24,
3.838,-22.05,1.50,-2.31,0.06,2.93,0.24,
3.84,-22.05,1.50,-2.31,-0.00,2.92,0.45,
3.845,-22.34,1.55,-2.00,-0.00,2.92,0.45,
3.845,-22.34,1.55,-2.00,-0.08,2.89,0.67,
3.846,-22.34,1.55,-2.00,-0.16,2.85,0.89,
3.848,-22.29,1.62,-1.64,-0.16,2.85,0.89,
3.849,-22.29,1.62,-1.64,-0.25,2.78,1.12,
3.851,-22.29,1.62,-1.64,-0.34,2.70,1.35,
3.855,-22.29,1.62,-1.64,-0.45,2.60,1.57,
3.855,-21.94,1.69,-1.33,-0.45,2.60,1.57,
3.856,-21.94,1.69,-1.33,-0.56,2.48,1.80,
3.864,-21.94,1.69,-1.33,-0.68,2.36,2.03,
3.865,-21.94,1.69,-1.33,-0.80,2.23,2.26,
3.865,-21.94,1.69,-1.33,-0.93,2.09,2.48,
3.865,-21.27,1.74,-1.04,-0.93,2.09,2.48,
3.865,-20.30,1.71,-0.72,-0.93,2.09,2.48,
3.866,-20.30,1.71,-0.72,-1.06,1.94,2.69,
3.87,-20.30,1.71,-0.72,-1.20,1.79,2.89,
3.87,-19.26,1.52,-0.42,-1.20,1.79,2.89,
3.874,-19.26,1.52,-0.42,-1.33,1.64,3.08,
3.874,-19.26,1.52,-0.42,-1.46,1.48,3.26,
3.874,-18.17,1.12,-0.09,-1.46,1.48,3.26,
3.879,-18.17,1.12,-0.09,-1.59,1.32,3.43,
3.881,-16.99,0.62,0.33,-1.59,1.32,3.43,
3.882,-16.99,0.62,0.33,-1.71,1.14,3.60,
3.883,-16.99,0.62,0.33,-1.83,0.97,3.75,
3.884,-16.99,0.62,0.33,-1.93,0.79,3.89,
3.884,-15.68,0.13,0.82,-1.93,0.79,3.89,
3.892,-15.68,0.13,0.82,-2.03,0.60,4.02,
3.912,-14.32,-0.30,1.29,-2.03,0.60,4.02,
3.912,-14.32,-0.30,1.29,-2.12,0.42,4.15,
3.913,-14.32,-0.30,1.29,-2.20,0.24,4.26,
3.913,-12.95,-0.68,1.69,-2.20,0.24,4.26,
3.914,-12.95,-0.68,1.69,-2.26,0.06,4.36,
3.914,-12.95,-0.68,1.69,-2.32,-0.10,4.46,
3.915,-11.55,-1.01,2.05,-2.32,-0.10,4.46,
3.915,-11.55,-1.01,2.05,-2.36,-0.26,4.54,
3.915,-11.55,-1.01,2.05,-2.40,-0.41,4.61,
3.916,-11.55,-1.01,2.05,-2.42,-0.55,4.67,
3.916,-10.16,-1.27,2.38,-2.42,-0.55,4.67,
3.916,-10.16,-1.27,2.38,-2.42,-0.69,4.71,
3.917,-8.84,-1.45,2.64,-2.42,-0.69,4.71,
3.917,-8.84,-1.45,2.64,-2.42,-0.80,4.75,
3.917,-8.84,-1.45,2.64,-2.40,-0.91,4.78,
3.917,-8.84,-1.45,2.64,-2.38,-1.00,4.80,
3.917,-7.61,-1.54,2.87,-2.38,-1.00,4.80,
3.918,-7.61,-1.54,2.87,-2.34,-1.08,4.82,
3.918,-7.61,-1.54,2.87,-2.29,-1.15,4.83,
3.918,-6.51,-1.52,3.10,-2.29,-1.15,4.83,
3.92,-6.51,-1.52,3.10,-2.24,-1.20,4.83,
3.923,-5.53,-1.50,3.30,-2.24,-1.20,4.83,
3.923,-5.53,-1.50,3.30,-2.17,-1.24,4.82,
3.925,-5.53,-1.50,3.30,-2.10,-1.28,4.81,
3.928,-5.53,-1.50,3.30,-2.02,-1.30,4.80,
3.928,-4.67,-1.50,3.47,-2.02,-1.30,4.80,
3.93,-4.67,-1.50,3.47,-1.93,-1.31,4.78,
3.933,-4.67,-1.50,3.47,-1.84,-1.31,4.76,
3.933,-3.92,-1.51,3.59,-1.84,-1.31,4.76,
3.935,-3.92,-1.51,3.59,-1.74,-1.30,4.73,
3.938,-3.92,-1.51,3.59,-1.64,-1.29,4.70,
3.938,-3.24,-1.57,3.68,-1.64,-1.29,4.70,
3.94,-3.24,-1.57,3.68,-1.53,-1.26,4.66,
3.943,-3.24,-1.57,3.68,-1.42,-1.23,4.63,
3.943,-2.67,-1.59,3.72,-1.42,-1.23,4.63,
3.945,-2.67,-1.59,3.72,-1.31,-1.20,4.59,
3.947,-2.15,-1.57,3.72,-1.31,-1.20,4.59,
3.947,-2.15,-1.57,3.72,-1.20,-1.16,4.55,
3.95,-2.15,-1.57,3.72,-1.08,-1.12,4.51,
3.952,-2.15,-1.57,3.72,-0.97,-1.07,4.48,
3.953,-1.75,-1.47,3.68,-0.97,-1.07,4.48,
3.955,-1.75,-1.47,3.68,-0.86,-1.03,4.45,
3.957,-1.75,-1.47,3.68,-0.75,-0.98,4.41,
3.958,-1.45,-1.35,3.56,-0.75,-0.98,4.41,
3.961,-1.45,-1.35,3.56,-0.65,-0.93,4.38,
3.963,-1.45,-1.35,3.56,-0.55,-0.88,4.36,
3.965,-1.45,-1.35,3.56,-0.45,-0.83,4.33,
3.965,-1.24,-1.26,3.44,-0.45,-0.83,4.33,
3.967,-1.24,-1.26,3.44,-0.36,-0.77,4.31,
3.968,-1.10,-1.20,3.26,-0.36,-0.77,4.31,
3.97,-1.10,-1.20,3.26,-0.27,-0.71,4.29,
3.972,-1.10,-1.20,3.26,-0.18,-0.64,4.28,
3.973,-1.04,-1.13,3.04,-0.18,-0.64,4.28,
3.979,-1.04,-1.13,3.04,-0.10,-0.58,4.27,
3.98,-1.04,-1.13,3.04,-0.02,-0.51,4.27,
3.98,-0.99,-1.07,2.84,-0.02,-0.51,4.27,
3.981,-0.99,-1.07,2.84,0.05,-0.44,4.27,
3.983,-0.99,-1.07,2.84,0.12,-0.37,4.27,
3.983,-0.95,-1.08,2.69,0.12,-0.37,4.27,
3.985,-0.95,-1.08,2.69,0.19,-0.30,4.28,
3.988,-0.95,-1.08,2.69,0.26,-0.23,4.29,
3.989,-0.83,-1.10,2.56,0.26,-0.23,4.29,
3.989,-0.83,-1.10,2.56,0.32,-0.15,4.30,
4.006,-0.83,-1.10,2.56,0.38,-0.08,4.31,
4.007,-0.72,-1.15,2.46,0.38,-0.08,4.31,
4.008,-0.72,-1.15,2.46,0.44,-0.01,4.32,
4.008,-0.72,-1.15,2.46,0.49,0.06,4.33,
4.008,-0.53,-1.19,2.34,0.49,0.06,4.33,
4.009,-0.53,-1.19,2.34,0.54,0.13,4.34,
4.01,-0.53,-1.19,2.34,0.59,0.21,4.35,
4.01,-0.32,-1.26,2.22,0.59,0.21,4.35,
4.01,-0.32,-1.26,2.22,0.64,0.28,4.35,
4.011,-0.32,-1.26,2.22,0.68,0.36,4.36,
4.011,-0.09,-1.35,2.08,0.68,0.36,4.36,
4.012,-0.09,-1.35,2.08,0.72,0.43,4.36,
4.014,0.15,-1.43,1.95,0.72,0.43,4.36,
4.015,0.15,-1.43,1.95,0.76,0.50,4.36,
4.015,0.15,-1.43,1.95,0.79,0.58,4.36,
4.017,0.37,-1.54,1.84,0.79,0.58,4.36,
4.018,0.37,-1.54,1.84,0.82,0.66,4.35,
4.019,0.37,-1.54,1.84,0.84,0.73,4.35,
4.022,0.37,-1.54,1.84,0.86,0.81,4.34,
4.022,0.53,-1.67,1.77,0.86,0.81,4.34,
4.024,0.53,-1.67,1.77,0.88,0.88,4.34,
4.027,0.53,-1.67,1.77,0.90,0.96,4.33,
4.028,0.69,-1.91,1.71,0.90,0.96,4.33,
4.03,0.69,-1.91,1.71,0.91,1.03,4.31,
4.033,0.69,-1.91,1.71,0.92,1.09,4.29,
4.033,0.88,-2.16,1.73,0.92,1.09,4.29,
4.034,0.88,-2.16,1.73,0.93,1.15,4.27,
4.037,0.88,-2.16,1.73,0.93,1.20,4.25,
4.037,1.11,-2.47,1.76,0.93,1.20,4.25,
4.039,1.11,-2.47,1.76,0.93,1.25,4.22,
4.042,1.11,-2.47,1.76,0.93,1.30,4.19,
4.045,1.34,-2.71,1.85,0.93,1.30,4.19,
4.045,1.34,-2.71,1.85,0.93,1.35,4.16,
4.047,1.34,-2.71,1.85,0.93,1.39,4.13,
4.047,1.53,-2.86,1.93,0.93,1.39,4.13,
4.049,1.53,-2.86,1.93,0.93,1.44,4.10,
4.052,1.53,-2.86,1.93,0.93,1.49,4.07,
4.07,1.73,-2.95,2.08,0.93,1.49,4.07,
4.071,1.73,-2.95,2.08,0.93,1.53,4.03,
4.071,1.91,-2.99,2.21,0.93,1.53,4.03,
4.071,1.91,-2.99,2.21,0.93,1.57,4.00,
4.071,1.91,-2.99,2.21,0.92,1.62,3.96,
4.071,2.08,-3.04,2.40,0.92,1.62,3.96,
4.072,2.08,-3.04,2.40,0.92,1.66,3.93,
4.072,2.08,-3.04,2.40,0.91,1.69,3.89,
4.072,2.08,-3.04,2.40,0.91,1.73,3.86,
4.072,2.18,-3.10,2.61,0.91,1.73,3.86,
4.073,2.18,-3.10,2.61,0.90,1.76,3.82,
4.073,2.21,-3.16,2.83,0.90,1.76,3.82,
4.073,2.21,-3.16,2.83,0.90,1.79,3.79,
4.075,2.21,-3.16,2.83,0.89,1.82,3.76,
4.078,2.21,-3.16,2.83,0.89,1.84,3.74,
4.078,2.20,-3.24,3.08,0.89,1.84,3.74,
4.079,2.20,-3.24,3.08,0.88,1.85,3.71,
4.082,2.17,-3.35,3.33,0.88,1.85,3.71,
4.082,2.17,-3.35,3.33,0.88,1.86,3.69,
4.084,2.17,-3.35,3.33,0.87,1.87,3.66,
4.088,2.14,-3.43,3.53,0.87,1.87,3.66,
4.088,2.14,-3.43,3.53,0.87,1.86,3.64,
4.093,2.14,-3.43,3.53,0.86,1.86,3.63,
4.093,2.14,-3.43,3.53,0.86,1.86,3.61,
4.093,2.15,-3.51,3.70,0.86,1.86,3.61,
4.096,2.15,-3.51,3.70,0.85,1.85,3.60,
4.098,2.15,-3.60,3.84,0.85,1.85,3.60,
4.098,2.15,-3.60,3.84,0.84,1.83,3.58,
4.1,2.15,-3.60,3.84,0.83,1.81,3.57,
4.102,2.15,-3.60,3.84,0.82,1.79,3.56,
4.102,2.12,-3.65,3.93,0.82,1.79,3.56,
4.104,2.12,-3.65,3.93,0.80,1.77,3.55,
4.106,2.12,-3.65,3.93,0.79,1.75,3.54,
4.106,2.08,-3.76,3.96,0.79,1.75,3.54,
4.109,2.08,-3.76,3.96,0.77,1.72,3.54,
4.116,2.00,-3.95,3.99,0.77,1.72,3.54,
4.116,2.00,-3.95,3.99,0.75,1.69,3.53,
4.117,2.00,-3.95,3.99,0.73,1.66,3.52,
4.117,2.00,-3.95,3.99,0.70,1.63,3.52,
4.118,1.90,-4.19,4.00,0.70,1.63,3.52,
4.119,1.90,-4.19,4.00,0.67,1.59,3.51,
4.121,1.90,-4.19,4.00,0.64,1.55,3.51,
4.122,1.81,-4.47,4.03,0.64,1.55,3.51,
4.125,1.81,-4.47,4.03,0.61,1.51,3.50,
4.151,1.81,-4.47,4.03,0.58,1.46,3.50,
4.152,1.73,-4.74,4.04,0.58,1.46,3.50,
4.152,1.73,-4.74,4.04,0.54,1.40,3.50,
4.153,1.67,-5.00,4.05,0.54,1.40,3.50,
4.153,1.67,-5.00,4.05,0.51,1.34,3.49,
4.154,1.67,-5.00,4.05,0.47,1.28,3.49,
4.155,1.67,-5.00,4.05,0.43,1.22,3.49,
4.155,1.64,-5.21,4.04,0.43,1.22,3.49,
4.155,1.64,-5.21,4.04,0.39,1.15,3.49,
4.156,1.63,-5.42,4.00,0.39,1.15,3.49,
4.156,1.63,-5.42,4.00,0.34,1.08,3.49,
4.156,1.63,-5.42,4.00,0.29,1.01,3.49,
4.157,1.63,-5.42,4.00,0.24,0.93,3.49,
4.157,1.65,-5.64,3.97,0.24,0.93,3.49,
4.157,1.65,-5.64,3.97,0.19,0.86,3.49,
4.158,1.71,-5.88,3.93,0.19,0.86,3.49,
4.158,1.71,-5.88,3.93,0.14,0.78,3.49,
4.158,1.71,-5.88,3.93,0.09,0.70,3.49,
4.158,1.71,-5.88,3.93,0.03,0.62,3.48,
4.159,1.85,-6.08,3.93,0.03,0.62,3.48,
4.159,1.85,-6.08,3.93,-0.02,0.53,3.48,
4.165,1.85,-6.08,3.93,-0.07,0.45,3.47,
4.166,1.98,-6.29,3.94,-0.07,0.45,3.47,
4.166,1.98,-6.29,3.94,-0.13,0.36,3.46,
4.166,1.98,-6.29,3.94,-0.17,0.27,3.45,
4.167,2.15,-6.50,3.96,-0.17,0.27,3.45,
4.168,2.15,-6.50,3.96,-0.23,0.18,3.44,
4.171,2.15,-6.50,3.96,-0.28,0.09,3.42,
4.172,2.42,-6.66,3.96,-0.28,0.09,3.42,
4.173,2.42,-6.66,3.96,-0.32,-0.00,3.41,
4.178,2.42,-6.66,3.96,-0.37,-0.09,3.39,
4.181,2.69,-6.82,3.93,-0.37,-0.09,3.39,
4.181,2.69,-6.82,3.93,-0.42,-0.17,3.37,
4.181,2.95,-6.96,3.90,-0.42,-0.17,3.37,
4.182,2.95,-6.96,3.90,-0.46,-0.25,3.35,
4.184,2.95,-6.96,3.90,-0.50,-0.32,3.33,
4.188,2.95,-6.96,3.90,-0.53,-0.39,3.31,
4.188,3.22,-7.13,3.92,-0.53,-0.39,3.31,
4.188,3.22,-7.13,3.92,-0.57,-0.46,3.29,
4.191,3.22,-7.13,3.92,-0.60,-0.52,3.26,
4.191,3.50,-7.28,3.94,-0.60,-0.52,3.26,
4.199,3.50,-7.28,3.94,-0.62,-0.59,3.23,
4.199,3.50,-7.28,3.94,-0.64,-0.65,3.21,
4.199,3.76,-7.42,4.00,-0.64,-0.65,3.21,
4.199,3.76,-7.42,4.00,-0.66,-0.70,3.17,
4.2,4.02,-7.53,4.13,-0.66,-0.70,3.17,
4.2,4.02,-7.53,4.13,-0.67,-0.75,3.14,
4.202,4.02,-7.53,4.13,-0.67,-0.80,3.11,
4.205,4.02,-7.53,4.13,-0.67,-0.85,3.07,
4.205,4.23,-7.58,4.28,-0.67,-0.85,3.07,
4.207,4.23,-7.58,4.28,-0.66,-0.89,3.04,
4.21,4.23,-7.58,4.28,-0.64,-0.93,3.01,
4.211,4.38,-7.62,4.42,-0.64,-0.93,3.01,
4.213,4.38,-7.62,4.42,-0.62,-0.96,2.97,
4.215,4.38,-7.62,4.42,-0.59,-0.99,2.94,
4.215,4.44,-7.72,4.56,-0.59,-0.99,2.94,
4.228,4.44,-7.72,4.56,-0.55,-1.01,2.91,
4.229,4.44,-7.72,4.56,-0.51,-1.03,2.88,
4.229,4.38,-7.98,4.63,-0.51,-1.03,2.88,
4.229,4.38,-7.98,4.63,-0.46,-1.05,2.84,
4.229,4.38,-7.98,4.63,-0.42,-1.05,2.81,
4.23,4.19,-8.43,4.60,-0.42,-1.05,2.81,
4.23,4.19,-8.43,4.60,-0.37,-1.06,2.78,
4.23,4.19,-8.43,4.60,-0.31,-1.08,2.75,
4.23,3.93,-9.03,4.53,-0.31,-1.08,2.75,
4.233,3.93,-9.03,4.53,-0.26,-1.08,2.73,
4.235,3.93,-9.03,4.53,-0.21,-1.09,2.70,
4.235,3.65,-9.72,4.38,-0.21,-1.09,2.70,
4.237,3.65,-9.72,4.38,-0.15,-1.10,2.68,
4.24,3.65,-9.72,4.38,-0.10,-1.11,2.66,
4.24,3.48,-10.36,4.18,-0.10,-1.11,2.66,
4.243,3.48,-10.36,4.18,-0.06,-1.12,2.64,
4.245,3.48,-10.36,4.18,-0.01,-1.13,2.62,
4.246,3.42,-10.92,3.97,-0.01,-1.13,2.62,
4.248,3.42,-10.92,3.97,0.04,-1.14,2.59,
4.25,3.42,-10.92,3.97,0.09,-1.14,2.56,
4.25,3.52,-11.42,3.73,0.09,-1.14,2.56,
4.252,3.52,-11.42,3.73,0.13,-1.15,2.53,
4.255,3.52,-11.42,3.73,0.17,-1.15,2.49,
4.255,3.77,-11.83,3.49,0.17,-1.15,2.49,
4.258,3.77,-11.83,3.49,0.21,-1.16,2.44,
4.26,3.77,-11.83,3.49,0.25,-1.15,2.39,
4.262,4.12,-12.17,3.24,0.25,-1.15,2.39,
4.263,4.12,-12.17,3.24,0.29,-1.15,2.33,
4.264,4.12,-12.17,3.24,0.33,-1.14,2.26,
4.265,4.52,-12.49,3.02,0.33,-1.14,2.26,
4.267,4.52,-12.49,3.02,0.36,-1.13,2.19,
4.27,4.52,-12.49,3.02,0.39,-1.11,2.11,
4.27,4.89,-12.82,2.76,0.39,-1.11,2.11,
4.272,4.89,-12.82,2.76,0.41,-1.09,2.02,
4.275,5.26,-13.21,2.48,0.41,-1.09,2.02,
4.275,5.26,-13.21,2.48,0.44,-1.07,1.93,
4.278,5.26,-13.21,2.48,0.46,-1.05,1.83,
4.28,5.65,-13.64,2.20,0.46,-1.05,1.83,
4.28,5.65,-13.64,2.20,0.48,-1.02,1.72,
4.282,5.65,-13.64,2.20,0.50,-0.99,1.60,
4.285,5.65,-13.64,2.20,0.51,-0.95,1.46,
4.285,6.11,-14.09,1.90,0.51,-0.95,1.46,
4.287,6.11,-14.09,1.90,0.52,-0.91,1.32,
4.29,6.57,-14.46,1.65,0.52,-0.91,1.32,
4.29,6.57,-14.46,1.65,0.53,-0.86,1.17,
4.292,6.57,-14.46,1.65,0.54,-0.80,1.00,
4.295,6.57,-14.46,1.65,0.54,-0.74,0.82,
4.3,7.04,-14.74,1.41,0.54,-0.74,0.82,
4.3,7.04,-14.74,1.41,0.54,-0.67,0.64,
4.3,7.04,-14.74,1.41,0.54,-0.59,0.44,
4.3,7.44,-14.93,1.20,0.54,-0.59,0.44,
4.302,7.44,-14.93,1.20,0.53,-0.51,0.23,
4.305,7.76,-15.05,1.08,0.53,-0.51,0.23,
4.305,7.76,-15.05,1.08,0.52,-0.42,0.01,
4.307,7.76,-15.05,1.08,0.52,-0.33,-0.22,
4.313,7.76,-15.05,1.08,0.51,-0.24,-0.45,
4.314,7.99,-15.10,1.03,0.51,-0.24,-0.45,
4.314,7.99,-15.10,1.03,0.49,-0.16,-0.69,
4.314,7.99,-15.10,1.03,0.48,-0.07,-0.94,
4.314,8.09,-15.11,1.14,0.48,-0.07,-0.94,
4.317,8.09,-15.11,1.14,0.47,0.01,-1.19,
4.319,7.96,-15.05,1.36,0.47,0.01,-1.19,
4.32,7.96,-15.05,1.36,0.47,0.09,-1.44,
4.321,7.96,-15.05,1.36,0.47,0.16,-1.69,
4.324,7.96,-15.05,1.36,0.49,0.23,-1.95,
4.324,7.54,-14.95,1.72,0.49,0.23,-1.95,
4.327,7.54,-14.95,1.72,0.51,0.30,-2.20,
4.33,7.54,-14.95,1.72,0.54,0.37,-2.45,
4.331,6.86,-14.87,2.17,0.54,0.37,-2.45,
4.332,6.86,-14.87,2.17,0.59,0.43,-2.69,
4.335,6.86,-14.87,2.17,0.65,0.49,-2.93,
4.335,5.94,-14.76,2.67,0.65,0.49,-2.93,
4.339,5.94,-14.76,2.67,0.71,0.55,-3.16,
4.339,4.95,-14.58,3.17,0.71,0.55,-3.16,
4.339,4.95,-14.58,3.17,0.79,0.59,-3.37,
4.341,4.95,-14.58,3.17,0.88,0.62,-3.58,
4.354,4.95,-14.58,3.17,0.98,0.63,-3.78,
4.355,4.95,-14.58,3.17,1.08,0.63,-3.97,
4.355,4.95,-14.58,3.17,1.18,0.61,-4.15,
4.355,4.95,-14.58,3.17,1.28,0.57,-4.34,
4.355,4.95,-14.58,3.17,1.39,0.52,-4.51,
4.355,3.95,-14.43,3.54,1.39,0.52,-4.51,
4.356,2.95,-14.37,3.74,1.39,0.52,-4.51,
4.356,2.13,-14.38,3.75,1.39,0.52,-4.51,
4.356,2.13,-14.38,3.75,1.49,0.45,-4.68,
4.36,2.13,-14.38,3.75,1.59,0.37,-4.85,
4.361,1.35,-14.37,3.58,1.59,0.37,-4.85,
4.363,1.35,-14.37,3.58,1.69,0.29,-5.01,
4.364,0.57,-14.25,3.24,1.69,0.29,-5.01,
4.364,0.57,-14.25,3.24,1.79,0.20,-5.17,
4.366,0.57,-14.25,3.24,1.88,0.12,-5.32,
4.369,0.57,-14.25,3.24,1.97,0.04,-5.47,
4.369,-0.20,-14.07,2.78,1.97,0.04,-5.47,
4.371,-0.20,-14.07,2.78,2.06,-0.03,-5.61,
4.374,-0.93,-13.84,2.18,2.06,-0.03,-5.61,
4.374,-0.93,-13.84,2.18,2.14,-0.09,-5.74,
4.381,-0.93,-13.84,2.18,2.22,-0.14,-5.87,
4.381,-0.93,-13.84,2.18,2.30,-0.18,-5.99,
4.381,-1.74,-13.55,1.48,2.30,-0.18,-5.99,
4.382,-1.74,-13.55,1.48,2.37,-0.21,-6.10,
4.403,-1.74,-13.55,1.48,2.44,-0.24,-6.20,
4.403,-2.63,-13.22,0.75,2.44,-0.24,-6.20,
4.403,-2.63,-13.22,0.75,2.52,-0.25,-6.29,
4.404,-3.55,-12.84,-0.00,2.52,-0.25,-6.29,
4.404,-3.55,-12.84,-0.00,2.59,-0.26,-6.37,
4.404,-3.55,-12.84,-0.00,2.66,-0.25,-6.44,
4.404,-3.55,-12.84,-0.00,2.72,-0.24,-6.50,
4.404,-4.45,-12.48,-0.77,2.72,-0.24,-6.50,
4.404,-4.45,-12.48,-0.77,2.79,-0.21,-6.54,
4.405,-4.45,-12.48,-0.77,2.85,-0.17,-6.58,
4.405,-5.32,-12.06,-1.56,2.85,-0.17,-6.58,
4.406,-5.32,-12.06,-1.56,2.90,-0.13,-6.60,
4.406,-5.32,-12.06,-1.56,2.95,-0.08,-6.62,
4.406,-6.08,-11.59,-2.28,2.95,-0.08,-6.62,
4.406,-6.08,-11.59,-2.28,3.00,-0.02,-6.62,
4.411,-6.67,-11.09,-2.90,3.00,-0.02,-6.62,
4.412,-6.67,-11.09,-2.90,3.04,0.04,-6.61,
4.413,-6.67,-11.09,-2.90,3.07,0.10,-6.60,
4.414,-6.67,-11.09,-2.90,3.10,0.17,-6.59,
4.414,-7.13,-10.57,-3.51,3.10,0.17,-6.59,
4.416,-7.13,-10.57,-3.51,3.12,0.24,-6.57,
4.419,-7.13,-10.57,-3.51,3.13,0.32,-6.55,
4.419,-7.53,-10.04,-4.05,3.13,0.32,-6.55,
4.421,-7.53,-10.04,-4.05,3.14,0.39,-6.52,
4.423,-7.53,-10.04,-4.05,3.13,0.46,-6.49,
4.424,-7.95,-9.41,-4.54,3.13,0.46,-6.49,
4.426,-7.95,-9.41,-4.54,3.13,0.53,-6.46,
4.429,-7.95,-9.41,-4.54,3.12,0.60,-6.42,
4.43,-8.43,-8.64,-4.91,3.12,0.60,-6.42,
4.431,-8.43,-8.64,-4.91,3.10,0.66,-6.37,
4.433,-8.43,-8.64,-4.91,3.07,0.72,-6.31,
4.434,-8.83,-7.76,-5.17,3.07,0.72,-6.31,
4.436,-8.83,-7.76,-5.17,3.05,0.78,-6.25,
4.438,-8.83,-7.76,-5.17,3.01,0.83,-6.17,
4.438,-9.17,-6.85,-5.38,3.01,0.83,-6.17,
4.44,-9.17,-6.85,-5.38,2.97,0.87,-6.09,
4.445,-9.17,-6.85,-5.38,2.93,0.92,-6.00,
4.445,-9.36,-5.93,-5.48,2.93,0.92,-6.00,
4.446,-9.36,-5.93,-5.48,2.88,0.96,-5.91,
4.448,-9.36,-5.93,-5.48,2.83,0.99,-5.82,
4.449,-9.43,-5.03,-5.47,2.83,0.99,-5.82,
4.45,-9.43,-5.03,-5.47,2.77,1.01,-5.73,
4.453,-9.43,-5.03,-5.47,2.72,1.03,-5.64,
4.453,-9.45,-4.13,-5.40,2.72,1.03,-5.64,
4.455,-9.45,-4.13,-5.40,2.66,1.04,-5.54,
4.458,-9.45,-4.13,-5.40,2.61,1.04,-5.45,
4.458,-9.42,-3.25,-5.23,2.61,1.04,-5.45,
4.461,-9.42,-3.25,-5.23,2.55,1.03,-5.36,
4.463,-9.40,-2.35,-5.02,2.55,1.03,-5.36,
4.463,-9.40,-2.35,-5.02,2.50,1.02,-5.26,
4.465,-9.40,-2.35,-5.02,2.45,1.01,-5.17,
4.468,-9.40,-2.35,-5.02,2.40,0.98,-5.08,
4.469,-9.40,-1.40,-4.87,2.40,0.98,-5.08,
4.471,-9.40,-1.40,-4.87,2.34,0.95,-4.98,
4.473,-9.40,-1.40,-4.87,2.28,0.93,-4.88,
4.473,-9.39,-0.44,-4.79,2.28,0.93,-4.88,
4.475,-9.39,-0.44,-4.79,2.21,0.89,-4.77,
4.478,-9.39,-0.44,-4.79,2.15,0.86,-4.66,
4.479,-9.40,0.55,-4.78,2.15,0.86,-4.66,
4.48,-9.40,0.55,-4.78,2.07,0.82,-4.54,
4.483,-9.36,1.43,-4.83,2.07,0.82,-4.54,
4.483,-9.36,1.43,-4.83,2.00,0.78,-4.42,
4.485,-9.36,1.43,-4.83,1.91,0.74,-4.30,
4.488,-9.36,1.43,-4.83,1.83,0.69,-4.17,
4.488,-9.24,2.26,-4.84,1.83,0.69,-4.17,
4.491,-9.24,2.26,-4.84,1.74,0.65,-4.04,
4.501,-9.05,3.00,-4.80,1.74,0.65,-4.04,
4.501,-9.05,3.00,-4.80,1.64,0.61,-3.91,
4.501,-9.05,3.00,-4.80,1.54,0.57,-3.77,
4.502,-9.05,3.00,-4.80,1.44,0.54,-3.64,
4.502,-8.76,3.67,-4.64,1.44,0.54,-3.64,
4.502,-8.76,3.67,-4.64,1.34,0.50,-3.51,
4.503,-8.76,3.67,-4.64,1.25,0.47,-3.38,
4.503,-8.44,4.23,-4.37,1.25,0.47,-3.38,
4.505,-8.44,4.23,-4.37,1.15,0.43,-3.25,
4.508,-8.44,4.23,-4.37,1.06,0.39,-3.13,
4.508,-8.08,4.72,-4.00,1.06,0.39,-3.13,
4.511,-8.08,4.72,-4.00,0.98,0.36,-3.01,
4.514,-7.73,5.08,-3.57,0.98,0.36,-3.01,
4.515,-7.73,5.08,-3.57,0.90,0.32,-2.90,
4.515,-7.73,5.08,-3.57,0.83,0.29,-2.80,
4.518,-7.73,5.08,-3.57,0.77,0.25,-2.69,
4.518,-7.37,5.37,-3.16,0.77,0.25,-2.69,
4.52,-7.37,5.37,-3.16,0.71,0.22,-2.60,
4.522,-7.37,5.37,-3.16,0.66,0.20,-2.50,
4.523,-7.07,5.56,-2.77,0.66,0.20,-2.50,
4.527,-7.07,5.56,-2.77,0.62,0.17,-2.42,
4.528,-6.80,5.67,-2.44,0.62,0.17,-2.42,
4.528,-6.80,5.67,-2.44,0.59,0.15,-2.33,
4.53,-6.80,5.67,-2.44,0.56,0.13,-2.25,
4.533,-6.57,5.74,-2.05,0.56,0.13,-2.25,
4.533,-6.57,5.74,-2.05,0.54,0.11,-2.17,
4.535,-6.57,5.74,-2.05,0.53,0.09,-2.09,
4.537,-6.57,5.74,-2.05,0.53,0.08,-2.02,
4.538,-6.39,5.76,-1.70,0.53,0.08,-2.02,
4.54,-6.39,5.76,-1.70,0.54,0.06,-1.95,
4.542,-6.39,5.76,-1.70,0.55,0.05,-1.88,
4.543,-6.24,5.75,-1.38,0.55,0.05,-1.88,
4.546,-6.24,5.75,-1.38,0.57,0.05,-1.82,
4.548,-6.24,5.75,-1.38,0.60,0.04,-1.75,
4.558,-6.06,5.69,-1.09,0.60,0.04,-1.75,
4.558,-6.06,5.69,-1.09,0.64,0.04,-1.70,
4.558,-6.06,5.69,-1.09,0.68,0.04,-1.64,
4.558,-5.84,5.61,-0.87,0.68,0.04,-1.64,
4.559,-5.84,5.61,-0.87,0.73,0.04,-1.59,
4.559,-5.63,5.52,-0.74,0.73,0.04,-1.59,
4.559,-5.63,5.52,-0.74,0.79,0.05,-1.54,
4.56,-5.63,5.52,-0.74,0.85,0.07,-1.50,
4.563,-5.63,5.52,-0.74,0.92,0.09,-1.46,
4.563,-5.40,5.47,-0.65,0.92,0.09,-1.46,
4.567,-5.40,5.47,-0.65,1.00,0.12,-1.42,
4.568,-5.40,5.47,-0.65,1.08,0.15,-1.38,
4.568,-5.18,5.41,-0.60,1.08,0.15,-1.38,
4.57,-5.18,5.41,-0.60,1.16,0.18,-1.35,
4.572,-5.04,5.38,-0.58,1.16,0.18,-1.35,
4.572,-5.04,5.38,-0.58,1.25,0.22,-1.32,
4.574,-5.04,5.38,-0.58,1.34,0.26,-1.30,
4.582,-5.04,5.38,-0.58,1.44,0.31,-1.28,
4.582,-4.91,5.32,-0.63,1.44,0.31,-1.28,
4.582,-4.91,5.32,-0.63,1.53,0.36,-1.26,
4.582,-4.91,5.32,-0.63,1.63,0.41,-1.24,
4.582,-4.81,5.23,-0.74,1.63,0.41,-1.24,
4.584,-4.81,5.23,-0.74,1.73,0.46,-1.23,
4.589,-4.81,5.23,-0.74,1.83,0.52,-1.22,
4.589,-4.70,5.10,-0.93,1.83,0.52,-1.22,
4.59,-4.70,5.10,-0.93,1.93,0.57,-1.21,
4.593,-4.70,5.10,-0.93,2.03,0.63,-1.21,
4.594,-4.64,4.99,-1.16,2.03,0.63,-1.21,
4.595,-4.64,4.99,-1.16,2.13,0.69,-1.21,
4.597,-4.64,4.99,-1.16,2.23,0.76,-1.21,
4.597,-4.68,4.84,-1.42,2.23,0.76,-1.21,
4.599,-4.68,4.84,-1.42,2.32,0.82,-1.21,
4.602,-4.68,4.84,-1.42,2.42,0.88,-1.21,
4.602,-4.73,4.63,-1.74,2.42,0.88,-1.21,
4.604,-4.73,4.63,-1.74,2.51,0.95,-1.21,
4.607,-4.73,4.63,-1.74,2.60,1.01,-1.22,
4.607,-4.74,4.40,-2.09,2.60,1.01,-1.22,
4.61,-4.74,4.40,-2.09,2.68,1.08,-1.23,
4.613,-4.74,4.40,-2.09,2.77,1.14,-1.24,
4.615,-4.74,4.24,-2.45,2.77,1.14,-1.24,
4.615,-4.74,4.24,-2.45,2.85,1.20,-1.25,
4.617,-4.76,4.13,-2.83,2.85,1.20,-1.25,
4.617,-4.76,4.13,-2.83,2.92,1.27,-1.27,
4.619,-4.76,4.13,-2.83,2.99,1.32,-1.28,
4.622,-4.82,4.07,-3.22,2.99,1.32,-1.28,
4.622,-4.82,4.07,-3.22,3.06,1.38,-1.30,
4.625,-4.82,4.07,-3.22,3.12,1.44,-1.32,
4.631,-4.83,4.01,-3.71,3.12,1.44,-1.32,
4.631,-4.83,4.01,-3.71,3.17,1.50,-1.34,
4.633,-4.83,4.01,-3.71,3.22,1.55,-1.36,
4.634,-4.83,3.92,-4.20,3.22,1.55,-1.36,
4.634,-4.83,3.92,-4.20,3.26,1.61,-1.39,
4.635,-4.83,3.92,-4.20,3.29,1.66,-1.42,
4.637,-4.83,3.92,-4.20,3.31,1.70,-1.45,
4.637,-4.85,3.84,-4.69,3.31,1.70,-1.45,
4.64,-4.85,3.84,-4.69,3.32,1.74,-1.48,
4.643,-4.85,3.84,-4.69,3.33,1.78,-1.52,
4.643,-4.91,3.81,-5.14,3.33,1.78,-1.52,
4.649,-4.91,3.81,-5.14,3.33,1.81,-1.56,
4.649,-5.08,3.86,-5.55,3.33,1.81,-1.56,
4.649,-5.08,3.86,-5.55,3.31,1.85,-1.60,
4.651,-5.08,3.86,-5.55,3.29,1.88,-1.63,
4.653,-5.39,3.90,-6.01,3.29,1.88,-1.63,
4.654,-5.39,3.90,-6.01,3.26,1.91,-1.66,
4.654,-5.39,3.90,-6.01,3.23,1.95,-1.69,
4.657,-5.39,3.90,-6.01,3.18,1.98,-1.72,
4.657,-5.75,3.85,-6.41,3.18,1.98,-1.72,
4.659,-5.75,3.85,-6.41,3.13,2.00,-1.75,
4.663,-6.09,3.76,-6.70,3.13,2.00,-1.75,
4.666,-6.09,3.76,-6.70,3.07,2.02,-1.77,
4.666,-6.09,3.76,-6.70,3.00,2.03,-1.79,
4.667,-6.09,3.76,-6.70,2.93,2.05,-1.80,
4.667,-6.37,3.72,-6.94,2.93,2.05,-1.80,
4.669,-6.37,3.72,-6.94,2.85,2.07,-1.81,
4.671,-6.37,3.72,-6.94,2.77,2.09,-1.81,
4.672,-6.66,3.83,-7.11,2.77,2.09,-1.81,
4.674,-6.66,3.83,-7.11,2.68,2.13,-1.81,
4.677,-6.66,3.83,-7.11,2.59,2.16,-1.80,
4.683,-6.95,3.98,-7.18,2.59,2.16,-1.80,
4.684,-6.95,3.98,-7.18,2.51,2.20,-1.79,
4.684,-6.95,3.98,-7.18,2.42,2.24,-1.78,
4.684,-7.23,4.07,-7.15,2.42,2.24,-1.78,
4.684,-7.23,4.07,-7.15,2.33,2.28,-1.77,
4.686,-7.23,4.07,-7.15,2.25,2.32,-1.76,
4.688,-7.50,4.06,-7.01,2.25,2.32,-1.76,
4.689,-7.50,4.06,-7.01,2.17,2.36,-1.75,
4.691,-7.50,4.06,-7.01,2.09,2.40,-1.74,
4.691,-7.79,3.99,-6.84,2.09,2.40,-1.74,
4.708,-7.79,3.99,-6.84,2.01,2.44,-1.73,
4.709,-7.79,3.99,-6.84,1.94,2.48,-1.72,
4.709,-8.11,3.79,-6.59,1.94,2.48,-1.72,
4.709,-8.11,3.79,-6.59,1.86,2.53,-1.71,
4.709,-8.51,3.48,-6.37,1.86,2.53,-1.71,
4.71,-8.51,3.48,-6.37,1.79,2.57,-1.70,
4.71,-8.51,3.48,-6.37,1.71,2.62,-1.69,
4.71,-8.51,3.48,-6.37,1.64,2.67,-1.67,
4.71,-9.00,3.14,-6.15,1.64,2.67,-1.67,
4.71,-9.00,3.14,-6.15,1.57,2.72,-1.66,
4.715,-9.59,2.69,-5.96,1.57,2.72,-1.66,
4.716,-9.59,2.69,-5.96,1.50,2.78,-1.64,
4.73,-9.59,2.69,-5.96,1.42,2.84,-1.62,
4.731,-9.59,2.69,-5.96,1.35,2.90,-1.60,
4.731,-10.19,2.19,-5.73,1.35,2.90,-1.60,
4.731,-10.19,2.19,-5.73,1.28,2.96,-1.58,
4.732,-10.19,2.19,-5.73,1.21,3.02,-1.55,
4.732,-10.89,1.69,-5.46,1.21,3.02,-1.55,
4.732,-10.89,1.69,-5.46,1.14,3.09,-1.51,
4.732,-10.89,1.69,-5.46,1.08,3.15,-1.47,
4.733,-11.58,1.26,-5.13,1.08,3.15,-1.47,
4.733,-11.58,1.26,-5.13,1.02,3.22,-1.43,
4.733,-11.58,1.26,-5.13,0.96,3.28,-1.39,
4.734,-12.23,0.97,-4.69,0.96,3.28,-1.39,
4.734,-12.23,0.97,-4.69,0.92,3.35,-1.34,
4.737,-12.23,0.97,-4.69,0.87,3.42,-1.28,
4.737,-12.71,0.84,-4.32,0.87,3.42,-1.28,
4.738,-12.71,0.84,-4.32,0.83,3.50,-1.22,
4.741,-12.71,0.84,-4.32,0.79,3.58,-1.16,
4.741,-13.08,0.85,-3.98,0.79,3.58,-1.16,
4.743,-13.08,0.85,-3.98,0.77,3.67,-1.10,
4.747,-13.34,0.97,-3.61,0.77,3.67,-1.10,
4.747,-13.34,0.97,-3.61,0.74,3.76,-1.04,
4.748,-13.34,0.97,-3.61,0.71,3.85,-0.98,
4.751,-13.34,0.97,-3.61,0.70,3.94,-0.91,
4.751,-13.46,1.20,-3.24,0.70,3.94,-0.91,
4.753,-13.46,1.20,-3.24,0.68,4.04,-0.85,
4.756,-13.46,1.20,-3.24,0.67,4.13,-0.78,
4.756,-13.51,1.52,-2.84,0.67,4.13,-0.78,
4.758,-13.51,1.52,-2.84,0.66,4.23,-0.72,
4.761,-13.51,1.52,-2.84,0.65,4.32,-0.65,
4.762,-13.49,1.89,-2.45,0.65,4.32,-0.65,
4.763,-13.49,1.89,-2.45,0.64,4.42,-0.57,
4.766,-13.44,2.35,-2.04,0.64,4.42,-0.57,
4.766,-13.44,2.35,-2.04,0.63,4.51,-0.50,
4.768,-13.44,2.35,-2.04,0.62,4.60,-0.41,
4.771,-13.33,2.82,-1.66,0.62,4.60,-0.41,
4.771,-13.33,2.82,-1.66,0.61,4.69,-0.32,
4.774,-13.33,2.82,-1.66,0.60,4.76,-0.23,
4.776,-13.33,2.82,-1.66,0.58,4.84,-0.12,
4.776,-13.18,3.28,-1.27,0.58,4.84,-0.12,
4.78,-13.18,3.28,-1.27,0.56,4.90,-0.01,
4.786,-12.97,3.71,-0.90,0.56,4.90,-0.01,
4.786,-12.97,3.71,-0.90,0.54,4.96,0.11,
4.786,-12.97,3.71,-0.90,0.52,5.00,0.23,
4.786,-12.97,3.71,-0.90,0.48,5.04,0.36,
4.787,-12.73,4.05,-0.52,0.48,5.04,0.36,
4.788,-12.73,4.05,-0.52,0.45,5.07,0.50,
4.791,-12.73,4.05,-0.52,0.41,5.09,0.64,
4.791,-12.47,4.27,-0.18,0.41,5.09,0.64,
4.793,-12.47,4.27,-0.18,0.37,5.10,0.79,
4.807,-12.47,4.27,-0.18,0.32,5.11,0.94,
4.807,-12.28,4.31,0.20,0.32,5.11,0.94,
4.807,-12.28,4.31,0.20,0.27,5.10,1.10,
4.807,-12.07,4.12,0.57,0.27,5.10,1.10,
4.808,-12.07,4.12,0.57,0.22,5.09,1.26,
4.808,-12.07,4.12,0.57,0.16,5.06,1.42,
4.808,-12.07,4.12,0.57,0.11,5.03,1.57,
4.808,-11.89,3.70,1.00,0.11,5.03,1.57,
4.808,-11.89,3.70,1.00,0.05,4.99,1.73,
4.81,-11.89,3.70,1.00,-0.00,4.94,1.89,
4.81,-11.68,3.14,1.48,-0.00,4.94,1.89,
4.813,-11.68,3.14,1.48,-0.06,4.88,2.05,
4.815,-11.68,3.14,1.48,-0.11,4.81,2.21,
4.815,-11.47,2.48,1.97,-0.11,4.81,2.21,
4.817,-11.47,2.48,1.97,-0.16,4.74,2.36,
4.82,-11.47,2.48,1.97,-0.20,4.67,2.51,
4.82,-11.23,1.75,2.45,-0.20,4.67,2.51,
4.822,-11.23,1.75,2.45,-0.24,4.59,2.66,
4.825,-11.23,1.75,2.45,-0.29,4.51,2.80,
4.826,-10.90,0.95,2.83,-0.29,4.51,2.80,
4.829,-10.90,0.95,2.83,-0.33,4.43,2.92,
4.83,-10.90,0.95,2.83,-0.36,4.35,3.04,
4.831,-10.54,0.04,3.12,-0.36,4.35,3.04,
4.832,-10.54,0.04,3.12,-0.40,4.26,3.15,
4.835,-10.54,0.04,3.12,-0.44,4.17,3.25,
4.835,-10.13,-0.93,3.29,-0.44,4.17,3.25,
4.839,-10.13,-0.93,3.29,-0.47,4.08,3.33,
4.84,-9.70,-1.95,3.40,-0.47,4.08,3.33,
4.84,-9.70,-1.95,3.40,-0.51,3.99,3.41,
4.842,-9.70,-1.95,3.40,-0.55,3.90,3.47,
4.845,-9.70,-1.95,3.40,-0.59,3.81,3.52,
4.848,-9.29,-2.96,3.43,-0.59,3.81,3.52,
4.848,-9.29,-2.96,3.43,-0.64,3.72,3.56,
4.85,-8.90,-3.98,3.44,-0.64,3.72,3.56,
4.85,-8.90,-3.98,3.44,-0.68,3.64,3.59,
4.852,-8.90,-3.98,3.44,-0.73,3.55,3.60,
4.855,-8.40,-4.90,3.47,-0.73,3.55,3.60,
4.855,-8.40,-4.90,3.47,-0.78,3.46,3.60,
4.857,-8.40,-4.90,3.47,-0.84,3.37,3.59,
4.861,-8.40,-4.90,3.47,-0.90,3.27,3.57,
4.861,-7.84,-5.60,3.56,-0.90,3.27,3.57,
4.863,-7.84,-5.60,3.56,-0.96,3.18,3.54,
4.865,-7.84,-5.60,3.56,-1.02,3.09,3.50,
