
time,ax,ay,az,wx,wy,wz,
0.007,1.16,0.35,-0.91,0.16,0.46,1.01,
0.008,1.16,0.35,-0.91,0.14,0.46,1.00,
0.008,1.16,0.35,-0.91,0.12,0.46,0.99,
0.008,1.16,0.35,-0.91,0.09,0.45,0.98,
0.008,1.06,0.44,-0.89,0.09,0.45,0.98,
0.008,1.06,0.44,-0.89,0.07,0.45,0.98,
0.008,1.06,0.44,-0.89,0.05,0.44,0.98,
0.009,0.96,0.49,-0.87,0.05,0.44,0.98,
0.01,0.96,0.49,-0.87,0.03,0.42,0.97,
0.013,0.96,0.49,-0.87,0.02,0.41,0.97,
0.013,0.91,0.50,-0.83,0.02,0.41,0.97,
0.015,0.91,0.50,-0.83,-0.00,0.39,0.97,
0.017,0.91,0.50,-0.83,-0.01,0.38,0.97,
0.018,0.90,0.51,-0.71,-0.01,0.38,0.97,
0.02,0.90,0.51,-0.71,-0.02,0.36,0.97,
0.022,0.90,0.51,-0.71,-0.03,0.35,0.97,
0.022,0.93,0.49,-0.55,-0.03,0.35,0.97,
0.025,0.93,0.49,-0.55,-0.04,0.33,0.97,
0.027,0.92,0.49,-0.37,-0.04,0.33,0.97,
0.027,0.92,0.49,-0.37,-0.04,0.32,0.97,
0.03,0.92,0.49,-0.37,-0.04,0.30,0.96,
0.033,0.95,0.47,-0.26,-0.04,0.30,0.96,
0.033,0.95,0.47,-0.26,-0.04,0.29,0.96,
0.034,0.95,0.47,-0.26,-0.04,0.28,0.95,
0.037,0.98,0.44,-0.15,-0.04,0.28,0.95,
0.037,0.98,0.44,-0.15,-0.04,0.26,0.95,
0.042,0.98,0.44,-0.15,-0.04,0.25,0.95,
0.042,0.98,0.44,-0.15,-0.04,0.24,0.94,
0.042,1.04,0.44,-0.11,-0.04,0.24,0.94,
0.045,1.04,0.44,-0.11,-0.05,0.23,0.94,
0.049,1.04,0.44,-0.11,-0.05,0.22,0.93,
0.049,1.09,0.39,-0.11,-0.05,0.22,0.93,
0.05,1.09,0.39,-0.11,-0.06,0.21,0.92,
0.052,1.09,0.39,-0.11,-0.06,0.21,0.92,
0.052,1.13,0.40,-0.13,-0.06,0.21,0.92,
0.055,1.13,0.40,-0.13,-0.07,0.20,0.91,
0.057,1.12,0.39,-0.17,-0.07,0.20,0.91,
0.057,1.12,0.39,-0.17,-0.08,0.20,0.90,
0.059,1.12,0.39,-0.17,-0.08,0.20,0.90,
0.064,1.09,0.41,-0.21,-0.08,0.20,0.90,
0.064,1.09,0.41,-0.21,-0.09,0.20,0.89,
0.065,1.09,0.41,-0.21,-0.10,0.19,0.89,
0.067,1.11,0.41,-0.26,-0.10,0.19,0.89,
0.067,1.11,0.41,-0.26,-0.11,0.19,0.88,
0.069,1.11,0.41,-0.26,-0.13,0.18,0.88,
0.072,1.11,0.41,-0.26,-0.14,0.18,0.87,
0.072,1.02,0.37,-0.37,-0.14,0.18,0.87,
0.074,1.02,0.37,-0.37,-0.15,0.17,0.87,
0.077,1.02,0.37,-0.37,-0.16,0.17,0.87,
0.078,1.02,0.36,-0.47,-0.16,0.17,0.87,
0.08,1.02,0.36,-0.47,-0.18,0.16,0.86,
0.082,1.08,0.33,-0.54,-0.18,0.16,0.86,
0.083,1.08,0.33,-0.54,-0.19,0.16,0.86,
0.084,1.08,0.33,-0.54,-0.20,0.15,0.85,
0.087,1.08,0.33,-0.54,-0.22,0.15,0.85,
0.087,1.12,0.32,-0.59,-0.22,0.15,0.85,
0.089,1.12,0.32,-0.59,-0.23,0.15,0.84,
0.092,1.12,0.32,-0.59,-0.24,0.14,0.83,
0.092,1.17,0.27,-0.65,-0.24,0.14,0.83,
0.094,1.17,0.27,-0.65,-0.25,0.14,0.82,
0.097,1.17,0.27,-0.65,-0.26,0.14,0.81,
0.097,1.19,0.20,-0.64,-0.26,0.14,0.81,
0.099,1.19,0.20,-0.64,-0.27,0.13,0.81,
0.102,1.19,0.20,-0.64,-0.28,0.13,0.80,
0.102,1.17,0.15,-0.63,-0.28,0.13,0.80,
0.104,1.17,0.15,-0.63,-0.28,0.12,0.79,
0.106,1.17,0.15,-0.63,-0.29,0.12,0.79,
0.107,1.12,0.09,-0.60,-0.29,0.12,0.79,
0.109,1.12,0.09,-0.60,-0.29,0.12,0.78,
0.111,1.12,0.09,-0.60,-0.29,0.12,0.78,
0.112,1.06,0.04,-0.60,-0.29,0.12,0.78,
0.114,1.06,0.04,-0.60,-0.30,0.12,0.78,
0.117,1.06,0.04,-0.60,-0.30,0.12,0.77,
0.117,0.99,-0.01,-0.64,-0.30,0.12,0.77,
0.119,0.99,-0.01,-0.64,-0.30,0.13,0.77,
0.122,0.99,-0.01,-0.64,-0.30,0.13,0.77,
0.122,0.95,-0.04,-0.70,-0.30,0.13,0.77,
0.124,0.95,-0.04,-0.70,-0.30,0.14,0.77,
0.126,0.95,-0.04,-0.70,-0.30,0.15,0.76,
0.126,0.97,-0.08,-0.70,-0.30,0.15,0.76,
0.129,0.97,-0.08,-0.70,-0.30,0.15,0.76,
0.132,0.97,-0.08,-0.70,-0.30,0.16,0.76,
0.132,0.98,-0.09,-0.72,-0.30,0.16,0.76,
0.134,0.98,-0.09,-0.72,-0.30,0.16,0.76,
0.136,0.98,-0.09,-0.72,-0.29,0.17,0.76,
0.136,0.95,-0.11,-0.70,-0.29,0.17,0.76,
0.139,0.95,-0.11,-0.70,-0.29,0.18,0.76,
0.141,0.95,-0.11,-0.70,-0.29,0.18,0.75,
0.141,0.93,-0.15,-0.69,-0.29,0.18,0.75,
0.144,0.93,-0.15,-0.69,-0.28,0.19,0.75,
0.148,0.93,-0.15,-0.69,-0.28,0.20,0.75,
0.148,0.90,-0.21,-0.67,-0.28,0.20,0.75,
0.149,0.90,-0.21,-0.67,-0.27,0.20,0.75,
0.151,0.87,-0.29,-0.65,-0.27,0.20,0.75,
0.152,0.87,-0.29,-0.65,-0.27,0.21,0.74,
0.154,0.87,-0.29,-0.65,-0.26,0.21,0.74,
0.156,0.87,-0.29,-0.65,-0.26,0.22,0.73,
0.156,0.88,-0.39,-0.67,-0.26,0.22,0.73,
0.158,0.88,-0.39,-0.67,-0.25,0.22,0.72,
0.161,0.88,-0.39,-0.67,-0.25,0.22,0.72,
0.161,0.91,-0.46,-0.68,-0.25,0.22,0.72,
0.164,0.91,-0.46,-0.68,-0.24,0.22,0.71,
0.166,0.91,-0.46,-0.68,-0.23,0.23,0.70,
0.166,0.97,-0.51,-0.67,-0.23,0.23,0.70,
0.169,0.97,-0.51,-0.67,-0.23,0.23,0.68,
0.171,0.97,-0.51,-0.67,-0.22,0.24,0.67,
0.171,0.98,-0.56,-0.63,-0.22,0.24,0.67,
0.173,0.98,-0.56,-0.63,-0.22,0.25,0.65,
0.176,0.98,-0.56,-0.63,-0.21,0.25,0.64,
0.176,1.00,-0.60,-0.62,-0.21,0.25,0.64,
0.178,1.00,-0.60,-0.62,-0.20,0.26,0.62,
0.181,1.00,-0.60,-0.62,-0.19,0.27,0.61,
0.181,0.97,-0.62,-0.60,-0.19,0.27,0.61,
0.184,0.97,-0.62,-0.60,-0.19,0.28,0.59,
0.186,0.97,-0.62,-0.60,-0.18,0.28,0.58,
0.186,0.92,-0.63,-0.58,-0.18,0.28,0.58,
0.188,0.92,-0.63,-0.58,-0.17,0.29,0.57,
0.191,0.92,-0.63,-0.58,-0.16,0.30,0.55,
0.191,0.83,-0.65,-0.54,-0.16,0.30,0.55,
0.194,0.83,-0.65,-0.54,-0.16,0.31,0.54,
0.197,0.83,-0.65,-0.54,-0.15,0.32,0.53,
0.197,0.75,-0.65,-0.51,-0.15,0.32,0.53,
0.199,0.75,-0.65,-0.51,-0.15,0.33,0.52,
0.201,0.75,-0.65,-0.51,-0.15,0.34,0.51,
0.201,0.66,-0.63,-0.47,-0.15,0.34,0.51,
0.203,0.66,-0.63,-0.47,-0.14,0.35,0.50,
0.206,0.66,-0.63,-0.47,-0.14,0.36,0.50,
0.206,0.60,-0.66,-0.46,-0.14,0.36,0.50,
0.208,0.60,-0.66,-0.46,-0.14,0.36,0.49,
0.21,0.60,-0.66,-0.46,-0.14,0.38,0.48,
0.211,0.58,-0.66,-0.44,-0.14,0.38,0.48,
0.213,0.58,-0.66,-0.44,-0.15,0.38,0.47,
0.216,0.58,-0.66,-0.44,-0.15,0.39,0.46,
0.216,0.56,-0.67,-0.43,-0.15,0.39,0.46,
0.218,0.56,-0.67,-0.43,-0.15,0.40,0.45,
0.22,0.56,-0.67,-0.43,-0.15,0.41,0.44,
0.221,0.56,-0.68,-0.40,-0.15,0.41,0.44,
0.223,0.56,-0.68,-0.40,-0.16,0.43,0.44,
0.226,0.56,-0.68,-0.40,-0.16,0.44,0.43,
0.226,0.55,-0.63,-0.36,-0.16,0.44,0.43,
0.228,0.55,-0.63,-0.36,-0.17,0.45,0.42,
0.231,0.55,-0.63,-0.36,-0.18,0.47,0.41,
0.231,0.51,-0.57,-0.29,-0.18,0.47,0.41,
0.233,0.51,-0.57,-0.29,-0.19,0.49,0.41,
0.235,0.50,-0.53,-0.21,-0.19,0.49,0.41,
0.236,0.50,-0.53,-0.21,-0.20,0.50,0.40,
0.238,0.50,-0.53,-0.21,-0.21,0.51,0.40,
0.24,0.50,-0.53,-0.21,-0.22,0.52,0.39,
0.254,0.44,-0.48,-0.13,-0.22,0.52,0.39,
0.254,0.44,-0.48,-0.13,-0.24,0.53,0.39,
0.254,0.44,-0.48,-0.13,-0.25,0.54,0.39,
0.255,0.38,-0.42,-0.05,-0.25,0.54,0.39,
0.255,0.38,-0.42,-0.05,-0.26,0.54,0.39,
0.255,0.30,-0.41,0.05,-0.26,0.54,0.39,
0.255,0.30,-0.41,0.05,-0.28,0.55,0.38,
0.256,0.30,-0.41,0.05,-0.29,0.55,0.38,
0.256,0.23,-0.38,0.17,-0.29,0.55,0.38,
0.256,0.23,-0.38,0.17,-0.31,0.55,0.38,
0.262,0.23,-0.38,0.17,-0.33,0.56,0.38,
0.262,0.23,-0.38,0.17,-0.34,0.56,0.38,
0.262,0.15,-0.37,0.26,-0.34,0.56,0.38,
0.264,0.15,-0.37,0.26,-0.35,0.56,0.38,
0.266,0.10,-0.37,0.35,-0.35,0.56,0.38,
0.266,0.10,-0.37,0.35,-0.36,0.56,0.38,
0.268,0.10,-0.37,0.35,-0.38,0.55,0.39,
0.27,0.05,-0.40,0.44,-0.38,0.55,0.39,
0.271,0.05,-0.40,0.44,-0.38,0.55,0.39,
0.273,0.05,-0.40,0.44,-0.39,0.55,0.39,
0.275,0.05,-0.40,0.44,-0.40,0.55,0.39,
0.275,0.02,-0.39,0.54,-0.40,0.55,0.39,
0.277,0.02,-0.39,0.54,-0.40,0.54,0.39,
0.281,0.02,-0.39,0.54,-0.40,0.54,0.39,
0.281,0.01,-0.37,0.66,-0.40,0.54,0.39,
0.283,0.01,-0.37,0.66,-0.40,0.53,0.38,
0.285,0.01,-0.37,0.66,-0.40,0.53,0.38,
0.285,-0.01,-0.40,0.72,-0.40,0.53,0.38,
0.287,-0.01,-0.40,0.72,-0.39,0.52,0.38,
0.29,-0.01,-0.40,0.72,-0.38,0.52,0.37,
0.29,0.00,-0.43,0.77,-0.38,0.52,0.37,
0.292,0.00,-0.43,0.77,-0.37,0.51,0.37,
0.295,0.00,-0.43,0.77,-0.35,0.51,0.36,
0.295,0.03,-0.48,0.77,-0.35,0.51,0.36,
0.298,0.03,-0.48,0.77,-0.33,0.50,0.35,
0.3,0.06,-0.53,0.77,-0.33,0.50,0.35,
0.3,0.06,-0.53,0.77,-0.30,0.50,0.34,
0.304,0.06,-0.53,0.77,-0.28,0.50,0.33,
0.307,0.10,-0.57,0.73,-0.28,0.50,0.33,
0.307,0.10,-0.57,0.73,-0.25,0.50,0.32,
0.308,0.10,-0.57,0.73,-0.22,0.50,0.31,
0.31,0.10,-0.57,0.73,-0.18,0.50,0.29,
0.31,0.14,-0.58,0.65,-0.18,0.50,0.29,
0.313,0.14,-0.58,0.65,-0.15,0.51,0.28,
0.316,0.19,-0.60,0.54,-0.15,0.51,0.28,
0.316,0.19,-0.60,0.54,-0.11,0.51,0.26,
0.317,0.19,-0.60,0.54,-0.07,0.52,0.25,
0.32,0.19,-0.60,0.54,-0.02,0.53,0.23,
0.32,0.22,-0.61,0.37,-0.02,0.53,0.23,
0.323,0.22,-0.61,0.37,0.02,0.54,0.22,
0.325,0.22,-0.61,0.37,0.06,0.55,0.20,
0.325,0.26,-0.57,0.18,0.06,0.55,0.20,
0.328,0.26,-0.57,0.18,0.10,0.57,0.19,
0.33,0.26,-0.57,0.18,0.14,0.59,0.18,
0.331,0.30,-0.54,-0.06,0.14,0.59,0.18,
0.333,0.30,-0.54,-0.06,0.17,0.61,0.16,
0.335,0.33,-0.51,-0.35,0.17,0.61,0.16,
0.335,0.33,-0.51,-0.35,0.21,0.63,0.15,
0.337,0.33,-0.51,-0.35,0.24,0.65,0.14,
0.34,0.33,-0.51,-0.35,0.26,0.68,0.12,
0.34,0.38,-0.47,-0.68,0.26,0.68,0.12,
0.342,0.38,-0.47,-0.68,0.29,0.70,0.11,
0.345,0.38,-0.47,-0.68,0.31,0.73,0.09,
0.345,0.44,-0.46,-1.01,0.31,0.73,0.09,
0.347,0.44,-0.46,-1.01,0.33,0.76,0.08,
0.35,0.49,-0.43,-1.31,0.33,0.76,0.08,
0.35,0.49,-0.43,-1.31,0.34,0.79,0.06,
0.352,0.49,-0.43,-1.31,0.35,0.82,0.05,
0.355,0.50,-0.41,-1.55,0.35,0.82,0.05,
0.355,0.50,-0.41,-1.55,0.37,0.85,0.04,
0.359,0.50,-0.41,-1.55,0.38,0.89,0.03,
0.36,0.53,-0.36,-1.72,0.38,0.89,0.03,
0.36,0.53,-0.36,-1.72,0.39,0.92,0.02,
0.363,0.53,-0.36,-1.72,0.40,0.95,0.02,
0.372,0.53,-0.36,-1.72,0.42,0.99,0.02,
0.373,0.51,-0.31,-1.89,0.42,0.99,0.02,
0.373,0.51,-0.31,-1.89,0.43,1.02,0.02,
0.373,0.51,-0.26,-2.02,0.43,1.02,0.02,
0.373,0.51,-0.26,-2.02,0.45,1.06,0.02,
0.374,0.51,-0.26,-2.02,0.47,1.09,0.02,
0.374,0.55,-0.19,-2.16,0.47,1.09,0.02,
0.375,0.55,-0.19,-2.16,0.49,1.12,0.03,
0.377,0.55,-0.19,-2.16,0.50,1.15,0.03,
0.379,0.60,-0.18,-2.32,0.50,1.15,0.03,
0.38,0.60,-0.18,-2.32,0.52,1.19,0.04,
0.384,0.60,-0.18,-2.32,0.54,1.22,0.04,
0.385,0.70,-0.19,-2.52,0.54,1.22,0.04,
0.386,0.70,-0.19,-2.52,0.56,1.25,0.04,
0.387,0.70,-0.19,-2.52,0.58,1.29,0.04,
0.389,0.83,-0.22,-2.73,0.58,1.29,0.04,
0.39,0.83,-0.22,-2.73,0.60,1.32,0.04,
0.392,0.83,-0.22,-2.73,0.61,1.36,0.04,
0.394,0.98,-0.28,-2.97,0.61,1.36,0.04,
0.394,0.98,-0.28,-2.97,0.63,1.39,0.04,
0.4,0.98,-0.28,-2.97,0.65,1.43,0.04,
0.401,1.12,-0.31,-3.18,0.65,1.43,0.04,
0.401,1.12,-0.31,-3.18,0.67,1.47,0.03,
0.402,1.12,-0.31,-3.18,0.69,1.51,0.03,
0.404,1.25,-0.41,-3.37,0.69,1.51,0.03,
0.405,1.25,-0.41,-3.37,0.71,1.55,0.02,
0.424,1.25,-0.41,-3.37,0.74,1.60,0.02,
0.424,1.34,-0.47,-3.58,0.74,1.60,0.02,
0.425,1.34,-0.47,-3.58,0.76,1.65,0.01,
0.425,1.34,-0.47,-3.58,0.78,1.70,-0.00,
0.425,1.44,-0.53,-3.77,0.78,1.70,-0.00,
0.426,1.44,-0.53,-3.77,0.81,1.75,-0.01,
0.426,1.44,-0.53,-3.77,0.84,1.81,-0.02,
0.426,1.55,-0.62,-3.96,0.84,1.81,-0.02,
0.426,1.55,-0.62,-3.96,0.87,1.86,-0.04,
0.427,1.55,-0.62,-3.96,0.90,1.91,-0.06,
0.427,1.55,-0.62,-3.96,0.93,1.96,-0.08,
0.427,1.68,-0.71,-4.16,0.93,1.96,-0.08,
0.428,1.68,-0.71,-4.16,0.97,2.02,-0.09,
0.429,1.77,-0.80,-4.37,0.97,2.02,-0.09,
0.43,1.77,-0.80,-4.37,1.00,2.07,-0.11,
0.434,1.77,-0.80,-4.37,1.03,2.13,-0.13,
0.435,1.77,-0.80,-4.37,1.07,2.19,-0.15,
0.435,1.87,-0.93,-4.60,1.07,2.19,-0.15,
0.436,1.87,-0.93,-4.60,1.10,2.25,-0.17,
0.44,1.94,-1.04,-4.83,1.10,2.25,-0.17,
0.44,1.94,-1.04,-4.83,1.13,2.31,-0.18,
0.443,1.94,-1.04,-4.83,1.16,2.37,-0.20,
0.444,1.94,-1.04,-4.83,1.19,2.43,-0.22,
0.444,2.04,-1.19,-5.05,1.19,2.43,-0.22,
0.446,2.04,-1.19,-5.05,1.21,2.50,-0.24,
0.45,2.04,-1.19,-5.05,1.24,2.56,-0.25,
0.45,2.14,-1.30,-5.25,1.24,2.56,-0.25,
0.453,2.14,-1.30,-5.25,1.27,2.62,-0.27,
0.454,2.14,-1.30,-5.25,1.29,2.69,-0.29,
0.454,2.21,-1.45,-5.46,1.29,2.69,-0.29,
0.456,2.21,-1.45,-5.46,1.32,2.75,-0.31,
0.459,2.29,-1.59,-5.64,1.32,2.75,-0.31,
0.459,2.29,-1.59,-5.64,1.34,2.81,-0.33,
0.461,2.29,-1.59,-5.64,1.35,2.87,-0.35,
0.465,2.35,-1.77,-5.77,1.35,2.87,-0.35,
0.465,2.35,-1.77,-5.77,1.37,2.93,-0.37,
0.468,2.35,-1.77,-5.77,1.38,2.99,-0.39,
0.468,2.35,-1.77,-5.77,1.39,3.05,-0.41,
0.468,2.43,-1.96,-5.89,1.39,3.05,-0.41,
0.471,2.43,-1.96,-5.89,1.40,3.11,-0.44,
0.474,2.52,-2.16,-6.04,1.40,3.11,-0.44,
0.474,2.52,-2.16,-6.04,1.39,3.17,-0.47,
0.477,2.52,-2.16,-6.04,1.39,3.23,-0.49,
0.478,2.63,-2.39,-6.20,1.39,3.23,-0.49,
0.478,2.63,-2.39,-6.20,1.38,3.29,-0.52,
0.482,2.63,-2.39,-6.20,1.37,3.35,-0.55,
0.486,2.63,-2.39,-6.20,1.35,3.41,-0.59,
0.487,2.74,-2.60,-6.31,1.35,3.41,-0.59,
0.487,2.74,-2.60,-6.31,1.33,3.46,-0.62,
0.489,2.74,-2.60,-6.31,1.31,3.51,-0.66,
0.489,2.86,-2.85,-6.37,1.31,3.51,-0.66,
0.491,2.86,-2.85,-6.37,1.28,3.55,-0.70,
0.493,2.86,-2.85,-6.37,1.25,3.59,-0.74,
0.494,2.97,-3.11,-6.46,1.25,3.59,-0.74,
0.496,2.97,-3.11,-6.46,1.22,3.63,-0.79,
0.499,2.97,-3.11,-6.46,1.19,3.67,-0.83,
0.499,3.05,-3.37,-6.50,1.19,3.67,-0.83,
0.503,3.05,-3.37,-6.50,1.15,3.70,-0.88,
0.505,3.05,-3.37,-6.50,1.11,3.73,-0.93,
0.506,3.14,-3.61,-6.49,1.11,3.73,-0.93,
0.508,3.14,-3.61,-6.49,1.07,3.76,-0.98,
0.508,3.14,-3.61,-6.49,1.03,3.78,-1.04,
0.508,3.25,-3.88,-6.49,1.03,3.78,-1.04,
0.513,3.25,-3.88,-6.49,0.99,3.81,-1.10,
0.514,3.33,-4.18,-6.46,0.99,3.81,-1.10,
0.514,3.33,-4.18,-6.46,0.94,3.83,-1.16,
0.518,3.33,-4.18,-6.46,0.89,3.85,-1.22,
0.519,3.37,-4.51,-6.46,0.89,3.85,-1.22,
0.519,3.37,-4.51,-6.46,0.85,3.87,-1.28,
0.521,3.37,-4.51,-6.46,0.80,3.89,-1.35,
0.524,3.37,-4.51,-6.46,0.75,3.90,-1.42,
0.524,3.37,-4.83,-6.41,0.75,3.90,-1.42,
0.526,3.37,-4.83,-6.41,0.70,3.92,-1.49,
0.528,3.37,-4.83,-6.41,0.65,3.93,-1.55,
0.528,3.38,-5.13,-6.34,0.65,3.93,-1.55,
0.532,3.38,-5.13,-6.34,0.60,3.94,-1.63,
0.534,3.38,-5.13,-6.34,0.55,3.94,-1.70,
0.535,3.36,-5.42,-6.25,0.55,3.94,-1.70,
0.536,3.36,-5.42,-6.25,0.50,3.95,-1.78,
0.538,3.36,-5.42,-6.25,0.45,3.95,-1.85,
0.538,3.37,-5.70,-6.17,0.45,3.95,-1.85,
0.541,3.37,-5.70,-6.17,0.40,3.95,-1.93,
0.543,3.32,-5.97,-6.09,0.40,3.95,-1.93,
0.543,3.32,-5.97,-6.09,0.35,3.95,-2.01,
0.545,3.32,-5.97,-6.09,0.30,3.96,-2.09,
0.55,3.32,-5.97,-6.09,0.25,3.96,-2.17,
0.553,3.18,-6.23,-6.00,0.25,3.96,-2.17,
0.553,3.18,-6.23,-6.00,0.20,3.96,-2.25,
0.553,3.18,-6.23,-6.00,0.15,3.96,-2.32,
0.554,3.00,-6.47,-5.86,0.15,3.96,-2.32,
0.556,3.00,-6.47,-5.86,0.10,3.97,-2.40,
0.558,2.78,-6.69,-5.70,0.10,3.97,-2.40,
0.558,2.78,-6.69,-5.70,0.05,3.97,-2.48,
0.561,2.78,-6.69,-5.70,0.01,3.97,-2.56,
0.563,2.51,-6.97,-5.54,0.01,3.97,-2.56,
0.564,2.51,-6.97,-5.54,-0.04,3.97,-2.64,
0.578,2.51,-6.97,-5.54,-0.09,3.96,-2.72,
0.579,2.51,-6.97,-5.54,-0.14,3.96,-2.80,
0.579,2.27,-7.29,-5.36,-0.14,3.96,-2.80,
0.579,2.27,-7.29,-5.36,-0.19,3.95,-2.89,
0.602,2.27,-7.29,-5.36,-0.24,3.95,-2.98,
0.602,2.09,-7.64,-5.17,-0.24,3.95,-2.98,
0.602,2.09,-7.64,-5.17,-0.30,3.95,-3.07,
0.602,2.09,-7.64,-5.17,-0.35,3.96,-3.17,
0.603,1.95,-7.98,-4.99,-0.35,3.96,-3.17,
0.603,1.95,-7.98,-4.99,-0.41,3.96,-3.26,
0.603,1.95,-7.98,-4.99,-0.46,3.96,-3.36,
0.603,1.73,-8.29,-4.75,-0.46,3.96,-3.36,
0.603,1.73,-8.29,-4.75,-0.51,3.97,-3.46,
0.603,1.73,-8.29,-4.75,-0.56,3.97,-3.56,
0.604,1.43,-8.59,-4.45,-0.56,3.97,-3.56,
0.604,1.43,-8.59,-4.45,-0.61,3.97,-3.65,
0.604,1.43,-8.59,-4.45,-0.65,3.97,-3.74,
0.604,1.06,-8.87,-4.15,-0.65,3.97,-3.74,
0.604,1.06,-8.87,-4.15,-0.69,3.97,-3.84,
0.604,0.62,-9.14,-3.81,-0.69,3.97,-3.84,
0.604,0.62,-9.14,-3.81,-0.72,3.97,-3.92,
0.605,0.62,-9.14,-3.81,-0.75,3.98,-4.01,
0.605,0.62,-9.14,-3.81,-0.78,3.99,-4.09,
0.605,0.12,-9.41,-3.49,-0.78,3.99,-4.09,
0.605,0.12,-9.41,-3.49,-0.80,4.01,-4.17,
0.608,-0.45,-9.69,-3.22,-0.80,4.01,-4.17,
0.609,-0.45,-9.69,-3.22,-0.82,4.03,-4.25,
0.61,-0.45,-9.69,-3.22,-0.84,4.05,-4.32,
0.613,-0.45,-9.69,-3.22,-0.85,4.08,-4.39,
0.613,-1.03,-9.98,-2.96,-0.85,4.08,-4.39,
0.616,-1.03,-9.98,-2.96,-0.87,4.11,-4.46,
0.618,-1.03,-9.98,-2.96,-0.88,4.13,-4.52,
0.618,-1.67,-10.33,-2.74,-0.88,4.13,-4.52,
0.621,-1.67,-10.33,-2.74,-0.89,4.16,-4.58,
0.622,-1.67,-10.33,-2.74,-0.91,4.19,-4.64,
0.622,-2.34,-10.71,-2.53,-0.91,4.19,-4.64,
0.626,-2.34,-10.71,-2.53,-0.93,4.22,-4.69,
0.628,-2.34,-10.71,-2.53,-0.95,4.24,-4.74,
0.628,-3.02,-11.08,-2.31,-0.95,4.24,-4.74,
0.63,-3.02,-11.08,-2.31,-0.98,4.26,-4.79,
0.632,-3.02,-11.08,-2.31,-1.01,4.28,-4.84,
0.633,-3.61,-11.42,-2.06,-1.01,4.28,-4.84,
0.635,-3.61,-11.42,-2.06,-1.04,4.29,-4.88,
0.637,-3.61,-11.42,-2.06,-1.07,4.31,-4.93,
0.637,-4.23,-11.72,-1.75,-1.07,4.31,-4.93,
0.64,-4.23,-11.72,-1.75,-1.11,4.31,-4.97,
0.642,-4.23,-11.72,-1.75,-1.15,4.30,-5.02,
0.642,-4.83,-12.01,-1.35,-1.15,4.30,-5.02,
0.645,-4.83,-12.01,-1.35,-1.18,4.30,-5.07,
0.647,-4.83,-12.01,-1.35,-1.23,4.28,-5.12,
0.647,-5.47,-12.39,-0.86,-1.23,4.28,-5.12,
0.652,-5.47,-12.39,-0.86,-1.27,4.25,-5.17,
0.653,-5.47,-12.39,-0.86,-1.32,4.22,-5.23,
0.653,-6.00,-12.85,-0.22,-1.32,4.22,-5.23,
0.654,-6.00,-12.85,-0.22,-1.36,4.18,-5.28,
0.66,-6.46,-13.22,0.43,-1.36,4.18,-5.28,
0.66,-6.46,-13.22,0.43,-1.41,4.13,-5.35,
0.661,-6.46,-13.22,0.43,-1.46,4.09,-5.41,
0.662,-6.46,-13.22,0.43,-1.51,4.04,-5.47,
0.663,-6.91,-13.46,1.08,-1.51,4.04,-5.47,
0.671,-6.91,-13.46,1.08,-1.55,3.99,-5.53,
0.672,-6.91,-13.46,1.08,-1.60,3.93,-5.60,
0.672,-7.32,-13.63,1.71,-1.60,3.93,-5.60,
0.672,-7.32,-13.63,1.71,-1.65,3.87,-5.66,
0.672,-7.32,-13.63,1.71,-1.70,3.81,-5.73,
0.672,-7.75,-13.72,2.30,-1.70,3.81,-5.73,
0.677,-8.18,-13.75,2.85,-1.70,3.81,-5.73,
0.677,-8.18,-13.75,2.85,-1.75,3.75,-5.79,
0.677,-8.18,-13.75,2.85,-1.81,3.68,-5.85,
0.68,-8.18,-13.75,2.85,-1.87,3.62,-5.91,
0.682,-8.18,-13.75,2.85,-1.93,3.55,-5.97,
0.683,-8.61,-13.73,3.32,-1.93,3.55,-5.97,
0.685,-8.61,-13.73,3.32,-1.99,3.47,-6.03,
0.687,-8.61,-13.73,3.32,-2.06,3.39,-6.08,
0.687,-9.07,-13.70,3.81,-2.06,3.39,-6.08,
0.689,-9.07,-13.70,3.81,-2.13,3.31,-6.13,
0.692,-9.07,-13.70,3.81,-2.20,3.22,-6.18,
0.692,-9.51,-13.63,4.30,-2.20,3.22,-6.18,
0.694,-9.51,-13.63,4.30,-2.28,3.13,-6.22,
0.697,-9.51,-13.63,4.30,-2.36,3.04,-6.27,
0.697,-9.90,-13.56,4.76,-2.36,3.04,-6.27,
0.7,-9.90,-13.56,4.76,-2.43,2.95,-6.31,
0.702,-9.90,-13.56,4.76,-2.51,2.85,-6.35,
0.702,-10.26,-13.40,5.24,-2.51,2.85,-6.35,
0.704,-10.26,-13.40,5.24,-2.59,2.75,-6.39,
0.706,-10.26,-13.40,5.24,-2.67,2.66,-6.43,
0.707,-10.57,-13.18,5.71,-2.67,2.66,-6.43,
0.709,-10.57,-13.18,5.71,-2.74,2.56,-6.46,
0.711,-10.57,-13.18,5.71,-2.82,2.46,-6.49,
0.712,-10.87,-12.90,6.19,-2.82,2.46,-6.49,
0.714,-10.87,-12.90,6.19,-2.88,2.36,-6.51,
0.717,-11.12,-12.51,6.73,-2.88,2.36,-6.51,
0.718,-11.12,-12.51,6.73,-2.95,2.26,-6.53,
0.719,-11.12,-12.51,6.73,-3.00,2.17,-6.55,
0.722,-11.12,-12.51,6.73,-3.05,2.07,-6.56,
0.722,-11.30,-11.96,7.35,-3.05,2.07,-6.56,
0.724,-11.30,-11.96,7.35,-3.08,1.98,-6.56,
0.727,-11.42,-11.27,8.04,-3.08,1.98,-6.56,
0.728,-11.42,-11.27,8.04,-3.10,1.89,-6.56,
0.729,-11.42,-11.27,8.04,-3.11,1.80,-6.56,
0.732,-11.53,-10.42,8.73,-3.11,1.80,-6.56,
0.734,-11.53,-10.42,8.73,-3.10,1.70,-6.55,
0.735,-11.53,-10.42,8.73,-3.08,1.61,-6.53,
0.736,-11.53,-10.42,8.73,-3.04,1.52,-6.50,
0.754,-11.62,-9.49,9.41,-3.04,1.52,-6.50,
0.754,-11.62,-9.49,9.41,-2.99,1.43,-6.47,
0.754,-11.62,-9.49,9.41,-2.92,1.35,-6.43,
0.755,-11.66,-8.54,10.05,-2.92,1.35,-6.43,
0.755,-11.66,-8.54,10.05,-2.85,1.26,-6.38,
0.755,-11.66,-8.54,10.05,-2.75,1.18,-6.33,
0.755,-11.66,-7.58,10.61,-2.75,1.18,-6.33,
0.756,-11.66,-7.58,10.61,-2.64,1.09,-6.28,
0.756,-11.54,-6.62,11.03,-2.64,1.09,-6.28,
0.756,-11.54,-6.62,11.03,-2.52,1.02,-6.22,
0.757,-11.54,-6.62,11.03,-2.39,0.94,-6.17,
0.757,-11.54,-6.62,11.03,-2.24,0.87,-6.11,
0.757,-11.40,-5.64,11.27,-2.24,0.87,-6.11,
0.759,-11.40,-5.64,11.27,-2.08,0.81,-6.04,
0.761,-11.40,-5.64,11.27,-1.92,0.75,-5.98,
0.762,-11.22,-4.65,11.39,-1.92,0.75,-5.98,
0.764,-11.22,-4.65,11.39,-1.73,0.70,-5.91,
0.774,-11.22,-4.65,11.39,-1.54,0.67,-5.85,
0.776,-11.01,-3.65,11.36,-1.54,0.67,-5.85,
0.776,-11.01,-3.65,11.36,-1.35,0.64,-5.78,
0.777,-11.01,-3.65,11.36,-1.14,0.62,-5.71,
0.777,-10.78,-2.68,11.19,-1.14,0.62,-5.71,
0.777,-10.78,-2.68,11.19,-0.93,0.61,-5.63,
0.778,-10.56,-1.74,10.89,-0.93,0.61,-5.63,
0.778,-10.56,-1.74,10.89,-0.72,0.61,-5.56,
0.779,-10.56,-1.74,10.89,-0.50,0.62,-5.49,
0.781,-10.56,-1.74,10.89,-0.28,0.63,-5.41,
0.787,-10.37,-0.86,10.48,-0.28,0.63,-5.41,
0.788,-10.37,-0.86,10.48,-0.07,0.65,-5.33,
0.788,-10.37,-0.86,10.48,0.15,0.67,-5.25,
0.788,-10.24,-0.09,9.98,0.15,0.67,-5.25,
0.789,-10.24,-0.09,9.98,0.36,0.70,-5.16,
0.792,-10.24,-0.09,9.98,0.56,0.73,-5.07,
0.792,-10.16,0.67,9.40,0.56,0.73,-5.07,
0.795,-10.16,0.67,9.40,0.76,0.75,-4.98,
0.797,-10.16,0.67,9.40,0.95,0.78,-4.88,
0.797,-10.11,1.38,8.79,0.95,0.78,-4.88,
0.799,-10.11,1.38,8.79,1.13,0.80,-4.78,
0.802,-10.04,2.07,8.15,1.13,0.80,-4.78,
0.802,-10.04,2.07,8.15,1.30,0.82,-4.66,
0.804,-10.04,2.07,8.15,1.46,0.83,-4.55,
0.806,-10.04,2.07,8.15,1.61,0.84,-4.42,
0.806,-9.97,2.71,7.51,1.61,0.84,-4.42,
0.808,-9.97,2.71,7.51,1.76,0.84,-4.30,
0.81,-9.97,2.71,7.51,1.89,0.84,-4.16,
0.811,-9.89,3.31,6.88,1.89,0.84,-4.16,
0.813,-9.89,3.31,6.88,2.01,0.84,-4.03,
0.816,-9.89,3.31,6.88,2.12,0.83,-3.88,
0.816,-9.80,3.85,6.23,2.12,0.83,-3.88,
0.818,-9.80,3.85,6.23,2.23,0.82,-3.73,
0.822,-9.80,3.85,6.23,2.32,0.80,-3.58,
0.822,-9.63,4.32,5.62,2.32,0.80,-3.58,
0.823,-9.63,4.32,5.62,2.41,0.77,-3.43,
0.826,-9.63,4.32,5.62,2.48,0.74,-3.28,
0.826,-9.38,4.67,4.98,2.48,0.74,-3.28,
0.828,-9.38,4.67,4.98,2.54,0.70,-3.13,
0.831,-9.38,4.67,4.98,2.59,0.66,-2.99,
0.831,-9.09,4.92,4.30,2.59,0.66,-2.99,
0.834,-9.09,4.92,4.30,2.63,0.62,-2.85,
0.836,-9.09,4.92,4.30,2.66,0.57,-2.71,
0.836,-8.78,5.04,3.58,2.66,0.57,-2.71,
0.838,-8.78,5.04,3.58,2.67,0.52,-2.58,
0.841,-8.78,5.04,3.58,2.67,0.48,-2.45,
0.841,-8.42,5.05,2.84,2.67,0.48,-2.45,
0.843,-8.42,5.05,2.84,2.66,0.42,-2.33,
0.846,-8.05,4.99,2.13,2.66,0.42,-2.33,
0.846,-8.05,4.99,2.13,2.64,0.37,-2.21,
0.848,-8.05,4.99,2.13,2.61,0.31,-2.10,
0.854,-7.62,4.95,1.45,2.61,0.31,-2.10,
0.855,-7.62,4.95,1.45,2.58,0.25,-2.00,
0.855,-7.62,4.95,1.45,2.53,0.19,-1.90,
0.855,-7.62,4.95,1.45,2.47,0.13,-1.81,
0.861,-7.23,4.89,0.81,2.47,0.13,-1.81,
0.861,-7.23,4.89,0.81,2.41,0.07,-1.72,
0.862,-7.23,4.89,0.81,2.34,0.01,-1.64,
0.862,-6.82,4.85,0.24,2.34,0.01,-1.64,
0.863,-6.82,4.85,0.24,2.27,-0.06,-1.57,
0.89,-6.82,4.85,0.24,2.19,-0.12,-1.50,
0.891,-6.42,4.79,-0.27,2.19,-0.12,-1.50,
0.891,-6.42,4.79,-0.27,2.10,-0.17,-1.44,
0.892,-6.06,4.77,-0.73,2.10,-0.17,-1.44,
0.892,-6.06,4.77,-0.73,2.01,-0.23,-1.38,
0.892,-6.06,4.77,-0.73,1.92,-0.29,-1.33,
0.893,-6.06,4.77,-0.73,1.83,-0.35,-1.29,
0.893,-5.71,4.73,-1.14,1.83,-0.35,-1.29,
0.893,-5.71,4.73,-1.14,1.73,-0.40,-1.24,
0.894,-5.71,4.73,-1.14,1.63,-0.46,-1.21,
0.894,-5.40,4.71,-1.51,1.63,-0.46,-1.21,
0.894,-5.40,4.71,-1.51,1.52,-0.51,-1.18,
0.895,-5.40,4.71,-1.51,1.41,-0.56,-1.15,
0.896,-5.12,4.64,-1.81,1.41,-0.56,-1.15,
0.896,-5.12,4.64,-1.81,1.30,-0.61,-1.13,
0.896,-5.12,4.64,-1.81,1.19,-0.66,-1.11,
0.897,-4.88,4.58,-2.12,1.19,-0.66,-1.11,
0.897,-4.88,4.58,-2.12,1.08,-0.71,-1.09,
0.897,-4.88,4.58,-2.12,0.96,-0.76,-1.08,
0.898,-4.67,4.56,-2.39,0.96,-0.76,-1.08,
0.899,-4.67,4.56,-2.39,0.85,-0.80,-1.06,
0.903,-4.67,4.56,-2.39,0.73,-0.85,-1.06,
0.904,-4.49,4.52,-2.59,0.73,-0.85,-1.06,
0.919,-4.49,4.52,-2.59,0.61,-0.89,-1.06,
0.919,-4.49,4.52,-2.59,0.49,-0.93,-1.05,
0.919,-4.35,4.52,-2.75,0.49,-0.93,-1.05,
0.92,-4.35,4.52,-2.75,0.37,-0.98,-1.05,
0.92,-4.35,4.52,-2.75,0.24,-1.02,-1.05,
0.92,-4.23,4.50,-2.88,0.24,-1.02,-1.05,
0.92,-4.23,4.50,-2.88,0.12,-1.06,-1.05,
0.92,-4.23,4.50,-2.88,-0.00,-1.10,-1.06,
0.921,-4.20,4.50,-3.01,-0.00,-1.10,-1.06,
0.921,-4.20,4.50,-3.01,-0.13,-1.13,-1.06,
0.921,-4.17,4.49,-3.12,-0.13,-1.13,-1.06,
0.921,-4.17,4.49,-3.12,-0.26,-1.17,-1.07,
0.922,-4.17,4.49,-3.12,-0.38,-1.21,-1.07,
0.926,-4.17,4.49,-3.12,-0.51,-1.25,-1.08,
0.927,-4.17,4.46,-3.18,-0.51,-1.25,-1.08,
0.927,-4.17,4.46,-3.18,-0.64,-1.28,-1.09,
0.93,-4.17,4.46,-3.18,-0.76,-1.32,-1.10,
0.93,-4.22,4.43,-3.17,-0.76,-1.32,-1.10,
0.932,-4.22,4.43,-3.17,-0.88,-1.36,-1.11,
0.935,-4.22,4.43,-3.17,-1.00,-1.40,-1.12,
0.936,-4.31,4.42,-3.11,-1.00,-1.40,-1.12,
0.937,-4.31,4.42,-3.11,-1.13,-1.43,-1.13,
0.94,-4.31,4.42,-3.11,-1.24,-1.47,-1.14,
0.94,-4.42,4.46,-2.98,-1.24,-1.47,-1.14,
0.942,-4.42,4.46,-2.98,-1.36,-1.50,-1.14,
0.945,-4.51,4.48,-2.83,-1.36,-1.50,-1.14,
0.945,-4.51,4.48,-2.83,-1.47,-1.54,-1.15,
0.947,-4.51,4.48,-2.83,-1.57,-1.57,-1.16,
0.957,-4.51,4.48,-2.83,-1.68,-1.60,-1.16,
0.958,-4.63,4.55,-2.65,-1.68,-1.60,-1.16,
0.958,-4.63,4.55,-2.65,-1.78,-1.63,-1.16,
0.959,-4.63,4.55,-2.65,-1.87,-1.66,-1.16,
0.959,-4.79,4.65,-2.38,-1.87,-1.66,-1.16,
0.96,-4.79,4.65,-2.38,-1.97,-1.69,-1.16,
0.96,-4.79,4.65,-2.38,-2.06,-1.73,-1.16,
0.96,-4.96,4.83,-2.10,-2.06,-1.73,-1.16,
0.964,-4.96,4.83,-2.10,-2.15,-1.76,-1.15,
0.965,-4.96,4.83,-2.10,-2.24,-1.80,-1.14,
0.966,-5.10,5.02,-1.84,-2.24,-1.80,-1.14,
0.983,-5.10,5.02,-1.84,-2.32,-1.83,-1.12,
0.983,-5.10,5.02,-1.84,-2.41,-1.86,-1.11,
0.983,-5.24,5.18,-1.61,-2.41,-1.86,-1.11,
0.984,-5.24,5.18,-1.61,-2.49,-1.89,-1.09,
0.984,-5.24,5.18,-1.61,-2.57,-1.91,-1.07,
0.984,-5.35,5.30,-1.40,-2.57,-1.91,-1.07,
0.984,-5.35,5.30,-1.40,-2.65,-1.94,-1.05,
0.984,-5.35,5.30,-1.40,-2.72,-1.96,-1.03,
0.984,-5.49,5.36,-1.18,-2.72,-1.96,-1.03,
0.984,-5.49,5.36,-1.18,-2.80,-1.99,-1.01,
0.985,-5.59,5.38,-0.91,-2.80,-1.99,-1.01,
0.985,-5.59,5.38,-0.91,-2.86,-2.01,-0.99,
0.987,-5.59,5.38,-0.91,-2.93,-2.04,-0.97,
0.99,-5.59,5.38,-0.91,-2.99,-2.06,-0.95,
0.99,-5.68,5.40,-0.63,-2.99,-2.06,-0.95,
0.993,-5.68,5.40,-0.63,-3.05,-2.07,-0.94,
0.995,-5.68,5.40,-0.63,-3.10,-2.09,-0.92,
0.995,-5.74,5.45,-0.35,-3.10,-2.09,-0.92,
0.997,-5.74,5.45,-0.35,-3.14,-2.10,-0.90,
0.999,-5.78,5.51,-0.00,-3.14,-2.10,-0.90,
1.0,-5.78,5.51,-0.00,-3.18,-2.10,-0.89,
1.002,-5.78,5.51,-0.00,-3.21,-2.11,-0.88,
1.004,-5.78,5.51,-0.00,-3.23,-2.11,-0.87,
1.004,-5.84,5.57,0.34,-3.23,-2.11,-0.87,
1.007,-5.84,5.57,0.34,-3.24,-2.11,-0.86,
1.009,-5.84,5.57,0.34,-3.23,-2.11,-0.86,
1.009,-6.03,5.68,0.79,-3.23,-2.11,-0.86,
1.011,-6.03,5.68,0.79,-3.22,-2.10,-0.85,
1.014,-6.03,5.68,0.79,-3.20,-2.11,-0.85,
1.014,-6.27,5.87,1.25,-3.20,-2.11,-0.85,
1.017,-6.27,5.87,1.25,-3.17,-2.11,-0.84,
1.019,-6.56,6.08,1.66,-3.17,-2.11,-0.84,
1.019,-6.56,6.08,1.66,-3.13,-2.11,-0.83,
1.022,-6.56,6.08,1.66,-3.08,-2.12,-0.82,
1.024,-6.56,6.08,1.66,-3.03,-2.13,-0.80,
1.024,-6.95,6.28,2.04,-3.03,-2.13,-0.80,
1.026,-6.95,6.28,2.04,-2.97,-2.14,-0.78,
1.029,-6.95,6.28,2.04,-2.92,-2.16,-0.75,
1.029,-7.40,6.42,2.38,-2.92,-2.16,-0.75,
1.031,-7.40,6.42,2.38,-2.86,-2.18,-0.71,
1.034,-7.92,6.58,2.56,-2.86,-2.18,-0.71,
1.034,-7.92,6.58,2.56,-2.81,-2.21,-0.67,
1.037,-7.92,6.58,2.56,-2.76,-2.24,-0.62,
1.039,-7.92,6.58,2.56,-2.72,-2.27,-0.57,
1.039,-8.40,6.68,2.59,-2.72,-2.27,-0.57,
1.041,-8.40,6.68,2.59,-2.69,-2.31,-0.50,
1.044,-8.40,6.68,2.59,-2.67,-2.34,-0.44,
1.044,-8.82,6.71,2.56,-2.67,-2.34,-0.44,
1.046,-8.82,6.71,2.56,-2.66,-2.38,-0.36,
1.054,-8.82,6.71,2.56,-2.66,-2.41,-0.28,
1.055,-9.17,6.75,2.43,-2.66,-2.41,-0.28,
1.055,-9.17,6.75,2.43,-2.67,-2.43,-0.20,
1.055,-9.17,6.75,2.43,-2.68,-2.45,-0.11,
1.056,-9.40,6.87,2.27,-2.68,-2.45,-0.11,
1.062,-9.40,6.87,2.27,-2.70,-2.47,-0.02,
1.064,-9.40,6.87,2.27,-2.73,-2.48,0.08,
1.065,-9.55,7.02,2.20,-2.73,-2.48,0.08,
1.066,-9.58,7.14,2.22,-2.73,-2.48,0.08,
1.066,-9.58,7.14,2.22,-2.75,-2.48,0.18,
1.066,-9.58,7.14,2.22,-2.77,-2.47,0.28,
1.081,-9.58,7.14,2.22,-2.80,-2.46,0.37,
1.102,-9.58,7.14,2.22,-2.82,-2.44,0.46,
1.103,-9.65,7.11,2.32,-2.82,-2.44,0.46,
1.103,-9.65,7.11,2.32,-2.83,-2.41,0.55,
1.103,-9.65,7.11,2.32,-2.84,-2.38,0.63,
1.104,-9.79,6.98,2.55,-2.84,-2.38,0.63,
1.104,-9.79,6.98,2.55,-2.83,-2.35,0.71,
1.104,-9.79,6.98,2.55,-2.83,-2.32,0.78,
1.104,-10.05,6.81,2.88,-2.83,-2.32,0.78,
1.105,-10.05,6.81,2.88,-2.80,-2.28,0.85,
1.105,-10.05,6.81,2.88,-2.77,-2.25,0.91,
1.106,-10.05,6.81,2.88,-2.73,-2.21,0.97,
1.106,-10.45,6.63,3.24,-2.73,-2.21,0.97,
1.106,-10.45,6.63,3.24,-2.67,-2.17,1.03,
1.107,-10.91,6.48,3.57,-2.67,-2.17,1.03,
1.107,-10.91,6.48,3.57,-2.61,-2.14,1.09,
1.108,-10.91,6.48,3.57,-2.53,-2.11,1.15,
1.108,-11.34,6.42,3.83,-2.53,-2.11,1.15,
1.108,-11.34,6.42,3.83,-2.45,-2.08,1.21,
1.109,-11.34,6.42,3.83,-2.36,-2.06,1.27,
1.109,-11.89,6.44,4.07,-2.36,-2.06,1.27,
1.109,-11.89,6.44,4.07,-2.26,-2.04,1.34,
1.11,-11.89,6.44,4.07,-2.16,-2.02,1.41,
1.11,-12.44,6.48,4.20,-2.16,-2.02,1.41,
1.11,-12.44,6.48,4.20,-2.06,-2.01,1.48,
1.111,-12.44,6.48,4.20,-1.96,-2.01,1.56,
1.111,-13.08,6.63,4.14,-1.96,-2.01,1.56,
1.112,-13.08,6.63,4.14,-1.87,-2.02,1.65,
1.114,-13.08,6.63,4.14,-1.78,-2.02,1.76,
1.115,-13.81,6.89,3.88,-1.78,-2.02,1.76,
1.117,-13.81,6.89,3.88,-1.69,-2.03,1.87,
1.119,-13.81,6.89,3.88,-1.62,-2.04,2.01,
1.12,-14.43,7.17,3.46,-1.62,-2.04,2.01,
1.121,-14.43,7.17,3.46,-1.55,-2.05,2.15,
1.123,-14.43,7.17,3.46,-1.49,-2.06,2.31,
1.123,-14.95,7.38,2.87,-1.49,-2.06,2.31,
1.126,-14.95,7.38,2.87,-1.44,-2.06,2.49,
1.128,-14.95,7.38,2.87,-1.41,-2.06,2.68,
1.128,-15.25,7.43,2.16,-1.41,-2.06,2.68,
1.13,-15.25,7.43,2.16,-1.39,-2.04,2.87,
1.133,-15.28,7.18,1.37,-1.39,-2.04,2.87,
1.135,-15.28,7.18,1.37,-1.39,-2.02,3.07,
1.136,-15.28,7.18,1.37,-1.40,-1.99,3.27,
1.139,-15.03,6.63,0.65,-1.40,-1.99,3.27,
1.139,-15.03,6.63,0.65,-1.42,-1.96,3.47,
1.141,-15.03,6.63,0.65,-1.45,-1.92,3.66,
1.143,-15.03,6.63,0.65,-1.48,-1.88,3.84,
1.143,-14.66,5.87,0.12,-1.48,-1.88,3.84,
1.145,-14.66,5.87,0.12,-1.53,-1.84,4.00,
1.148,-14.13,4.92,-0.18,-1.53,-1.84,4.00,
1.148,-14.13,4.92,-0.18,-1.57,-1.80,4.15,
1.151,-14.13,4.92,-0.18,-1.62,-1.77,4.29,
1.155,-13.48,3.84,-0.29,-1.62,-1.77,4.29,
1.156,-13.48,3.84,-0.29,-1.66,-1.73,4.40,
1.157,-13.48,3.84,-0.29,-1.71,-1.69,4.50,
1.158,-13.48,3.84,-0.29,-1.74,-1.66,4.57,
1.159,-12.76,2.70,-0.14,-1.74,-1.66,4.57,
1.16,-12.76,2.70,-0.14,-1.77,-1.63,4.63,
1.163,-12.76,2.70,-0.14,-1.79,-1.60,4.67,
1.163,-12.02,1.61,0.21,-1.79,-1.60,4.67,
1.165,-12.02,1.61,0.21,-1.80,-1.58,4.69,
1.171,-12.02,1.61,0.21,-1.80,-1.56,4.69,
1.172,-11.31,0.49,0.74,-1.80,-1.56,4.69,
1.173,-11.31,0.49,0.74,-1.78,-1.55,4.68,
1.173,-11.31,0.49,0.74,-1.75,-1.54,4.67,
1.173,-10.70,-0.41,1.29,-1.75,-1.54,4.67,
1.175,-10.70,-0.41,1.29,-1.71,-1.53,4.64,
1.178,-10.70,-0.41,1.29,-1.66,-1.53,4.61,
1.178,-10.21,-1.06,1.87,-1.66,-1.53,4.61,
1.18,-10.21,-1.06,1.87,-1.60,-1.54,4.58,
1.183,-9.77,-1.54,2.37,-1.60,-1.54,4.58,
1.183,-9.77,-1.54,2.37,-1.53,-1.55,4.54,
1.186,-9.77,-1.54,2.37,-1.46,-1.56,4.51,
1.188,-9.77,-1.54,2.37,-1.38,-1.57,4.47,
1.188,-9.43,-1.95,2.76,-1.38,-1.57,4.47,
1.19,-9.43,-1.95,2.76,-1.29,-1.59,4.44,
1.192,-9.43,-1.95,2.76,-1.20,-1.61,4.40,
1.193,-9.17,-2.34,3.08,-1.20,-1.61,4.40,
1.195,-9.17,-2.34,3.08,-1.11,-1.64,4.37,
1.198,-9.17,-2.34,3.08,-1.02,-1.67,4.34,
1.198,-8.91,-2.70,3.30,-1.02,-1.67,4.34,
1.201,-8.91,-2.70,3.30,-0.93,-1.70,4.31,
1.203,-8.91,-2.70,3.30,-0.84,-1.72,4.28,
1.203,-8.70,-3.01,3.42,-0.84,-1.72,4.28,
1.205,-8.70,-3.01,3.42,-0.75,-1.75,4.25,
1.207,-8.70,-3.01,3.42,-0.66,-1.78,4.23,
1.207,-8.44,-3.21,3.51,-0.66,-1.78,4.23,
1.21,-8.44,-3.21,3.51,-0.56,-1.81,4.20,
1.212,-8.44,-3.21,3.51,-0.47,-1.83,4.17,
1.212,-8.18,-3.37,3.54,-0.47,-1.83,4.17,
1.215,-8.18,-3.37,3.54,-0.38,-1.85,4.15,
1.217,-8.18,-3.37,3.54,-0.28,-1.87,4.13,
1.218,-7.98,-3.48,3.50,-0.28,-1.87,4.13,
1.22,-7.98,-3.48,3.50,-0.19,-1.88,4.11,
1.222,-7.98,-3.48,3.50,-0.09,-1.89,4.09,
1.222,-7.97,-3.57,3.43,-0.09,-1.89,4.09,
1.225,-7.97,-3.57,3.43,0.01,-1.90,4.08,
1.227,-7.97,-3.57,3.43,0.11,-1.90,4.08,
1.227,-8.01,-3.70,3.33,0.11,-1.90,4.08,
1.23,-8.01,-3.70,3.33,0.21,-1.90,4.08,
1.233,-8.01,-3.70,3.33,0.32,-1.90,4.08,
1.242,-7.97,-3.82,3.24,0.32,-1.90,4.08,
1.243,-7.97,-3.82,3.24,0.42,-1.90,4.09,
1.243,-7.88,-4.02,3.12,0.42,-1.90,4.09,
1.243,-7.88,-4.02,3.12,0.53,-1.89,4.10,
1.243,-7.88,-4.02,3.12,0.65,-1.88,4.11,
1.243,-7.88,-4.02,3.12,0.76,-1.86,4.12,
1.243,-7.71,-4.26,2.97,0.76,-1.86,4.12,
1.246,-7.71,-4.26,2.97,0.88,-1.84,4.12,
1.249,-7.71,-4.26,2.97,1.00,-1.82,4.12,
1.249,-7.51,-4.56,2.82,1.00,-1.82,4.12,
1.257,-7.51,-4.56,2.82,1.12,-1.79,4.11,
1.258,-7.51,-4.56,2.82,1.25,-1.76,4.10,
1.258,-7.24,-4.88,2.67,1.25,-1.76,4.10,
1.258,-7.24,-4.88,2.67,1.38,-1.73,4.09,
1.258,-7.24,-4.88,2.67,1.51,-1.69,4.08,
1.258,-6.96,-5.12,2.47,1.51,-1.69,4.08,
1.26,-6.96,-5.12,2.47,1.64,-1.66,4.06,
1.263,-6.96,-5.12,2.47,1.77,-1.61,4.04,
1.264,-6.69,-5.32,2.25,1.77,-1.61,4.04,
1.265,-6.69,-5.32,2.25,1.90,-1.57,4.03,
1.267,-6.69,-5.32,2.25,2.04,-1.52,4.02,
1.267,-6.43,-5.47,2.06,2.04,-1.52,4.02,
1.282,-6.43,-5.47,2.06,2.17,-1.47,4.01,
1.283,-6.20,-5.59,1.82,2.17,-1.47,4.01,
1.284,-6.20,-5.59,1.82,2.30,-1.41,4.00,
1.284,-6.20,-5.59,1.82,2.42,-1.35,3.99,
1.284,-6.20,-5.59,1.82,2.55,-1.29,3.99,
1.285,-6.01,-5.73,1.58,2.55,-1.29,3.99,
1.286,-6.01,-5.73,1.58,2.67,-1.22,3.99,
1.286,-5.81,-5.90,1.34,2.67,-1.22,3.99,
1.286,-5.81,-5.90,1.34,2.79,-1.16,3.99,
1.287,-5.81,-5.90,1.34,2.90,-1.09,4.00,
1.287,-5.81,-5.90,1.34,3.02,-1.02,4.01,
1.288,-5.61,-6.07,1.14,3.02,-1.02,4.01,
1.289,-5.61,-6.07,1.14,3.13,-0.95,4.02,
1.292,-5.61,-6.07,1.14,3.23,-0.88,4.03,
1.292,-5.35,-6.25,0.94,3.23,-0.88,4.03,
1.295,-5.35,-6.25,0.94,3.33,-0.80,4.05,
1.297,-5.35,-6.25,0.94,3.43,-0.72,4.06,
1.297,-5.05,-6.44,0.77,3.43,-0.72,4.06,
1.299,-5.05,-6.44,0.77,3.52,-0.65,4.08,
1.302,-4.72,-6.64,0.66,3.52,-0.65,4.08,
1.302,-4.72,-6.64,0.66,3.60,-0.57,4.10,
1.305,-4.72,-6.64,0.66,3.69,-0.48,4.12,
1.307,-4.72,-6.64,0.66,3.76,-0.41,4.13,
1.307,-4.37,-6.90,0.57,3.76,-0.41,4.13,
1.309,-4.37,-6.90,0.57,3.84,-0.33,4.15,
1.311,-4.37,-6.90,0.57,3.91,-0.26,4.16,
1.312,-4.00,-7.16,0.56,3.91,-0.26,4.16,
1.314,-4.00,-7.16,0.56,3.98,-0.19,4.17,
1.317,-3.61,-7.46,0.59,3.98,-0.19,4.17,
1.317,-3.61,-7.46,0.59,4.04,-0.12,4.18,
1.319,-3.61,-7.46,0.59,4.10,-0.06,4.19,
1.321,-3.61,-7.46,0.59,4.16,-0.00,4.19,
1.322,-3.21,-7.72,0.63,4.16,-0.00,4.19,
1.324,-3.21,-7.72,0.63,4.22,0.05,4.19,
1.327,-3.21,-7.72,0.63,4.27,0.10,4.19,
1.328,-2.82,-7.97,0.71,4.27,0.10,4.19,
1.329,-2.82,-7.97,0.71,4.32,0.14,4.18,
1.331,-2.82,-7.97,0.71,4.38,0.19,4.18,
1.332,-2.42,-8.19,0.75,4.38,0.19,4.18,
1.334,-2.42,-8.19,0.75,4.43,0.23,4.17,
1.337,-2.02,-8.42,0.76,4.43,0.23,4.17,
1.337,-2.02,-8.42,0.76,4.47,0.28,4.16,
1.339,-2.02,-8.42,0.76,4.51,0.32,4.15,
1.341,-2.02,-8.42,0.76,4.55,0.36,4.13,
1.342,-1.64,-8.63,0.75,4.55,0.36,4.13,
1.344,-1.64,-8.63,0.75,4.59,0.39,4.11,
1.346,-1.64,-8.63,0.75,4.63,0.43,4.10,
1.346,-1.26,-8.78,0.70,4.63,0.43,4.10,
1.349,-1.26,-8.78,0.70,4.66,0.46,4.08,
1.355,-0.88,-8.89,0.68,4.66,0.46,4.08,
1.356,-0.88,-8.89,0.68,4.69,0.48,4.05,
1.356,-0.88,-8.89,0.68,4.73,0.51,4.02,
1.361,-0.88,-8.89,0.68,4.76,0.52,3.99,
1.362,-0.88,-8.89,0.68,4.80,0.54,3.96,
1.362,-0.57,-8.96,0.69,4.80,0.54,3.96,
1.362,-0.36,-9.02,0.72,4.80,0.54,3.96,
1.364,-0.36,-9.02,0.72,4.84,0.55,3.93,
1.364,-0.36,-9.02,0.72,4.88,0.55,3.90,
1.388,-0.36,-9.02,0.72,4.92,0.56,3.87,
1.389,-0.30,-9.08,0.70,4.92,0.56,3.87,
1.389,-0.30,-9.08,0.70,4.96,0.56,3.84,
1.389,-0.30,-9.08,0.70,5.00,0.56,3.82,
1.39,-0.26,-9.19,0.58,5.00,0.56,3.82,
1.39,-0.26,-9.19,0.58,5.05,0.57,3.79,
1.39,-0.26,-9.19,0.58,5.08,0.57,3.78,
1.39,-0.20,-9.32,0.36,5.08,0.57,3.78,
1.391,-0.20,-9.32,0.36,5.11,0.57,3.76,
1.391,-0.20,-9.32,0.36,5.14,0.57,3.75,
1.391,-0.11,-9.41,0.06,5.14,0.57,3.75,
1.392,-0.11,-9.41,0.06,5.16,0.58,3.75,
1.392,-0.11,-9.41,0.06,5.17,0.59,3.75,
1.392,0.01,-9.42,-0.31,5.17,0.59,3.75,
1.393,0.01,-9.42,-0.31,5.17,0.60,3.75,
1.393,0.01,-9.42,-0.31,5.17,0.61,3.75,
1.393,0.24,-9.41,-0.72,5.17,0.61,3.75,
1.395,0.24,-9.41,-0.72,5.16,0.63,3.76,
1.396,0.24,-9.41,-0.72,5.14,0.65,3.76,
1.396,0.55,-9.40,-1.11,5.14,0.65,3.76,
1.413,0.55,-9.40,-1.11,5.12,0.67,3.76,
1.413,0.90,-9.38,-1.49,5.12,0.67,3.76,
1.413,0.90,-9.38,-1.49,5.08,0.70,3.77,
1.413,0.90,-9.38,-1.49,5.04,0.71,3.77,
1.414,1.27,-9.37,-1.78,5.04,0.71,3.77,
1.414,1.27,-9.37,-1.78,4.99,0.73,3.77,
1.414,1.27,-9.37,-1.78,4.93,0.76,3.76,
1.414,1.65,-9.35,-2.03,4.93,0.76,3.76,
1.414,1.65,-9.35,-2.03,4.87,0.78,3.76,
1.416,1.65,-9.35,-2.03,4.80,0.80,3.75,
1.416,1.65,-9.35,-2.03,4.72,0.82,3.74,
1.417,2.04,-9.40,-2.23,4.72,0.82,3.74,
1.42,2.04,-9.40,-2.23,4.63,0.85,3.73,
1.421,2.04,-9.40,-2.23,4.54,0.86,3.71,
1.421,2.41,-9.37,-2.35,4.54,0.86,3.71,
1.424,2.41,-9.37,-2.35,4.45,0.88,3.69,
1.426,2.41,-9.37,-2.35,4.35,0.90,3.68,
1.427,2.74,-9.37,-2.44,4.35,0.90,3.68,
1.429,2.74,-9.37,-2.44,4.24,0.91,3.65,
1.431,2.74,-9.37,-2.44,4.13,0.92,3.63,
1.432,3.02,-9.35,-2.48,4.13,0.92,3.63,
1.434,3.02,-9.35,-2.48,4.02,0.93,3.60,
1.438,3.02,-9.35,-2.48,3.90,0.94,3.57,
1.438,3.26,-9.39,-2.48,3.90,0.94,3.57,
1.438,3.26,-9.39,-2.48,3.78,0.94,3.53,
1.44,3.26,-9.39,-2.48,3.66,0.94,3.50,
1.441,3.45,-9.41,-2.42,3.66,0.94,3.50,
1.443,3.45,-9.41,-2.42,3.54,0.93,3.46,
1.445,3.45,-9.41,-2.42,3.42,0.93,3.42,
1.446,3.55,-9.49,-2.30,3.42,0.93,3.42,
1.448,3.55,-9.49,-2.30,3.30,0.92,3.38,
1.453,3.62,-9.57,-2.14,3.30,0.92,3.38,
1.459,3.62,-9.57,-2.14,3.19,0.90,3.33,
1.46,3.62,-9.57,-2.14,3.07,0.89,3.29,
1.46,3.62,-9.57,-2.14,2.96,0.87,3.24,
1.46,3.63,-9.66,-1.95,2.96,0.87,3.24,
1.461,3.63,-9.66,-1.95,2.85,0.85,3.18,
1.461,3.63,-9.66,-1.95,2.75,0.82,3.13,
1.461,3.62,-9.74,-1.70,2.75,0.82,3.13,
1.465,3.62,-9.74,-1.70,2.65,0.78,3.08,
1.465,3.62,-9.74,-1.70,2.55,0.75,3.03,
1.465,3.59,-9.81,-1.47,2.55,0.75,3.03,
1.475,3.59,-9.81,-1.47,2.46,0.71,2.98,
1.476,3.59,-9.81,-1.47,2.37,0.67,2.92,
1.476,3.48,-9.88,-1.26,2.37,0.67,2.92,
1.476,3.48,-9.88,-1.26,2.28,0.63,2.87,
1.476,3.48,-9.88,-1.26,2.20,0.59,2.82,
1.477,3.43,-9.91,-1.07,2.20,0.59,2.82,
1.478,3.43,-9.91,-1.07,2.12,0.55,2.76,
1.48,3.43,-9.91,-1.07,2.04,0.51,2.71,
1.48,3.37,-9.94,-0.90,2.04,0.51,2.71,
1.483,3.37,-9.94,-0.90,1.97,0.47,2.66,
1.486,3.37,-9.94,-0.90,1.89,0.44,2.61,
1.486,3.33,-9.92,-0.77,1.89,0.44,2.61,
1.49,3.33,-9.92,-0.77,1.82,0.40,2.56,
1.49,3.33,-9.92,-0.77,1.75,0.37,2.51,
1.491,3.29,-9.93,-0.67,1.75,0.37,2.51,
1.493,3.29,-9.93,-0.67,1.68,0.33,2.46,
1.495,3.29,-9.90,-0.61,1.68,0.33,2.46,
1.496,3.29,-9.90,-0.61,1.61,0.30,2.41,
1.498,3.29,-9.90,-0.61,1.53,0.27,2.37,
1.5,3.29,-9.90,-0.61,1.46,0.23,2.32,
1.501,3.31,-9.87,-0.54,1.46,0.23,2.32,
1.504,3.31,-9.87,-0.54,1.39,0.20,2.27,
1.505,3.31,-9.87,-0.54,1.31,0.16,2.22,
1.505,3.39,-9.79,-0.50,1.31,0.16,2.22,
1.508,3.39,-9.79,-0.50,1.24,0.13,2.17,
1.51,3.39,-9.79,-0.50,1.16,0.10,2.12,
1.51,3.47,-9.69,-0.45,1.16,0.10,2.12,
1.513,3.47,-9.69,-0.45,1.09,0.06,2.07,
1.515,3.47,-9.69,-0.45,1.02,0.03,2.02,
1.515,3.58,-9.58,-0.38,1.02,0.03,2.02,
1.518,3.58,-9.58,-0.38,0.95,-0.00,1.97,
1.521,3.58,-9.58,-0.38,0.88,-0.04,1.92,
1.521,3.72,-9.44,-0.32,0.88,-0.04,1.92,
1.522,3.72,-9.44,-0.32,0.82,-0.07,1.87,
1.525,3.72,-9.44,-0.32,0.76,-0.11,1.81,
1.525,3.83,-9.30,-0.25,0.76,-0.11,1.81,
1.528,3.83,-9.30,-0.25,0.70,-0.14,1.76,
1.53,3.83,-9.30,-0.25,0.65,-0.18,1.71,
1.53,3.90,-9.17,-0.19,0.65,-0.18,1.71,
1.532,3.90,-9.17,-0.19,0.60,-0.22,1.66,
1.535,3.90,-9.17,-0.19,0.56,-0.25,1.61,
1.536,3.90,-9.04,-0.12,0.56,-0.25,1.61,
1.538,3.90,-9.04,-0.12,0.52,-0.29,1.57,
1.54,3.90,-9.04,-0.12,0.48,-0.32,1.52,
1.54,3.95,-8.95,-0.07,0.48,-0.32,1.52,
1.543,3.95,-8.95,-0.07,0.44,-0.34,1.48,
1.545,3.95,-8.95,-0.07,0.40,-0.37,1.44,
1.545,4.00,-8.89,-0.10,0.40,-0.37,1.44,
1.548,4.00,-8.89,-0.10,0.37,-0.38,1.40,
1.55,4.01,-8.86,-0.18,0.37,-0.38,1.40,
1.551,4.01,-8.86,-0.18,0.33,-0.40,1.36,
1.557,4.01,-8.86,-0.18,0.30,-0.41,1.32,
1.559,4.01,-8.86,-0.18,0.26,-0.42,1.28,
1.56,3.98,-8.87,-0.26,0.26,-0.42,1.28,
1.561,3.98,-8.87,-0.26,0.23,-0.44,1.25,
1.562,3.89,-8.96,-0.34,0.23,-0.44,1.25,
1.562,3.89,-8.96,-0.34,0.20,-0.45,1.21,
1.563,3.89,-8.96,-0.34,0.17,-0.46,1.18,
1.59,3.89,-8.96,-0.34,0.14,-0.47,1.14,
1.59,3.77,-9.12,-0.40,0.14,-0.47,1.14,
1.59,3.77,-9.12,-0.40,0.11,-0.48,1.11,
1.591,3.69,-9.29,-0.45,0.11,-0.48,1.11,
1.591,3.69,-9.29,-0.45,0.09,-0.49,1.08,
1.592,3.69,-9.29,-0.45,0.06,-0.49,1.04,
1.592,3.69,-9.29,-0.45,0.04,-0.50,1.01,
1.593,3.64,-9.50,-0.52,0.04,-0.50,1.01,
1.593,3.64,-9.50,-0.52,0.01,-0.51,0.97,
1.593,3.64,-9.50,-0.52,-0.01,-0.51,0.94,
1.594,3.62,-9.72,-0.61,-0.01,-0.51,0.94,
1.594,3.62,-9.72,-0.61,-0.03,-0.51,0.90,
1.595,3.62,-9.72,-0.61,-0.06,-0.51,0.86,
1.595,3.65,-9.91,-0.69,-0.06,-0.51,0.86,
1.595,3.65,-9.91,-0.69,-0.08,-0.51,0.81,
1.595,3.65,-9.91,-0.69,-0.10,-0.50,0.76,
1.596,3.72,-10.12,-0.78,-0.10,-0.50,0.76,
1.596,3.72,-10.12,-0.78,-0.13,-0.49,0.71,
1.596,3.72,-10.12,-0.78,-0.15,-0.48,0.65,
1.597,3.82,-10.34,-0.86,-0.15,-0.48,0.65,
1.597,3.82,-10.34,-0.86,-0.17,-0.47,0.59,
1.599,3.82,-10.34,-0.86,-0.20,-0.45,0.53,
1.6,3.92,-10.53,-0.96,-0.20,-0.45,0.53,
1.608,3.92,-10.53,-0.96,-0.22,-0.43,0.46,
1.608,3.99,-10.75,-1.04,-0.22,-0.43,0.46,
1.609,3.99,-10.75,-1.04,-0.25,-0.41,0.38,
1.609,3.99,-10.75,-1.04,-0.28,-0.39,0.31,
1.609,3.99,-10.75,-1.04,-0.31,-0.36,0.23,
1.609,4.03,-10.97,-1.10,-0.31,-0.36,0.23,
1.612,4.03,-10.97,-1.10,-0.34,-0.34,0.14,
1.615,4.03,-10.97,-1.10,-0.37,-0.31,0.05,
1.615,4.04,-11.23,-1.13,-0.37,-0.31,0.05,
1.617,4.04,-11.23,-1.13,-0.40,-0.28,-0.04,
1.619,3.98,-11.50,-1.14,-0.40,-0.28,-0.04,
1.621,3.98,-11.50,-1.14,-0.43,-0.24,-0.14,
1.626,3.98,-11.50,-1.14,-0.46,-0.21,-0.24,
1.627,3.98,-11.50,-1.14,-0.50,-0.18,-0.34,
1.627,3.89,-11.79,-1.12,-0.50,-0.18,-0.34,
1.627,3.89,-11.79,-1.12,-0.53,-0.15,-0.45,
1.629,3.89,-11.79,-1.12,-0.56,-0.12,-0.56,
1.629,3.75,-12.10,-1.07,-0.56,-0.12,-0.56,
1.632,3.75,-12.10,-1.07,-0.60,-0.09,-0.67,
1.634,3.59,-12.45,-1.02,-0.60,-0.09,-0.67,
1.634,3.59,-12.45,-1.02,-0.64,-0.07,-0.79,
1.637,3.59,-12.45,-1.02,-0.68,-0.05,-0.91,
1.639,3.59,-12.45,-1.02,-0.72,-0.02,-1.03,
1.639,3.39,-12.79,-0.94,-0.72,-0.02,-1.03,
1.641,3.39,-12.79,-0.94,-0.76,-0.01,-1.16,
1.644,3.39,-12.79,-0.94,-0.80,0.01,-1.30,
1.644,3.19,-13.10,-0.87,-0.80,0.01,-1.30,
1.646,3.19,-13.10,-0.87,-0.84,0.03,-1.43,
1.649,3.19,-13.10,-0.87,-0.88,0.04,-1.57,
1.649,3.08,-13.33,-0.76,-0.88,0.04,-1.57,
1.652,3.08,-13.33,-0.76,-0.92,0.05,-1.72,
1.655,3.08,-13.33,-0.76,-0.96,0.06,-1.87,
1.655,3.02,-13.48,-0.63,-0.96,0.06,-1.87,
1.658,3.02,-13.48,-0.63,-1.00,0.07,-2.02,
1.659,3.02,-13.48,-0.63,-1.03,0.09,-2.18,
1.659,3.01,-13.47,-0.49,-1.03,0.09,-2.18,
1.661,3.01,-13.47,-0.49,-1.07,0.10,-2.33,
1.664,3.01,-13.47,-0.49,-1.10,0.12,-2.50,
1.664,2.93,-13.34,-0.34,-1.10,0.12,-2.50,
1.666,2.93,-13.34,-0.34,-1.14,0.14,-2.65,
1.672,2.93,-13.34,-0.34,-1.17,0.16,-2.81,
1.673,2.75,-13.20,-0.16,-1.17,0.16,-2.81,
1.673,2.75,-13.20,-0.16,-1.20,0.18,-2.97,
1.674,2.50,-12.96,0.01,-1.20,0.18,-2.97,
1.679,2.50,-12.96,0.01,-1.23,0.20,-3.13,
1.679,2.50,-12.96,0.01,-1.26,0.21,-3.28,
1.68,2.50,-12.96,0.01,-1.28,0.23,-3.42,
1.68,2.12,-12.70,0.21,-1.28,0.23,-3.42,
1.682,2.12,-12.70,0.21,-1.31,0.24,-3.56,
1.684,2.12,-12.70,0.21,-1.33,0.25,-3.69,
1.702,1.68,-12.39,0.43,-1.33,0.25,-3.69,
1.703,1.68,-12.39,0.43,-1.35,0.26,-3.82,
1.703,1.68,-12.39,0.43,-1.37,0.26,-3.93,
1.703,1.14,-12.10,0.63,-1.37,0.26,-3.93,
1.704,1.14,-12.10,0.63,-1.39,0.27,-4.05,
1.704,1.14,-12.10,0.63,-1.40,0.27,-4.15,
1.704,0.51,-11.82,0.81,-1.40,0.27,-4.15,
1.705,0.51,-11.82,0.81,-1.41,0.27,-4.25,
1.705,-0.13,-11.52,0.97,-1.41,0.27,-4.25,
1.705,-0.13,-11.52,0.97,-1.43,0.26,-4.34,
1.706,-0.13,-11.52,0.97,-1.44,0.26,-4.42,
1.706,-0.73,-11.25,1.09,-1.44,0.26,-4.42,
1.706,-0.73,-11.25,1.09,-1.46,0.25,-4.50,
1.706,-0.73,-11.25,1.09,-1.47,0.24,-4.57,
1.709,-1.30,-10.97,1.18,-1.47,0.24,-4.57,
1.709,-1.30,-10.97,1.18,-1.49,0.22,-4.63,
1.711,-1.30,-10.97,1.18,-1.50,0.21,-4.68,
1.714,-1.78,-10.72,1.23,-1.50,0.21,-4.68,
1.715,-1.78,-10.72,1.23,-1.53,0.20,-4.73,
1.716,-1.78,-10.72,1.23,-1.55,0.17,-4.78,
1.719,-1.78,-10.72,1.23,-1.58,0.16,-4.82,
1.72,-2.20,-10.55,1.26,-1.58,0.16,-4.82,
1.722,-2.20,-10.55,1.26,-1.61,0.14,-4.86,
1.724,-2.20,-10.55,1.26,-1.64,0.11,-4.90,
1.725,-2.54,-10.37,1.32,-1.64,0.11,-4.90,
1.726,-2.54,-10.37,1.32,-1.67,0.09,-4.94,
1.729,-2.85,-10.18,1.45,-1.67,0.09,-4.94,
1.748,-2.85,-10.18,1.45,-1.70,0.07,-4.98,
1.749,-2.85,-10.18,1.45,-1.72,0.05,-5.02,
1.749,-2.85,-10.18,1.45,-1.75,0.02,-5.06,
1.749,-3.08,-9.98,1.58,-1.75,0.02,-5.06,
1.749,-3.08,-9.98,1.58,-1.77,-0.00,-5.09,
1.75,-3.24,-9.75,1.75,-1.77,-0.00,-5.09,
1.75,-3.24,-9.75,1.75,-1.79,-0.02,-5.13,
1.75,-3.24,-9.75,1.75,-1.81,-0.04,-5.17,
1.75,-3.38,-9.51,1.90,-1.81,-0.04,-5.17,
1.75,-3.38,-9.51,1.90,-1.82,-0.06,-5.21,
1.751,-3.38,-9.51,1.90,-1.82,-0.07,-5.25,
1.751,-3.38,-9.51,1.90,-1.81,-0.08,-5.29,
1.751,-3.50,-9.23,2.06,-1.81,-0.08,-5.29,
1.752,-3.50,-9.23,2.06,-1.80,-0.08,-5.34,
1.755,-3.50,-9.23,2.06,-1.77,-0.07,-5.38,
1.755,-3.66,-8.93,2.19,-1.77,-0.07,-5.38,
1.755,-3.66,-8.93,2.19,-1.74,-0.06,-5.42,
1.759,-3.66,-8.93,2.19,-1.70,-0.04,-5.46,
1.759,-3.87,-8.62,2.30,-1.70,-0.04,-5.46,
1.76,-3.87,-8.62,2.30,-1.65,-0.01,-5.51,
1.763,-3.87,-8.62,2.30,-1.59,0.02,-5.55,
1.763,-4.17,-8.23,2.34,-1.59,0.02,-5.55,
1.765,-4.17,-8.23,2.34,-1.52,0.06,-5.59,
1.769,-4.17,-8.23,2.34,-1.44,0.10,-5.62,
1.769,-4.48,-7.79,2.33,-1.44,0.10,-5.62,
1.77,-4.48,-7.79,2.33,-1.36,0.15,-5.64,
1.773,-4.79,-7.25,2.30,-1.36,0.15,-5.64,
1.773,-4.79,-7.25,2.30,-1.27,0.20,-5.67,
1.775,-4.79,-7.25,2.30,-1.17,0.27,-5.69,
1.778,-4.79,-7.25,2.30,-1.07,0.33,-5.70,
1.778,-5.13,-6.68,2.23,-1.07,0.33,-5.70,
1.78,-5.13,-6.68,2.23,-0.96,0.40,-5.70,
1.783,-5.13,-6.68,2.23,-0.85,0.47,-5.70,
1.783,-5.55,-5.99,2.17,-0.85,0.47,-5.70,
1.789,-5.55,-5.99,2.17,-0.73,0.54,-5.69,
1.789,-5.97,-5.28,2.11,-0.73,0.54,-5.69,
1.79,-5.97,-5.28,2.11,-0.62,0.61,-5.68,
1.801,-5.97,-5.28,2.11,-0.50,0.69,-5.65,
1.802,-6.34,-4.58,2.02,-0.50,0.69,-5.65,
1.802,-6.69,-3.85,1.90,-0.50,0.69,-5.65,
1.802,-6.69,-3.85,1.90,-0.38,0.76,-5.62,
1.803,-6.69,-3.85,1.90,-0.27,0.84,-5.59,
1.803,-6.69,-3.85,1.90,-0.15,0.92,-5.54,
1.803,-6.69,-3.85,1.90,-0.04,1.00,-5.49,
1.812,-6.69,-3.85,1.90,0.06,1.07,-5.44,
1.812,-6.96,-3.15,1.77,0.06,1.07,-5.44,
1.813,-6.96,-3.15,1.77,0.16,1.15,-5.38,
1.813,-6.96,-3.15,1.77,0.25,1.21,-5.31,
1.813,-7.20,-2.41,1.66,0.25,1.21,-5.31,
1.813,-7.20,-2.41,1.66,0.33,1.28,-5.24,
1.814,-7.37,-1.77,1.50,0.33,1.28,-5.24,
1.814,-7.37,-1.77,1.50,0.40,1.33,-5.17,
1.815,-7.37,-1.77,1.50,0.45,1.38,-5.10,
1.818,-7.37,-1.77,1.50,0.50,1.42,-5.03,
1.818,-7.49,-1.20,1.33,0.50,1.42,-5.03,
1.824,-7.49,-1.20,1.33,0.53,1.45,-4.96,
1.825,-7.49,-1.20,1.33,0.55,1.46,-4.89,
1.825,-7.57,-0.71,1.18,0.55,1.46,-4.89,
1.825,-7.57,-0.71,1.18,0.55,1.47,-4.83,
1.828,-7.57,-0.71,1.18,0.54,1.46,-4.76,
1.829,-7.67,-0.28,1.05,0.54,1.46,-4.76,
1.831,-7.67,-0.28,1.05,0.52,1.45,-4.70,
1.833,-7.67,-0.28,1.05,0.48,1.42,-4.65,
1.834,-7.74,0.11,0.94,0.48,1.42,-4.65,
1.839,-7.74,0.11,0.94,0.44,1.38,-4.59,
1.839,-7.74,0.11,0.94,0.38,1.34,-4.54,
1.839,-7.79,0.50,0.91,0.38,1.34,-4.54,
1.84,-7.79,0.50,0.91,0.32,1.28,-4.49,
1.843,-7.79,0.50,0.91,0.25,1.20,-4.44,
1.843,-7.82,0.91,0.94,0.25,1.20,-4.44,
1.845,-7.82,0.91,0.94,0.18,1.13,-4.39,
1.847,-7.85,1.37,1.03,0.18,1.13,-4.39,
1.847,-7.85,1.37,1.03,0.09,1.04,-4.35,
1.85,-7.85,1.37,1.03,0.01,0.96,-4.30,
1.857,-7.85,1.83,1.14,0.01,0.96,-4.30,
1.858,-7.85,1.83,1.14,-0.09,0.87,-4.25,
1.858,-7.85,1.83,1.14,-0.18,0.77,-4.20,
1.858,-7.85,1.83,1.14,-0.28,0.68,-4.15,
1.858,-7.85,2.27,1.29,-0.28,0.68,-4.15,
1.86,-7.85,2.27,1.29,-0.38,0.58,-4.10,
1.864,-7.79,2.63,1.46,-0.38,0.58,-4.10,
1.865,-7.79,2.63,1.46,-0.48,0.49,-4.04,
1.865,-7.79,2.63,1.46,-0.58,0.39,-3.99,
1.867,-7.79,2.63,1.46,-0.67,0.29,-3.93,
1.868,-7.72,2.94,1.62,-0.67,0.29,-3.93,
1.88,-7.72,2.94,1.62,-0.77,0.20,-3.86,
1.881,-7.60,3.24,1.77,-0.77,0.20,-3.86,
1.881,-7.60,3.24,1.77,-0.87,0.10,-3.80,
1.881,-7.60,3.24,1.77,-0.96,0.01,-3.73,
1.881,-7.47,3.48,1.94,-0.96,0.01,-3.73,
1.882,-7.47,3.48,1.94,-1.05,-0.08,-3.66,
1.882,-7.47,3.48,1.94,-1.14,-0.17,-3.59,
1.883,-7.47,3.48,1.94,-1.22,-0.26,-3.51,
1.883,-7.32,3.69,2.16,-1.22,-0.26,-3.51,
1.885,-7.32,3.69,2.16,-1.30,-0.34,-3.43,
1.888,-7.23,3.90,2.44,-1.30,-0.34,-3.43,
1.889,-7.23,3.90,2.44,-1.36,-0.43,-3.34,
1.889,-7.23,3.90,2.44,-1.43,-0.52,-3.25,
1.892,-7.23,3.90,2.44,-1.48,-0.61,-3.16,
1.892,-7.12,4.05,2.80,-1.48,-0.61,-3.16,
1.911,-7.12,4.05,2.80,-1.53,-0.70,-3.06,
1.911,-6.96,4.16,3.22,-1.53,-0.70,-3.06,
1.912,-6.96,4.16,3.22,-1.56,-0.79,-2.96,
1.912,-6.96,4.16,3.22,-1.59,-0.87,-2.86,
1.912,-6.96,4.16,3.22,-1.61,-0.96,-2.77,
1.912,-6.78,4.21,3.58,-1.61,-0.96,-2.77,
1.912,-6.78,4.21,3.58,-1.62,-1.05,-2.67,
1.912,-6.78,4.21,3.58,-1.63,-1.13,-2.57,
1.913,-6.60,4.22,3.85,-1.63,-1.13,-2.57,
1.913,-6.60,4.22,3.85,-1.63,-1.21,-2.48,
1.913,-6.60,4.22,3.85,-1.63,-1.29,-2.39,
1.913,-6.36,4.13,3.97,-1.63,-1.29,-2.39,
1.916,-6.36,4.13,3.97,-1.62,-1.37,-2.30,
1.918,-6.36,4.13,3.97,-1.61,-1.44,-2.22,
1.918,-6.04,4.00,3.99,-1.61,-1.44,-2.22,
1.92,-6.04,4.00,3.99,-1.60,-1.51,-2.15,
1.922,-6.04,4.00,3.99,-1.59,-1.57,-2.08,
1.922,-5.67,3.80,3.87,-1.59,-1.57,-2.08,
1.924,-5.67,3.80,3.87,-1.58,-1.62,-2.01,
1.926,-5.67,3.80,3.87,-1.56,-1.66,-1.95,
1.927,-5.28,3.59,3.65,-1.56,-1.66,-1.95,
1.93,-5.28,3.59,3.65,-1.55,-1.70,-1.90,
1.931,-5.28,3.59,3.65,-1.54,-1.72,-1.84,
1.932,-4.85,3.41,3.40,-1.54,-1.72,-1.84,
1.934,-4.85,3.41,3.40,-1.52,-1.74,-1.80,
1.938,-4.85,3.41,3.40,-1.51,-1.75,-1.76,
1.938,-4.47,3.25,3.10,-1.51,-1.75,-1.76,
1.939,-4.47,3.25,3.10,-1.50,-1.75,-1.73,
1.941,-4.47,3.25,3.10,-1.49,-1.74,-1.70,
1.942,-4.15,3.09,2.82,-1.49,-1.74,-1.70,
1.944,-4.15,3.09,2.82,-1.48,-1.73,-1.67,
1.947,-4.15,3.09,2.82,-1.48,-1.72,-1.65,
1.947,-3.86,2.95,2.55,-1.48,-1.72,-1.65,
1.949,-3.86,2.95,2.55,-1.48,-1.70,-1.64,
1.959,-3.64,2.81,2.33,-1.48,-1.70,-1.64,
1.959,-3.64,2.81,2.33,-1.47,-1.67,-1.62,
1.96,-3.64,2.81,2.33,-1.47,-1.64,-1.61,
1.96,-3.64,2.81,2.33,-1.47,-1.61,-1.60,
1.96,-3.45,2.69,2.13,-1.47,-1.61,-1.60,
1.96,-3.45,2.69,2.13,-1.48,-1.58,-1.60,
1.962,-3.45,2.69,2.13,-1.48,-1.54,-1.59,
1.963,-3.32,2.56,1.95,-1.48,-1.54,-1.59,
1.967,-3.32,2.56,1.95,-1.49,-1.51,-1.59,
1.967,-3.32,2.56,1.95,-1.50,-1.47,-1.58,
1.968,-3.26,2.50,1.76,-1.50,-1.47,-1.58,
1.977,-3.26,2.50,1.76,-1.51,-1.42,-1.58,
1.978,-3.26,2.50,1.76,-1.53,-1.38,-1.57,
1.978,-3.24,2.45,1.63,-1.53,-1.38,-1.57,
1.978,-3.24,2.45,1.63,-1.54,-1.34,-1.57,
1.978,-3.25,2.44,1.53,-1.54,-1.34,-1.57,
1.979,-3.25,2.44,1.53,-1.56,-1.29,-1.56,
1.979,-3.25,2.44,1.53,-1.57,-1.25,-1.56,
1.981,-3.25,2.44,1.53,-1.59,-1.20,-1.55,
1.981,-3.20,2.46,1.49,-1.59,-1.20,-1.55,
1.984,-3.20,2.46,1.49,-1.61,-1.16,-1.55,
1.986,-3.20,2.46,1.49,-1.62,-1.11,-1.54,
1.986,-3.20,2.50,1.50,-1.62,-1.11,-1.54,
1.989,-3.20,2.50,1.50,-1.64,-1.06,-1.53,
1.991,-3.20,2.50,1.50,-1.65,-1.01,-1.53,
1.991,-3.22,2.55,1.51,-1.65,-1.01,-1.53,
1.993,-3.22,2.55,1.51,-1.67,-0.97,-1.52,
1.996,-3.22,2.55,1.51,-1.69,-0.91,-1.52,
1.996,-3.30,2.53,1.50,-1.69,-0.91,-1.52,
1.998,-3.30,2.53,1.50,-1.71,-0.86,-1.52,
2.001,-3.30,2.53,1.50,-1.73,-0.80,-1.51,
2.001,-3.40,2.51,1.55,-1.73,-0.80,-1.51,
2.004,-3.40,2.51,1.55,-1.75,-0.75,-1.51,
2.006,-3.40,2.51,1.55,-1.77,-0.69,-1.50,
2.006,-3.64,2.47,1.56,-1.77,-0.69,-1.50,
2.009,-3.64,2.47,1.56,-1.79,-0.63,-1.50,
2.011,-3.64,2.47,1.56,-1.81,-0.57,-1.49,
2.011,-3.99,2.39,1.62,-1.81,-0.57,-1.49,
2.013,-3.99,2.39,1.62,-1.84,-0.52,-1.48,
2.016,-3.99,2.39,1.62,-1.86,-0.48,-1.47,
2.016,-4.37,2.25,1.75,-1.86,-0.48,-1.47,
2.018,-4.37,2.25,1.75,-1.88,-0.43,-1.47,
2.021,-4.37,2.25,1.75,-1.90,-0.39,-1.46,
2.021,-4.79,2.06,1.84,-1.90,-0.39,-1.46,
2.023,-4.79,2.06,1.84,-1.93,-0.35,-1.46,
2.026,-4.79,2.06,1.84,-1.95,-0.32,-1.45,
2.026,-5.23,1.86,1.95,-1.95,-0.32,-1.45,
2.028,-5.23,1.86,1.95,-1.97,-0.29,-1.45,
2.031,-5.23,1.86,1.95,-2.00,-0.28,-1.45,
2.031,-5.72,1.74,2.16,-2.00,-0.28,-1.45,
2.033,-5.72,1.74,2.16,-2.01,-0.28,-1.45,
2.036,-6.20,1.70,2.40,-2.01,-0.28,-1.45,
2.037,-6.20,1.70,2.40,-2.03,-0.29,-1.45,
2.039,-6.20,1.70,2.40,-2.05,-0.31,-1.45,
2.041,-6.20,1.70,2.40,-2.06,-0.35,-1.44,
2.041,-6.58,1.77,2.65,-2.06,-0.35,-1.44,
2.043,-6.58,1.77,2.65,-2.08,-0.40,-1.44,
2.046,-6.58,1.77,2.65,-2.09,-0.46,-1.44,
2.046,-6.82,1.98,2.86,-2.09,-0.46,-1.44,
2.048,-6.82,1.98,2.86,-2.11,-0.52,-1.43,
2.051,-6.82,1.98,2.86,-2.13,-0.59,-1.42,
2.052,-6.93,2.35,2.96,-2.13,-0.59,-1.42,
2.062,-6.93,2.35,2.96,-2.16,-0.67,-1.41,
2.063,-6.93,2.35,2.96,-2.19,-0.74,-1.39,
2.063,-6.93,2.81,2.99,-2.19,-0.74,-1.39,
2.064,-6.93,2.81,2.99,-2.23,-0.80,-1.37,
2.093,-6.93,2.81,2.99,-2.28,-0.87,-1.34,
2.093,-6.80,3.34,2.92,-2.28,-0.87,-1.34,
2.094,-6.80,3.34,2.92,-2.33,-0.92,-1.32,
2.094,-6.80,3.34,2.92,-2.39,-0.97,-1.29,
2.094,-6.63,3.84,2.86,-2.39,-0.97,-1.29,
2.094,-6.63,3.84,2.86,-2.46,-1.01,-1.27,
2.095,-6.42,4.21,2.81,-2.46,-1.01,-1.27,
2.095,-6.42,4.21,2.81,-2.53,-1.05,-1.24,
2.095,-6.42,4.21,2.81,-2.59,-1.09,-1.22,
2.095,-6.42,4.21,2.81,-2.66,-1.12,-1.21,
2.096,-6.21,4.50,2.87,-2.66,-1.12,-1.21,
2.096,-6.21,4.50,2.87,-2.73,-1.14,-1.19,
2.096,-6.21,4.50,2.87,-2.79,-1.16,-1.18,
2.096,-6.06,4.75,3.04,-2.79,-1.16,-1.18,
2.097,-6.06,4.75,3.04,-2.85,-1.17,-1.17,
2.097,-6.06,4.75,3.04,-2.89,-1.17,-1.17,
2.097,-6.01,4.94,3.32,-2.89,-1.17,-1.17,
2.097,-6.01,4.94,3.32,-2.93,-1.17,-1.17,
2.097,-6.01,4.94,3.32,-2.95,-1.16,-1.17,
2.098,-6.18,5.05,3.77,-2.95,-1.16,-1.17,
2.098,-6.18,5.05,3.77,-2.96,-1.15,-1.17,
2.098,-6.46,5.09,4.34,-2.96,-1.15,-1.17,
2.098,-6.46,5.09,4.34,-2.95,-1.13,-1.17,
2.099,-6.46,5.09,4.34,-2.93,-1.10,-1.17,
2.101,-6.91,5.05,4.96,-2.93,-1.10,-1.17,
2.106,-6.91,5.05,4.96,-2.89,-1.07,-1.16,
2.109,-6.91,5.05,4.96,-2.84,-1.04,-1.16,
2.11,-7.53,4.92,5.54,-2.84,-1.04,-1.16,
2.11,-7.53,4.92,5.54,-2.78,-1.00,-1.14,
2.11,-7.53,4.92,5.54,-2.70,-0.96,-1.12,
2.111,-8.21,4.72,6.06,-2.70,-0.96,-1.12,
2.116,-8.21,4.72,6.06,-2.61,-0.92,-1.10,
2.116,-8.21,4.72,6.06,-2.51,-0.87,-1.07,
2.117,-8.21,4.72,6.06,-2.40,-0.83,-1.04,
2.117,-8.98,4.50,6.52,-2.40,-0.83,-1.04,
2.118,-8.98,4.50,6.52,-2.28,-0.78,-1.00,
2.121,-8.98,4.50,6.52,-2.14,-0.74,-0.95,
2.125,-9.80,4.29,6.90,-2.14,-0.74,-0.95,
2.125,-9.80,4.29,6.90,-2.00,-0.70,-0.91,
2.126,-10.61,4.13,7.24,-2.00,-0.70,-0.91,
2.126,-10.61,4.13,7.24,-1.85,-0.66,-0.86,
2.128,-10.61,4.13,7.24,-1.70,-0.61,-0.81,
2.132,-10.61,4.13,7.24,-1.54,-0.58,-0.75,
2.132,-11.42,3.97,7.51,-1.54,-0.58,-0.75,
2.133,-11.42,3.97,7.51,-1.37,-0.56,-0.69,
2.135,-12.15,3.89,7.72,-1.37,-0.56,-0.69,
2.135,-12.15,3.89,7.72,-1.20,-0.54,-0.62,
2.141,-12.15,3.89,7.72,-1.02,-0.53,-0.55,
2.141,-12.82,3.89,7.87,-1.02,-0.53,-0.55,
2.141,-12.82,3.89,7.87,-0.85,-0.54,-0.47,
2.143,-12.82,3.89,7.87,-0.67,-0.56,-0.38,
2.145,-12.82,3.89,7.87,-0.49,-0.59,-0.29,
2.145,-13.33,4.04,7.96,-0.49,-0.59,-0.29,
2.147,-13.33,4.04,7.96,-0.31,-0.63,-0.19,
2.15,-13.33,4.04,7.96,-0.13,-0.68,-0.08,
2.15,-13.64,4.25,8.00,-0.13,-0.68,-0.08,
2.156,-13.64,4.25,8.00,0.05,-0.74,0.04,
2.157,-13.67,4.51,7.94,0.05,-0.74,0.04,
2.157,-13.67,4.51,7.94,0.23,-0.82,0.18,
2.157,-13.67,4.51,7.94,0.40,-0.90,0.32,
2.159,-13.67,4.51,7.94,0.57,-0.99,0.46,
2.16,-13.41,4.81,7.65,0.57,-0.99,0.46,
2.162,-13.41,4.81,7.65,0.73,-1.07,0.61,
2.165,-13.41,4.81,7.65,0.87,-1.16,0.76,
2.165,-12.90,5.15,7.20,0.87,-1.16,0.76,
2.167,-12.90,5.15,7.20,1.01,-1.25,0.91,
2.177,-12.17,5.42,6.51,1.01,-1.25,0.91,
2.177,-12.17,5.42,6.51,1.13,-1.33,1.06,
2.178,-12.17,5.42,6.51,1.25,-1.42,1.20,
2.178,-12.17,5.42,6.51,1.35,-1.50,1.33,
2.178,-11.32,5.60,5.69,1.35,-1.50,1.33,
2.178,-11.32,5.60,5.69,1.44,-1.57,1.46,
2.18,-11.32,5.60,5.69,1.51,-1.64,1.58,
2.18,-10.42,5.68,4.73,1.51,-1.64,1.58,
2.182,-10.42,5.68,4.73,1.57,-1.71,1.69,
2.184,-10.42,5.68,4.73,1.62,-1.77,1.80,
2.184,-9.54,5.67,3.75,1.62,-1.77,1.80,
2.187,-9.54,5.67,3.75,1.66,-1.83,1.91,
2.189,-9.54,5.67,3.75,1.69,-1.89,2.01,
2.19,-8.65,5.64,2.74,1.69,-1.89,2.01,
2.192,-8.65,5.64,2.74,1.71,-1.94,2.11,
2.194,-8.65,5.64,2.74,1.73,-1.98,2.20,
2.194,-7.70,5.55,1.75,1.73,-1.98,2.20,
2.197,-7.70,5.55,1.75,1.73,-2.02,2.28,
2.199,-7.70,5.55,1.75,1.73,-2.06,2.36,
2.199,-6.76,5.45,0.74,1.73,-2.06,2.36,
2.202,-6.76,5.45,0.74,1.72,-2.08,2.43,
2.204,-6.76,5.45,0.74,1.70,-2.10,2.49,
2.205,-5.84,5.34,-0.22,1.70,-2.10,2.49,
2.207,-5.84,5.34,-0.22,1.68,-2.10,2.54,
2.209,-5.84,5.34,-0.22,1.66,-2.09,2.58,
2.209,-4.97,5.23,-1.17,1.66,-2.09,2.58,
2.212,-4.97,5.23,-1.17,1.63,-2.06,2.62,
2.214,-4.97,5.23,-1.17,1.59,-2.02,2.64,
2.214,-4.19,5.04,-2.07,1.59,-2.02,2.64,
2.216,-4.19,5.04,-2.07,1.55,-1.97,2.66,
2.22,-3.46,4.80,-2.84,1.55,-1.97,2.66,
2.22,-3.46,4.80,-2.84,1.50,-1.90,2.67,
2.222,-3.46,4.80,-2.84,1.46,-1.83,2.67,
2.224,-2.80,4.55,-3.48,1.46,-1.83,2.67,
2.248,-2.80,4.55,-3.48,1.40,-1.74,2.66,
2.248,-2.80,4.55,-3.48,1.35,-1.65,2.65,
2.249,-2.80,4.55,-3.48,1.29,-1.55,2.63,
2.249,-2.80,4.55,-3.48,1.23,-1.45,2.61,
2.249,-2.30,4.30,-3.98,1.23,-1.45,2.61,
2.249,-1.89,4.10,-4.31,1.23,-1.45,2.61,
2.249,-1.89,4.10,-4.31,1.17,-1.34,2.59,
2.249,-1.89,4.10,-4.31,1.11,-1.24,2.57,
2.25,-1.57,3.94,-4.42,1.11,-1.24,2.57,
2.25,-1.57,3.94,-4.42,1.06,-1.15,2.54,
2.25,-1.57,3.94,-4.42,1.00,-1.05,2.51,
2.25,-1.39,3.86,-4.38,1.00,-1.05,2.51,
2.25,-1.39,3.86,-4.38,0.95,-0.96,2.49,
2.25,-1.39,3.86,-4.38,0.90,-0.87,2.47,
2.251,-1.26,3.78,-4.21,0.90,-0.87,2.47,
2.251,-1.26,3.78,-4.21,0.86,-0.79,2.44,
2.252,-1.26,3.78,-4.21,0.82,-0.71,2.42,
2.255,-1.26,3.78,-4.21,0.79,-0.64,2.40,
2.255,-1.14,3.69,-3.96,0.79,-0.64,2.40,
2.258,-1.14,3.69,-3.96,0.76,-0.57,2.39,
2.259,-1.01,3.63,-3.61,0.76,-0.57,2.39,
2.259,-1.01,3.63,-3.61,0.73,-0.50,2.37,
2.261,-1.01,3.63,-3.61,0.71,-0.44,2.36,
2.264,-1.01,3.63,-3.61,0.70,-0.39,2.35,
2.264,-0.87,3.52,-3.26,0.70,-0.39,2.35,
2.266,-0.87,3.52,-3.26,0.69,-0.34,2.33,
2.269,-0.87,3.52,-3.26,0.68,-0.30,2.32,
2.269,-0.72,3.43,-2.84,0.68,-0.30,2.32,
2.273,-0.72,3.43,-2.84,0.68,-0.27,2.31,
2.279,-0.72,3.43,-2.84,0.67,-0.24,2.30,
2.279,-0.72,3.43,-2.84,0.67,-0.21,2.29,
2.28,-0.72,3.43,-2.84,0.68,-0.20,2.28,
2.28,-0.55,3.33,-2.46,0.68,-0.20,2.28,
2.28,-0.33,3.25,-2.05,0.68,-0.20,2.28,
2.281,-0.33,3.25,-2.05,0.68,-0.18,2.27,
2.284,-0.33,3.25,-2.05,0.69,-0.16,2.25,
2.284,-0.08,3.20,-1.70,0.69,-0.16,2.25,
2.291,-0.08,3.20,-1.70,0.71,-0.15,2.24,
2.291,-0.08,3.20,-1.70,0.72,-0.14,2.23,
2.291,0.18,3.18,-1.38,0.72,-0.14,2.23,
2.291,0.18,3.18,-1.38,0.74,-0.13,2.22,
2.293,0.18,3.18,-1.38,0.76,-0.11,2.21,
2.294,0.49,3.15,-1.10,0.76,-0.11,2.21,
2.297,0.49,3.15,-1.10,0.78,-0.10,2.20,
2.298,0.49,3.15,-1.10,0.81,-0.08,2.18,
2.299,0.83,3.11,-0.83,0.81,-0.08,2.18,
2.301,0.83,3.11,-0.83,0.84,-0.06,2.16,
2.306,0.83,3.11,-0.83,0.87,-0.03,2.14,
2.306,1.17,3.06,-0.59,0.87,-0.03,2.14,
2.306,1.17,3.06,-0.59,0.91,-0.00,2.12,
2.309,1.43,2.99,-0.34,0.91,-0.00,2.12,
2.311,1.43,2.99,-0.34,0.95,0.03,2.09,
2.311,1.43,2.99,-0.34,1.00,0.07,2.06,
2.314,1.43,2.99,-0.34,1.05,0.11,2.03,
2.314,1.62,2.92,-0.15,1.05,0.11,2.03,
2.317,1.62,2.92,-0.15,1.10,0.16,2.00,
2.319,1.62,2.92,-0.15,1.16,0.21,1.96,
2.319,1.73,2.81,0.05,1.16,0.21,1.96,
2.321,1.73,2.81,0.05,1.22,0.26,1.93,
2.323,1.73,2.81,0.05,1.28,0.33,1.88,
2.324,1.78,2.75,0.21,1.28,0.33,1.88,
2.326,1.78,2.75,0.21,1.35,0.40,1.84,
2.328,1.78,2.75,0.21,1.42,0.47,1.80,
2.329,1.72,2.69,0.41,1.42,0.47,1.80,
2.332,1.72,2.69,0.41,1.50,0.54,1.76,
2.333,1.53,2.66,0.61,1.50,0.54,1.76,
2.334,1.53,2.66,0.61,1.57,0.62,1.73,
2.336,1.53,2.66,0.61,1.65,0.70,1.69,
2.338,1.23,2.63,0.86,1.65,0.70,1.69,
2.338,1.23,2.63,0.86,1.73,0.78,1.65,
2.341,1.23,2.63,0.86,1.81,0.86,1.63,
2.343,0.80,2.61,1.10,1.81,0.86,1.63,
2.343,0.80,2.61,1.10,1.90,0.94,1.60,
2.345,0.80,2.61,1.10,1.98,1.01,1.58,
2.348,0.80,2.61,1.10,2.07,1.09,1.57,
2.348,0.26,2.57,1.32,2.07,1.09,1.57,
2.351,0.26,2.57,1.32,2.16,1.16,1.56,
2.354,-0.27,2.52,1.49,2.16,1.16,1.56,
2.354,-0.27,2.52,1.49,2.24,1.23,1.56,
2.356,-0.27,2.52,1.49,2.33,1.30,1.57,
2.358,-0.27,2.52,1.49,2.41,1.36,1.58,
2.358,-0.76,2.45,1.65,2.41,1.36,1.58,
2.361,-0.76,2.45,1.65,2.49,1.42,1.60,
2.363,-0.76,2.45,1.65,2.56,1.48,1.63,
2.363,-1.29,2.33,1.77,2.56,1.48,1.63,
2.365,-1.29,2.33,1.77,2.64,1.53,1.66,
2.368,-1.29,2.33,1.77,2.71,1.58,1.69,
2.368,-1.81,2.19,1.88,2.71,1.58,1.69,
2.372,-1.81,2.19,1.88,2.77,1.62,1.73,
2.375,-1.81,2.19,1.88,2.83,1.65,1.77,
2.376,-1.81,2.19,1.88,2.88,1.68,1.82,
2.376,-2.30,2.01,1.94,2.88,1.68,1.82,
2.378,-2.76,1.80,1.98,2.88,1.68,1.82,
2.378,-2.76,1.80,1.98,2.93,1.71,1.87,
2.38,-2.76,1.80,1.98,2.98,1.72,1.92,
2.383,-2.76,1.80,1.98,3.01,1.73,1.97,
2.383,-3.17,1.57,2.00,3.01,1.73,1.97,
2.386,-3.17,1.57,2.00,3.04,1.74,2.03,
2.389,-3.52,1.30,1.99,3.04,1.74,2.03,
2.391,-3.52,1.30,1.99,3.06,1.73,2.08,
2.411,-3.52,1.30,1.99,3.08,1.72,2.15,
2.412,-3.52,1.30,1.99,3.09,1.71,2.21,
2.412,-3.81,1.01,1.94,3.09,1.71,2.21,
2.412,-3.81,1.01,1.94,3.09,1.69,2.27,
2.412,-3.81,1.01,1.94,3.09,1.67,2.33,
2.413,-3.81,1.01,1.94,3.08,1.65,2.39,
2.413,-4.00,0.72,1.86,3.08,1.65,2.39,
2.413,-4.10,0.43,1.75,3.08,1.65,2.39,
2.413,-4.10,0.43,1.75,3.07,1.62,2.46,
2.413,-4.10,0.43,1.75,3.05,1.60,2.52,
2.414,-4.10,0.43,1.75,3.02,1.56,2.58,
2.414,-4.15,0.16,1.65,3.02,1.56,2.58,
2.414,-4.15,0.16,1.65,2.99,1.53,2.64,
2.414,-4.16,-0.12,1.56,2.99,1.53,2.64,
2.415,-4.16,-0.12,1.56,2.95,1.49,2.69,
2.431,-4.16,-0.12,1.56,2.91,1.46,2.75,
2.431,-4.16,-0.44,1.40,2.91,1.46,2.75,
2.432,-4.16,-0.44,1.40,2.85,1.42,2.80,
2.432,-4.16,-0.44,1.40,2.79,1.38,2.86,
2.432,-4.16,-0.44,1.40,2.72,1.33,2.91,
2.432,-4.16,-0.77,1.22,2.72,1.33,2.91,
2.433,-4.16,-0.77,1.22,2.65,1.29,2.95,
2.433,-4.16,-1.14,1.05,2.65,1.29,2.95,
2.433,-4.16,-1.14,1.05,2.57,1.24,3.00,
2.433,-4.16,-1.14,1.05,2.48,1.20,3.05,
2.434,-4.19,-1.54,0.92,2.48,1.20,3.05,
2.434,-4.19,-1.54,0.92,2.40,1.15,3.09,
2.436,-4.19,-1.54,0.92,2.30,1.09,3.13,
2.44,-4.23,-1.94,0.84,2.30,1.09,3.13,
2.441,-4.23,-1.94,0.84,2.21,1.04,3.17,
2.441,-4.23,-1.94,0.84,2.12,0.99,3.21,
2.443,-4.26,-2.34,0.81,2.12,0.99,3.21,
2.443,-4.26,-2.34,0.81,2.02,0.93,3.25,
2.445,-4.26,-2.34,0.81,1.93,0.87,3.29,
2.447,-4.26,-2.34,0.81,1.84,0.81,3.32,
2.447,-4.24,-2.73,0.86,1.84,0.81,3.32,
2.45,-4.24,-2.73,0.86,1.75,0.75,3.36,
2.452,-4.23,-3.09,0.92,1.75,0.75,3.36,
2.452,-4.23,-3.09,0.92,1.66,0.69,3.39,
2.456,-4.23,-3.09,0.92,1.57,0.63,3.43,
2.457,-4.23,-3.09,0.92,1.48,0.57,3.46,
2.457,-4.22,-3.48,1.01,1.48,0.57,3.46,
2.46,-4.22,-3.48,1.01,1.40,0.52,3.49,
2.463,-4.24,-3.95,1.05,1.40,0.52,3.49,
2.463,-4.24,-3.95,1.05,1.32,0.47,3.52,
2.465,-4.24,-3.95,1.05,1.24,0.42,3.55,
2.468,-4.26,-4.46,1.10,1.24,0.42,3.55,
2.468,-4.26,-4.46,1.10,1.16,0.38,3.58,
2.469,-4.26,-4.46,1.10,1.08,0.34,3.60,
2.472,-4.37,-5.07,1.15,1.08,0.34,3.60,
2.475,-4.37,-5.07,1.15,1.01,0.30,3.63,
2.475,-4.37,-5.07,1.15,0.94,0.27,3.65,
2.477,-4.37,-5.07,1.15,0.87,0.24,3.67,
2.477,-4.51,-5.73,1.17,0.87,0.24,3.67,
2.48,-4.51,-5.73,1.17,0.80,0.21,3.69,
2.483,-4.68,-6.47,1.24,0.80,0.21,3.69,
2.483,-4.68,-6.47,1.24,0.74,0.18,3.70,
2.485,-4.68,-6.47,1.24,0.68,0.15,3.71,
2.492,-4.85,-7.23,1.35,0.68,0.15,3.71,
2.492,-4.85,-7.23,1.35,0.62,0.12,3.72,
2.492,-4.85,-7.23,1.35,0.58,0.09,3.72,
2.493,-5.02,-8.01,1.49,0.58,0.09,3.72,
2.493,-5.02,-8.01,1.49,0.54,0.06,3.72,
2.494,-5.02,-8.01,1.49,0.50,0.03,3.71,
2.497,-5.02,-8.01,1.49,0.48,-0.01,3.69,
2.497,-5.17,-8.71,1.64,0.48,-0.01,3.69,
2.499,-5.17,-8.71,1.64,0.46,-0.05,3.67,
2.502,-5.17,-8.71,1.64,0.45,-0.09,3.65,
2.502,-5.26,-9.34,1.80,0.45,-0.09,3.65,
2.505,-5.26,-9.34,1.80,0.45,-0.13,3.62,
2.509,-5.31,-9.87,1.96,0.45,-0.13,3.62,
2.509,-5.31,-9.87,1.96,0.45,-0.17,3.59,
2.51,-5.31,-9.87,1.96,0.46,-0.21,3.55,
2.512,-5.31,-9.87,1.96,0.48,-0.25,3.50,
2.512,-5.27,-10.32,2.07,0.48,-0.25,3.50,
2.514,-5.27,-10.32,2.07,0.50,-0.29,3.46,
2.516,-5.27,-10.32,2.07,0.53,-0.33,3.41,
2.517,-5.14,-10.67,2.12,0.53,-0.33,3.41,
2.519,-5.14,-10.67,2.12,0.56,-0.37,3.36,
2.523,-4.88,-10.89,2.11,0.56,-0.37,3.36,
2.524,-4.88,-10.89,2.11,0.60,-0.40,3.31,
2.524,-4.88,-10.89,2.11,0.63,-0.43,3.25,
2.527,-4.54,-10.98,1.99,0.63,-0.43,3.25,
2.527,-4.54,-10.98,1.99,0.67,-0.45,3.20,
2.529,-4.54,-10.98,1.99,0.70,-0.47,3.14,
2.532,-4.54,-10.98,1.99,0.73,-0.48,3.09,
2.533,-4.15,-10.95,1.86,0.73,-0.48,3.09,
2.534,-4.15,-10.95,1.86,0.77,-0.48,3.03,
2.537,-4.15,-10.95,1.86,0.80,-0.47,2.98,
2.538,-3.76,-10.78,1.65,0.80,-0.47,2.98,
2.54,-3.76,-10.78,1.65,0.82,-0.46,2.93,
2.542,-3.43,-10.62,1.41,0.82,-0.46,2.93,
2.542,-3.43,-10.62,1.41,0.84,-0.44,2.89,
2.544,-3.43,-10.62,1.41,0.86,-0.41,2.85,
2.546,-3.43,-10.62,1.41,0.87,-0.38,2.81,
2.547,-3.18,-10.55,1.17,0.87,-0.38,2.81,
2.549,-3.18,-10.55,1.17,0.88,-0.36,2.77,
2.551,-3.08,-10.63,0.95,0.88,-0.36,2.77,
2.552,-3.08,-10.63,0.95,0.89,-0.33,2.73,
2.554,-3.08,-10.63,0.95,0.88,-0.30,2.70,
2.583,-3.08,-10.63,0.95,0.87,-0.26,2.67,
2.583,-3.05,-10.84,0.72,0.87,-0.26,2.67,
2.583,-3.05,-10.84,0.72,0.85,-0.24,2.64,
2.583,-3.05,-10.84,0.72,0.84,-0.22,2.60,
2.584,-3.02,-11.15,0.57,0.84,-0.22,2.60,
2.584,-3.02,-11.15,0.57,0.82,-0.21,2.57,
2.584,-2.99,-11.47,0.52,0.82,-0.21,2.57,
2.584,-2.99,-11.47,0.52,0.80,-0.20,2.53,
2.585,-2.99,-11.47,0.52,0.78,-0.19,2.49,
2.585,-2.83,-11.77,0.47,0.78,-0.19,2.49,
2.585,-2.83,-11.77,0.47,0.76,-0.19,2.45,
2.585,-2.83,-11.77,0.47,0.74,-0.19,2.40,
2.586,-2.83,-11.77,0.47,0.72,-0.20,2.35,
2.586,-2.51,-11.97,0.51,0.72,-0.20,2.35,
2.586,-2.51,-11.97,0.51,0.71,-0.21,2.29,
2.586,-2.51,-11.97,0.51,0.71,-0.22,2.23,
2.586,-2.06,-12.06,0.56,0.71,-0.22,2.23,
2.587,-2.06,-12.06,0.56,0.71,-0.23,2.16,
2.587,-2.06,-12.06,0.56,0.71,-0.24,2.08,
2.587,-1.53,-12.00,0.61,0.71,-0.24,2.08,
2.593,-1.53,-12.00,0.61,0.72,-0.25,2.00,
2.594,-1.53,-12.00,0.61,0.73,-0.25,1.92,
2.595,-0.94,-11.80,0.59,0.73,-0.25,1.92,
2.595,-0.94,-11.80,0.59,0.74,-0.26,1.83,
2.598,-0.94,-11.80,0.59,0.75,-0.26,1.75,
2.599,-0.36,-11.50,0.53,0.75,-0.26,1.75,
2.599,-0.36,-11.50,0.53,0.76,-0.26,1.66,
2.602,0.22,-11.15,0.42,0.76,-0.26,1.66,
2.602,0.22,-11.15,0.42,0.77,-0.25,1.58,
2.617,0.22,-11.15,0.42,0.77,-0.25,1.49,
2.617,0.74,-10.75,0.27,0.77,-0.25,1.49,
2.618,0.74,-10.75,0.27,0.77,-0.25,1.41,
2.618,0.74,-10.75,0.27,0.76,-0.24,1.33,
2.618,1.24,-10.33,0.13,0.76,-0.24,1.33,
2.618,1.24,-10.33,0.13,0.75,-0.24,1.26,
2.618,1.24,-10.33,0.13,0.74,-0.24,1.19,
2.619,1.69,-9.87,-0.01,0.74,-0.24,1.19,
2.619,1.69,-9.87,-0.01,0.71,-0.25,1.12,
2.619,1.69,-9.87,-0.01,0.69,-0.25,1.05,
2.621,2.17,-9.42,-0.11,0.69,-0.25,1.05,
2.622,2.17,-9.42,-0.11,0.66,-0.25,0.99,
2.624,2.17,-9.42,-0.11,0.63,-0.25,0.93,
2.626,2.17,-9.42,-0.11,0.60,-0.26,0.87,
2.626,2.61,-8.96,-0.16,0.60,-0.26,0.87,
2.628,2.61,-8.96,-0.16,0.56,-0.27,0.82,
2.631,2.61,-8.96,-0.16,0.53,-0.29,0.77,
2.632,3.07,-8.58,-0.18,0.53,-0.29,0.77,
2.633,3.07,-8.58,-0.18,0.49,-0.31,0.72,
2.636,3.07,-8.58,-0.18,0.45,-0.33,0.67,
2.636,3.49,-8.21,-0.21,0.45,-0.33,0.67,
2.638,3.49,-8.21,-0.21,0.42,-0.35,0.63,
2.641,3.92,-7.88,-0.20,0.42,-0.35,0.63,
2.641,3.92,-7.88,-0.20,0.38,-0.38,0.58,
2.643,3.92,-7.88,-0.20,0.34,-0.41,0.54,
2.646,3.92,-7.88,-0.20,0.31,-0.44,0.49,
2.646,4.32,-7.56,-0.21,0.31,-0.44,0.49,
2.648,4.32,-7.56,-0.21,0.27,-0.47,0.45,
2.65,4.32,-7.56,-0.21,0.24,-0.51,0.40,
2.651,4.72,-7.32,-0.20,0.24,-0.51,0.40,
2.653,4.72,-7.32,-0.20,0.21,-0.55,0.36,
2.656,5.10,-7.10,-0.21,0.21,-0.55,0.36,
2.656,5.10,-7.10,-0.21,0.18,-0.59,0.31,
2.659,5.10,-7.10,-0.21,0.15,-0.63,0.27,
2.661,5.46,-6.92,-0.25,0.15,-0.63,0.27,
2.661,5.46,-6.92,-0.25,0.12,-0.68,0.22,
2.663,5.46,-6.92,-0.25,0.10,-0.72,0.18,
2.666,5.80,-6.75,-0.32,0.10,-0.72,0.18,
2.666,5.80,-6.75,-0.32,0.08,-0.77,0.13,
2.668,5.80,-6.75,-0.32,0.06,-0.82,0.08,
2.675,6.13,-6.62,-0.41,0.06,-0.82,0.08,
2.676,6.13,-6.62,-0.41,0.04,-0.86,0.03,
2.676,6.13,-6.62,-0.41,0.03,-0.91,-0.01,
2.677,6.13,-6.62,-0.41,0.02,-0.95,-0.07,
2.677,6.45,-6.51,-0.54,0.02,-0.95,-0.07,
2.678,6.45,-6.51,-0.54,0.01,-0.99,-0.12,
2.681,6.45,-6.51,-0.54,0.01,-1.03,-0.17,
2.681,6.75,-6.42,-0.68,0.01,-1.03,-0.17,
2.683,6.75,-6.42,-0.68,0.00,-1.06,-0.23,
2.687,6.75,-6.42,-0.68,0.00,-1.09,-0.28,
2.687,7.00,-6.32,-0.85,0.00,-1.09,-0.28,
2.707,7.00,-6.32,-0.85,0.00,-1.11,-0.34,
2.708,7.00,-6.32,-0.85,0.01,-1.13,-0.39,
2.708,7.24,-6.20,-1.07,0.01,-1.13,-0.39,
2.709,7.24,-6.20,-1.07,0.01,-1.14,-0.45,
2.709,7.24,-6.20,-1.07,0.01,-1.14,-0.50,
2.709,7.46,-6.10,-1.32,0.01,-1.14,-0.50,
2.71,7.46,-6.10,-1.32,0.01,-1.14,-0.56,
2.71,7.46,-6.10,-1.32,0.01,-1.13,-0.62,
2.71,7.65,-6.01,-1.58,0.01,-1.13,-0.62,
2.71,7.65,-6.01,-1.58,0.01,-1.12,-0.67,
2.711,7.65,-6.01,-1.58,0.01,-1.10,-0.73,
2.711,7.84,-5.91,-1.82,0.01,-1.10,-0.73,
2.712,7.84,-5.91,-1.82,0.01,-1.08,-0.79,
2.712,7.84,-5.91,-1.82,0.00,-1.05,-0.85,
2.712,8.00,-5.81,-2.07,0.00,-1.05,-0.85,
2.713,8.00,-5.81,-2.07,-0.01,-1.01,-0.91,
2.716,8.13,-5.67,-2.31,-0.01,-1.01,-0.91,
2.716,8.13,-5.67,-2.31,-0.01,-0.98,-0.96,
2.719,8.13,-5.67,-2.31,-0.03,-0.93,-1.02,
2.721,8.13,-5.67,-2.31,-0.04,-0.89,-1.08,
2.736,8.21,-5.54,-2.50,-0.04,-0.89,-1.08,
2.736,8.21,-5.54,-2.50,-0.06,-0.84,-1.14,
2.736,8.21,-5.54,-2.50,-0.07,-0.79,-1.20,
2.736,8.25,-5.41,-2.67,-0.07,-0.79,-1.20,
2.737,8.25,-5.41,-2.67,-0.09,-0.73,-1.26,
2.737,8.25,-5.41,-2.67,-0.11,-0.68,-1.32,
2.737,8.28,-5.31,-2.77,-0.11,-0.68,-1.32,
2.737,8.28,-5.31,-2.77,-0.14,-0.63,-1.37,
2.737,8.28,-5.31,-2.77,-0.16,-0.58,-1.43,
2.738,8.26,-5.21,-2.80,-0.16,-0.58,-1.43,
2.74,8.26,-5.21,-2.80,-0.18,-0.53,-1.49,
2.741,8.26,-5.21,-2.80,-0.20,-0.47,-1.55,
2.741,8.21,-5.14,-2.82,-0.20,-0.47,-1.55,
2.744,8.21,-5.14,-2.82,-0.23,-0.42,-1.60,
2.745,8.21,-5.14,-2.82,-0.25,-0.37,-1.66,
2.745,8.09,-5.08,-2.77,-0.25,-0.37,-1.66,
2.747,8.09,-5.08,-2.77,-0.27,-0.32,-1.72,
2.75,8.09,-5.08,-2.77,-0.29,-0.27,-1.78,
2.75,7.95,-5.01,-2.65,-0.29,-0.27,-1.78,
2.752,7.95,-5.01,-2.65,-0.30,-0.23,-1.84,
2.756,7.79,-4.98,-2.48,-0.30,-0.23,-1.84,
2.756,7.79,-4.98,-2.48,-0.32,-0.18,-1.90,
2.758,7.79,-4.98,-2.48,-0.33,-0.14,-1.96,
2.76,7.79,-4.98,-2.48,-0.34,-0.09,-2.02,
2.76,7.57,-4.92,-2.31,-0.34,-0.09,-2.02,
2.762,7.57,-4.92,-2.31,-0.35,-0.05,-2.07,
2.765,7.57,-4.92,-2.31,-0.35,-0.01,-2.13,
2.765,7.31,-4.82,-2.14,-0.35,-0.01,-2.13,
2.767,7.31,-4.82,-2.14,-0.36,0.04,-2.18,
2.77,7.31,-4.82,-2.14,-0.36,0.08,-2.23,
2.77,7.02,-4.74,-1.97,-0.36,0.08,-2.23,
2.776,7.02,-4.74,-1.97,-0.36,0.12,-2.28,
2.778,7.02,-4.74,-1.97,-0.36,0.16,-2.33,
2.778,6.77,-4.66,-1.80,-0.36,0.16,-2.33,
2.778,6.77,-4.66,-1.80,-0.35,0.20,-2.37,
2.78,6.77,-4.66,-1.80,-0.35,0.25,-2.42,
2.78,6.47,-4.59,-1.64,-0.35,0.25,-2.42,
2.784,6.47,-4.59,-1.64,-0.34,0.29,-2.46,
2.785,6.16,-4.53,-1.53,-0.34,0.29,-2.46,
2.785,6.16,-4.53,-1.53,-0.34,0.33,-2.51,
2.788,6.16,-4.53,-1.53,-0.33,0.37,-2.55,
2.797,6.16,-4.53,-1.53,-0.32,0.41,-2.59,
2.798,5.77,-4.51,-1.42,-0.32,0.41,-2.59,
2.798,5.77,-4.51,-1.42,-0.32,0.45,-2.63,
2.798,5.77,-4.51,-1.42,-0.32,0.48,-2.67,
2.799,5.44,-4.54,-1.32,-0.32,0.48,-2.67,
2.799,5.44,-4.54,-1.32,-0.31,0.51,-2.71,
2.799,5.44,-4.54,-1.32,-0.31,0.54,-2.74,
2.8,5.16,-4.55,-1.26,-0.31,0.54,-2.74,
2.802,5.16,-4.55,-1.26,-0.32,0.58,-2.78,
2.805,4.87,-4.53,-1.19,-0.32,0.58,-2.78,
2.806,4.87,-4.53,-1.19,-0.32,0.61,-2.81,
2.808,4.87,-4.53,-1.19,-0.33,0.64,-2.84,
2.811,4.87,-4.53,-1.19,-0.33,0.67,-2.88,
2.812,4.51,-4.50,-1.14,-0.33,0.67,-2.88,
2.812,4.51,-4.50,-1.14,-0.34,0.70,-2.90,
2.814,4.51,-4.50,-1.14,-0.36,0.72,-2.93,
2.815,4.16,-4.50,-1.04,-0.36,0.72,-2.93,
2.817,4.16,-4.50,-1.04,-0.36,0.75,-2.96,
2.819,4.16,-4.50,-1.04,-0.38,0.77,-2.98,
2.819,3.85,-4.45,-0.96,-0.38,0.77,-2.98,
2.823,3.85,-4.45,-0.96,-0.39,0.80,-3.00,
2.825,3.85,-4.45,-0.96,-0.41,0.82,-3.02,
2.825,3.61,-4.42,-0.88,-0.41,0.82,-3.02,
2.827,3.61,-4.42,-0.88,-0.43,0.85,-3.05,
2.829,3.61,-4.42,-0.88,-0.45,0.88,-3.06,
2.83,3.33,-4.34,-0.84,-0.45,0.88,-3.06,
2.832,3.33,-4.34,-0.84,-0.47,0.91,-3.08,
2.834,3.33,-4.34,-0.84,-0.49,0.95,-3.10,
2.834,3.01,-4.26,-0.77,-0.49,0.95,-3.10,
2.837,3.01,-4.26,-0.77,-0.52,0.98,-3.11,
2.842,3.01,-4.26,-0.77,-0.54,1.02,-3.12,
2.842,2.68,-4.13,-0.69,-0.54,1.02,-3.12,
2.843,2.68,-4.13,-0.69,-0.56,1.06,-3.13,
2.844,2.68,-4.13,-0.69,-0.59,1.10,-3.13,
2.845,2.38,-4.04,-0.59,-0.59,1.10,-3.13,
2.847,2.38,-4.04,-0.59,-0.61,1.13,-3.14,
2.849,2.38,-4.04,-0.59,-0.63,1.17,-3.15,
2.849,2.08,-3.99,-0.48,-0.63,1.17,-3.15,
2.852,2.08,-3.99,-0.48,-0.65,1.20,-3.15,
2.854,2.08,-3.99,-0.48,-0.67,1.23,-3.16,
2.855,1.80,-3.99,-0.40,-0.67,1.23,-3.16,
2.857,1.80,-3.99,-0.40,-0.70,1.26,-3.17,
2.859,1.80,-3.99,-0.40,-0.72,1.29,-3.18,
2.86,1.54,-4.02,-0.29,-0.72,1.29,-3.18,
2.862,1.54,-4.02,-0.29,-0.75,1.31,-3.18,
2.864,1.54,-4.02,-0.29,-0.77,1.33,-3.19,
2.864,1.28,-4.06,-0.23,-0.77,1.33,-3.19,
2.867,1.28,-4.06,-0.23,-0.80,1.35,-3.20,
2.869,1.28,-4.06,-0.23,-0.83,1.36,-3.21,
2.869,1.00,-4.11,-0.11,-0.83,1.36,-3.21,
2.877,1.00,-4.11,-0.11,-0.85,1.36,-3.23,
2.879,0.71,-4.12,0.02,-0.85,1.36,-3.23,
2.88,0.71,-4.12,0.02,-0.88,1.36,-3.24,
2.88,0.71,-4.12,0.02,-0.90,1.36,-3.26,
2.908,0.71,-4.12,0.02,-0.93,1.35,-3.27,
2.909,0.45,-4.15,0.13,-0.93,1.35,-3.27,
2.909,0.24,-4.17,0.26,-0.93,1.35,-3.27,
2.91,0.19,-4.19,0.35,-0.93,1.35,-3.27,
2.91,0.19,-4.19,0.35,-0.95,1.33,-3.29,
2.938,0.19,-4.19,0.35,-0.98,1.31,-3.30,
2.939,0.19,-4.19,0.35,-1.01,1.28,-3.32,
2.939,0.19,-4.19,0.35,-1.04,1.25,-3.35,
2.939,0.19,-4.19,0.35,-1.07,1.21,-3.37,
2.939,0.20,-4.11,0.42,-1.07,1.21,-3.37,
2.939,0.20,-4.11,0.42,-1.10,1.18,-3.39,
2.94,0.20,-4.11,0.42,-1.13,1.14,-3.42,
2.94,0.20,-4.11,0.42,-1.17,1.10,-3.44,
2.94,0.27,-3.90,0.46,-1.17,1.10,-3.44,
2.94,0.27,-3.90,0.46,-1.22,1.07,-3.47,
2.941,0.27,-3.90,0.46,-1.27,1.03,-3.50,
2.941,0.34,-3.63,0.48,-1.27,1.03,-3.50,
2.941,0.34,-3.63,0.48,-1.32,1.00,-3.53,
2.941,0.34,-3.63,0.48,-1.37,0.97,-3.56,
2.942,0.41,-3.35,0.47,-1.37,0.97,-3.56,
2.942,0.37,-3.12,0.45,-1.37,0.97,-3.56,
2.942,0.37,-3.12,0.45,-1.43,0.95,-3.59,
2.943,0.37,-3.12,0.45,-1.49,0.93,-3.62,
2.943,0.37,-3.12,0.45,-1.55,0.92,-3.64,
2.943,0.14,-3.01,0.44,-1.55,0.92,-3.64,
2.943,0.14,-3.01,0.44,-1.62,0.91,-3.67,
2.944,0.14,-3.01,0.44,-1.69,0.90,-3.69,
2.944,-0.26,-3.19,0.42,-1.69,0.90,-3.69,
2.944,-0.26,-3.19,0.42,-1.77,0.90,-3.71,
2.944,-0.26,-3.19,0.42,-1.84,0.91,-3.73,
2.944,-0.26,-3.19,0.42,-1.93,0.91,-3.75,
2.945,-0.89,-3.59,0.41,-1.93,0.91,-3.75,
2.945,-0.89,-3.59,0.41,-2.01,0.91,-3.76,
2.945,-1.71,-4.16,0.51,-2.01,0.91,-3.76,
2.945,-1.71,-4.16,0.51,-2.11,0.91,-3.76,
2.946,-1.71,-4.16,0.51,-2.20,0.90,-3.77,
2.946,-2.58,-4.88,0.62,-2.20,0.90,-3.77,
2.946,-2.58,-4.88,0.62,-2.29,0.89,-3.77,
2.946,-2.58,-4.88,0.62,-2.39,0.88,-3.77,
2.946,-3.31,-5.61,0.85,-2.39,0.88,-3.77,
2.947,-3.31,-5.61,0.85,-2.48,0.86,-3.76,
2.947,-3.31,-5.61,0.85,-2.58,0.83,-3.76,
2.948,-3.97,-6.21,1.26,-2.58,0.83,-3.76,
2.949,-3.97,-6.21,1.26,-2.67,0.79,-3.76,
2.951,-3.97,-6.21,1.26,-2.76,0.75,-3.76,
2.953,-4.56,-6.62,1.84,-2.76,0.75,-3.76,
2.953,-4.56,-6.62,1.84,-2.84,0.70,-3.76,
2.958,-4.56,-6.62,1.84,-2.91,0.65,-3.76,
2.96,-4.56,-6.62,1.84,-2.98,0.58,-3.77,
2.96,-5.06,-6.82,2.57,-2.98,0.58,-3.77,
2.96,-5.06,-6.82,2.57,-3.04,0.51,-3.79,
2.966,-5.40,-6.92,3.37,-3.04,0.51,-3.79,
2.966,-5.40,-6.92,3.37,-3.09,0.42,-3.80,
2.966,-5.40,-6.92,3.37,-3.13,0.33,-3.81,
2.97,-5.40,-6.92,3.37,-3.16,0.24,-3.83,
2.971,-5.68,-6.96,4.18,-3.16,0.24,-3.83,
2.971,-5.68,-6.96,4.18,-3.18,0.14,-3.85,
2.973,-5.68,-6.96,4.18,-3.19,0.04,-3.88,
2.974,-5.92,-7.01,4.97,-3.19,0.04,-3.88,
2.977,-5.92,-7.01,4.97,-3.20,-0.06,-3.90,
2.979,-5.92,-7.01,4.97,-3.19,-0.17,-3.92,
2.979,-6.21,-7.12,5.75,-3.19,-0.17,-3.92,
2.98,-6.21,-7.12,5.75,-3.18,-0.27,-3.95,
2.984,-6.51,-7.27,6.48,-3.18,-0.27,-3.95,
2.984,-6.51,-7.27,6.48,-3.15,-0.38,-3.97,
2.985,-6.51,-7.27,6.48,-3.12,-0.49,-4.00,
2.988,-6.51,-7.27,6.48,-3.07,-0.59,-4.03,
2.989,-6.70,-7.35,7.21,-3.07,-0.59,-4.03,
2.992,-6.70,-7.35,7.21,-3.02,-0.69,-4.06,
2.993,-6.88,-7.32,7.90,-3.02,-0.69,-4.06,
2.993,-6.88,-7.32,7.90,-2.96,-0.79,-4.09,
2.995,-6.88,-7.32,7.90,-2.88,-0.89,-4.13,
2.998,-7.05,-7.21,8.48,-2.88,-0.89,-4.13,
2.998,-7.05,-7.21,8.48,-2.79,-0.99,-4.17,
3.0,-7.05,-7.21,8.48,-2.70,-1.08,-4.21,
3.003,-7.29,-7.05,8.86,-2.70,-1.08,-4.21,
3.003,-7.29,-7.05,8.86,-2.60,-1.17,-4.25,
3.006,-7.29,-7.05,8.86,-2.49,-1.26,-4.28,
3.008,-7.29,-7.05,8.86,-2.37,-1.32,-4.32,
3.008,-7.65,-7.03,9.03,-2.37,-1.32,-4.32,
3.01,-7.65,-7.03,9.03,-2.25,-1.38,-4.36,
3.012,-7.65,-7.03,9.03,-2.13,-1.42,-4.38,
3.013,-8.27,-7.23,9.00,-2.13,-1.42,-4.38,
3.015,-8.27,-7.23,9.00,-2.01,-1.45,-4.41,
3.018,-8.27,-7.23,9.00,-1.88,-1.47,-4.43,
3.018,-9.18,-7.75,8.83,-1.88,-1.47,-4.43,
3.02,-9.18,-7.75,8.83,-1.76,-1.48,-4.45,
3.024,-9.18,-7.75,8.83,-1.63,-1.47,-4.47,
3.026,-10.19,-8.46,8.60,-1.63,-1.47,-4.47,
3.026,-10.19,-8.46,8.60,-1.50,-1.47,-4.49,
3.028,-10.19,-8.46,8.60,-1.36,-1.46,-4.51,
3.028,-11.12,-9.21,8.38,-1.36,-1.46,-4.51,
3.03,-11.12,-9.21,8.38,-1.22,-1.44,-4.54,
3.033,-11.12,-9.21,8.38,-1.07,-1.42,-4.59,
3.034,-11.74,-9.66,8.20,-1.07,-1.42,-4.59,
3.035,-11.74,-9.66,8.20,-0.92,-1.38,-4.63,
3.038,-11.74,-9.66,8.20,-0.75,-1.34,-4.69,
3.04,-12.07,-9.71,8.06,-0.75,-1.34,-4.69,
3.041,-12.07,-9.71,8.06,-0.57,-1.28,-4.76,
3.043,-12.07,-9.71,8.06,-0.39,-1.21,-4.84,
3.043,-12.17,-9.39,7.97,-0.39,-1.21,-4.84,
3.045,-12.17,-9.39,7.97,-0.18,-1.13,-4.93,
3.047,-12.19,-8.86,7.87,-0.18,-1.13,-4.93,
3.048,-12.19,-8.86,7.87,0.02,-1.04,-5.02,
3.05,-12.19,-8.86,7.87,0.24,-0.95,-5.12,
3.085,-12.19,-8.86,7.87,0.48,-0.85,-5.22,
3.085,-12.20,-8.10,7.81,0.48,-0.85,-5.22,
3.086,-12.29,-7.20,7.68,0.48,-0.85,-5.22,
3.086,-12.29,-7.20,7.68,0.72,-0.74,-5.32,
3.087,-12.29,-7.20,7.68,0.96,-0.63,-5.41,
3.087,-12.29,-7.20,7.68,1.21,-0.52,-5.50,
3.088,-12.46,-6.17,7.50,1.21,-0.52,-5.50,
3.089,-12.46,-6.17,7.50,1.47,-0.40,-5.58,
3.089,-12.46,-6.17,7.50,1.73,-0.29,-5.64,
3.09,-12.46,-6.17,7.50,1.99,-0.17,-5.69,
3.09,-12.68,-5.00,7.30,1.99,-0.17,-5.69,
3.091,-12.68,-5.00,7.30,2.25,-0.06,-5.72,
3.092,-13.00,-3.69,7.06,2.25,-0.06,-5.72,
3.092,-13.00,-3.69,7.06,2.50,0.05,-5.73,
3.093,-13.00,-3.69,7.06,2.76,0.16,-5.72,
3.093,-13.00,-3.69,7.06,3.03,0.27,-5.68,
3.094,-13.43,-2.36,6.70,3.03,0.27,-5.68,
3.094,-13.43,-2.36,6.70,3.29,0.37,-5.62,
3.095,-13.43,-2.36,6.70,3.55,0.46,-5.53,
3.096,-13.91,-1.09,6.36,3.55,0.46,-5.53,
3.096,-13.91,-1.09,6.36,3.82,0.54,-5.42,
3.097,-13.91,-1.09,6.36,4.08,0.61,-5.28,
3.097,-14.49,0.05,5.94,4.08,0.61,-5.28,
3.098,-14.49,0.05,5.94,4.34,0.66,-5.12,
3.098,-14.49,0.05,5.94,4.60,0.70,-4.94,
3.099,-15.05,0.95,5.38,4.60,0.70,-4.94,
3.1,-15.05,0.95,5.38,4.85,0.73,-4.73,
3.1,-15.05,0.95,5.38,5.10,0.74,-4.51,
3.101,-15.52,1.60,4.64,5.10,0.74,-4.51,
3.101,-15.52,1.60,4.64,5.33,0.74,-4.27,
3.104,-15.52,1.60,4.64,5.55,0.72,-4.03,
3.104,-15.87,2.05,3.67,5.55,0.72,-4.03,
3.106,-15.87,2.05,3.67,5.76,0.69,-3.77,
3.107,-15.87,2.05,3.67,5.95,0.65,-3.51,
3.107,-15.98,2.30,2.43,5.95,0.65,-3.51,
3.109,-15.98,2.30,2.43,6.11,0.60,-3.25,
3.112,-15.98,2.30,2.43,6.25,0.53,-2.98,
3.112,-15.72,2.40,0.92,6.25,0.53,-2.98,
3.114,-15.72,2.40,0.92,6.35,0.46,-2.72,
3.117,-15.72,2.40,0.92,6.43,0.37,-2.45,
3.117,-15.00,2.47,-0.75,6.43,0.37,-2.45,
3.119,-15.00,2.47,-0.75,6.47,0.26,-2.20,
3.124,-13.95,2.56,-2.61,6.47,0.26,-2.20,
3.125,-13.95,2.56,-2.61,6.47,0.14,-1.95,
3.125,-13.95,2.56,-2.61,6.43,0.02,-1.70,
3.127,-13.95,2.56,-2.61,6.36,-0.12,-1.46,
3.127,-12.77,2.63,-4.57,6.36,-0.12,-1.46,
3.13,-12.77,2.63,-4.57,6.24,-0.28,-1.23,
3.131,-12.77,2.63,-4.57,6.09,-0.44,-1.01,
3.132,-11.52,2.71,-6.60,6.09,-0.44,-1.01,
3.135,-11.52,2.71,-6.60,5.89,-0.62,-0.80,
3.139,-11.52,2.71,-6.60,5.65,-0.79,-0.61,
3.139,-11.52,2.71,-6.60,5.36,-0.97,-0.43,
3.14,-10.16,2.85,-8.59,5.36,-0.97,-0.43,
3.142,-8.72,3.11,-10.55,5.36,-0.97,-0.43,
3.142,-8.72,3.11,-10.55,5.04,-1.13,-0.27,
3.144,-8.72,3.11,-10.55,4.68,-1.28,-0.13,
3.147,-8.72,3.11,-10.55,4.28,-1.43,-0.01,
3.147,-7.23,3.51,-12.22,4.28,-1.43,-0.01,
3.149,-7.23,3.51,-12.22,3.86,-1.58,0.08,
3.152,-5.82,3.77,-13.62,3.86,-1.58,0.08,
3.152,-5.82,3.77,-13.62,3.42,-1.73,0.15,
3.154,-5.82,3.77,-13.62,2.96,-1.87,0.20,
3.157,-5.82,3.77,-13.62,2.49,-2.00,0.23,
3.157,-4.54,3.97,-14.55,2.49,-2.00,0.23,
3.159,-4.54,3.97,-14.55,2.02,-2.11,0.23,
3.161,-4.54,3.97,-14.55,1.56,-2.20,0.21,
3.162,-3.39,4.23,-14.72,1.56,-2.20,0.21,
3.164,-3.39,4.23,-14.72,1.10,-2.31,0.18,
3.166,-2.34,4.22,-14.39,1.10,-2.31,0.18,
3.166,-2.34,4.22,-14.39,0.68,-2.43,0.14,
3.169,-2.34,4.22,-14.39,0.26,-2.54,0.09,
3.171,-2.34,4.22,-14.39,-0.14,-2.66,0.03,
3.171,-1.67,4.02,-13.97,-0.14,-2.66,0.03,
3.174,-1.67,4.02,-13.97,-0.51,-2.77,-0.02,
3.177,-1.67,4.02,-13.97,-0.86,-2.86,-0.08,
3.177,-1.47,3.99,-13.14,-0.86,-2.86,-0.08,
3.179,-1.47,3.99,-13.14,-1.17,-2.94,-0.12,
3.181,-1.47,3.99,-13.14,-1.45,-3.00,-0.17,
3.181,-1.55,4.11,-11.92,-1.45,-3.00,-0.17,
3.184,-1.55,4.11,-11.92,-1.70,-3.04,-0.21,
3.186,-1.76,4.36,-10.65,-1.70,-3.04,-0.21,
3.186,-1.76,4.36,-10.65,-1.91,-3.06,-0.24,
3.19,-1.76,4.36,-10.65,-2.09,-3.07,-0.26,
3.191,-2.08,4.67,-9.47,-2.09,-3.07,-0.26,
3.192,-2.08,4.67,-9.47,-2.23,-3.05,-0.28,
3.194,-2.08,4.67,-9.47,-2.34,-3.01,-0.29,
3.196,-2.08,4.67,-9.47,-2.42,-2.96,-0.30,
3.196,-2.39,4.95,-8.34,-2.42,-2.96,-0.30,
3.199,-2.39,4.95,-8.34,-2.46,-2.90,-0.30,
3.201,-2.39,4.95,-8.34,-2.48,-2.82,-0.30,
3.201,-2.59,5.17,-7.17,-2.48,-2.82,-0.30,
3.204,-2.59,5.17,-7.17,-2.46,-2.73,-0.30,
3.207,-2.72,5.40,-6.05,-2.46,-2.73,-0.30,
3.207,-2.72,5.40,-6.05,-2.42,-2.63,-0.30,
3.209,-2.72,5.40,-6.05,-2.35,-2.52,-0.29,
3.211,-2.72,5.40,-6.05,-2.26,-2.40,-0.28,
3.211,-2.79,5.64,-5.05,-2.26,-2.40,-0.28,
3.214,-2.79,5.64,-5.05,-2.15,-2.27,-0.27,
3.216,-2.79,5.64,-5.05,-2.03,-2.13,-0.26,
3.226,-2.89,5.93,-4.21,-2.03,-2.13,-0.26,
3.227,-2.89,5.93,-4.21,-1.88,-1.98,-0.25,
3.227,-2.89,5.93,-4.21,-1.72,-1.82,-0.24,
3.227,-2.95,6.22,-3.57,-1.72,-1.82,-0.24,
3.227,-2.95,6.22,-3.57,-1.55,-1.66,-0.22,
3.228,-2.95,6.22,-3.57,-1.37,-1.49,-0.20,
3.228,-3.05,6.50,-3.16,-1.37,-1.49,-0.20,
3.229,-3.05,6.50,-3.16,-1.19,-1.32,-0.18,
3.231,-3.14,6.71,-2.92,-1.19,-1.32,-0.18,
3.232,-3.14,6.71,-2.92,-1.00,-1.15,-0.16,
3.233,-3.14,6.71,-2.92,-0.81,-0.98,-0.14,
3.236,-3.19,6.86,-2.87,-0.81,-0.98,-0.14,
3.236,-3.19,6.86,-2.87,-0.62,-0.81,-0.11,
3.239,-3.19,6.86,-2.87,-0.43,-0.65,-0.09,
3.243,-3.22,6.91,-2.92,-0.43,-0.65,-0.09,
3.243,-3.22,6.91,-2.92,-0.25,-0.48,-0.06,
3.243,-3.22,6.91,-2.92,-0.08,-0.32,-0.04,
3.246,-3.22,6.91,-2.92,0.08,-0.16,-0.01,
3.246,-3.25,6.88,-3.13,0.08,-0.16,-0.01,
3.249,-3.25,6.88,-3.13,0.23,-0.00,0.01,
3.251,-3.26,6.81,-3.43,0.23,-0.00,0.01,
3.251,-3.26,6.81,-3.43,0.37,0.15,0.03,
3.254,-3.26,6.81,-3.43,0.50,0.29,0.05,
3.256,-3.20,6.70,-3.80,0.50,0.29,0.05,
3.257,-3.20,6.70,-3.80,0.62,0.44,0.07,
3.259,-3.20,6.70,-3.80,0.72,0.57,0.08,
3.262,-3.20,6.70,-3.80,0.82,0.71,0.09,
3.262,-3.04,6.54,-4.22,0.82,0.71,0.09,
3.264,-3.04,6.54,-4.22,0.89,0.83,0.09,
3.267,-2.83,6.34,-4.60,0.89,0.83,0.09,
3.267,-2.83,6.34,-4.60,0.96,0.94,0.08,
3.269,-2.83,6.34,-4.60,1.01,1.05,0.07,
3.271,-2.60,6.17,-4.90,1.01,1.05,0.07,
3.271,-2.60,6.17,-4.90,1.06,1.15,0.06,
3.275,-2.60,6.17,-4.90,1.09,1.23,0.04,
3.276,-2.60,6.17,-4.90,1.11,1.31,0.02,
3.276,-2.37,6.05,-5.19,1.11,1.31,0.02,
3.278,-2.37,6.05,-5.19,1.13,1.39,0.00,
3.281,-2.22,6.02,-5.39,1.13,1.39,0.00,
3.281,-2.22,6.02,-5.39,1.13,1.46,-0.02,
3.283,-2.22,6.02,-5.39,1.13,1.52,-0.05,
3.286,-2.22,6.02,-5.39,1.12,1.59,-0.07,
3.286,-2.14,5.98,-5.53,1.12,1.59,-0.07,
3.293,-2.14,5.98,-5.53,1.10,1.65,-0.10,
3.293,-2.12,5.95,-5.65,1.10,1.65,-0.10,
3.294,-2.12,5.95,-5.65,1.09,1.70,-0.12,
3.294,-2.12,5.95,-5.65,1.06,1.75,-0.15,
3.296,-2.12,5.95,-5.65,1.03,1.80,-0.17,
3.296,-2.19,5.87,-5.68,1.03,1.80,-0.17,
3.299,-2.19,5.87,-5.68,1.00,1.84,-0.19,
3.3,-2.34,5.82,-5.67,1.00,1.84,-0.19,
3.3,-2.34,5.82,-5.67,0.97,1.88,-0.21,
3.305,-2.34,5.82,-5.67,0.94,1.91,-0.22,
3.306,-2.34,5.82,-5.67,0.92,1.94,-0.24,
3.306,-2.54,5.78,-5.59,0.92,1.94,-0.24,
3.309,-2.54,5.78,-5.59,0.89,1.97,-0.25,
3.31,-2.54,5.78,-5.59,0.86,2.00,-0.25,
3.31,-2.76,5.73,-5.45,0.86,2.00,-0.25,
3.313,-2.76,5.73,-5.45,0.83,2.03,-0.26,
3.315,-2.76,5.73,-5.45,0.80,2.05,-0.26,
3.315,-3.02,5.72,-5.30,0.80,2.05,-0.26,
3.319,-3.02,5.72,-5.30,0.78,2.08,-0.26,
3.32,-3.02,5.72,-5.30,0.76,2.11,-0.25,
3.32,-3.27,5.70,-5.14,0.76,2.11,-0.25,
3.323,-3.27,5.70,-5.14,0.74,2.14,-0.25,
3.325,-3.27,5.70,-5.14,0.72,2.17,-0.24,
3.325,-3.49,5.68,-4.95,0.72,2.17,-0.24,
3.331,-3.49,5.68,-4.95,0.71,2.20,-0.23,
3.331,-3.49,5.68,-4.95,0.69,2.22,-0.21,
3.332,-3.73,5.65,-4.74,0.69,2.22,-0.21,
3.333,-3.73,5.65,-4.74,0.68,2.24,-0.20,
3.336,-3.99,5.56,-4.51,0.68,2.24,-0.20,
3.336,-3.99,5.56,-4.51,0.67,2.26,-0.18,
3.338,-3.99,5.56,-4.51,0.66,2.28,-0.17,
3.34,-3.99,5.56,-4.51,0.65,2.30,-0.15,
3.34,-4.23,5.45,-4.35,0.65,2.30,-0.15,
3.343,-4.23,5.45,-4.35,0.64,2.32,-0.12,
3.345,-4.48,5.33,-4.20,0.64,2.32,-0.12,
3.345,-4.48,5.33,-4.20,0.63,2.34,-0.10,
3.347,-4.48,5.33,-4.20,0.62,2.36,-0.08,
3.35,-4.48,5.33,-4.20,0.61,2.38,-0.05,
3.351,-4.69,5.21,-4.12,0.61,2.38,-0.05,
3.352,-4.69,5.21,-4.12,0.60,2.39,-0.02,
3.355,-4.69,5.21,-4.12,0.59,2.40,0.01,
3.355,-4.89,5.09,-4.04,0.59,2.40,0.01,
3.358,-4.89,5.09,-4.04,0.58,2.41,0.04,
3.36,-5.07,4.96,-4.01,0.58,2.41,0.04,
3.36,-5.07,4.96,-4.01,0.56,2.42,0.08,
3.363,-5.07,4.96,-4.01,0.54,2.43,0.12,
3.365,-5.07,4.96,-4.01,0.52,2.43,0.16,
3.365,-5.25,4.77,-4.04,0.52,2.43,0.16,
3.367,-5.25,4.77,-4.04,0.50,2.43,0.21,
3.37,-5.41,4.50,-4.07,0.50,2.43,0.21,
3.372,-5.41,4.50,-4.07,0.47,2.42,0.25,
3.375,-5.41,4.50,-4.07,0.43,2.41,0.29,
3.382,-5.41,4.50,-4.07,0.39,2.40,0.34,
3.382,-5.49,4.16,-4.10,0.39,2.40,0.34,
3.382,-5.49,4.16,-4.10,0.35,2.39,0.39,
3.382,-5.49,4.16,-4.10,0.30,2.37,0.44,
3.382,-5.49,3.82,-4.21,0.30,2.37,0.44,
3.399,-5.49,3.82,-4.21,0.24,2.36,0.48,
3.4,-5.49,3.82,-4.21,0.18,2.35,0.53,
3.4,-5.41,3.50,-4.26,0.18,2.35,0.53,
3.4,-5.41,3.50,-4.26,0.11,2.33,0.57,
3.4,-5.25,3.17,-4.30,0.11,2.33,0.57,
3.401,-5.25,3.17,-4.30,0.05,2.32,0.61,
3.401,-5.25,3.17,-4.30,-0.02,2.30,0.65,
3.402,-5.05,2.85,-4.27,-0.02,2.30,0.65,
3.402,-5.05,2.85,-4.27,-0.09,2.28,0.68,
3.403,-5.05,2.85,-4.27,-0.16,2.27,0.70,
3.403,-5.05,2.85,-4.27,-0.23,2.24,0.72,
3.403,-4.84,2.50,-4.16,-0.23,2.24,0.72,
3.403,-4.84,2.50,-4.16,-0.30,2.22,0.73,
3.407,-4.68,2.20,-3.96,-0.30,2.22,0.73,
3.408,-4.68,2.20,-3.96,-0.36,2.19,0.74,
3.41,-4.68,2.20,-3.96,-0.43,2.16,0.74,
3.41,-4.68,2.20,-3.96,-0.49,2.14,0.75,
3.411,-4.68,1.91,-3.75,-0.49,2.14,0.75,
3.413,-4.68,1.91,-3.75,-0.54,2.12,0.75,
3.415,-4.68,1.91,-3.75,-0.60,2.10,0.74,
3.415,-4.78,1.60,-3.55,-0.60,2.10,0.74,
3.417,-4.78,1.60,-3.55,-0.65,2.09,0.74,
3.42,-4.78,1.60,-3.55,-0.71,2.09,0.73,
3.42,-4.91,1.33,-3.35,-0.71,2.09,0.73,
3.422,-4.91,1.33,-3.35,-0.76,2.09,0.73,
3.424,-4.91,1.33,-3.35,-0.81,2.10,0.72,
3.425,-5.17,1.06,-3.11,-0.81,2.10,0.72,
3.427,-5.17,1.06,-3.11,-0.85,2.12,0.71,
3.429,-5.17,1.06,-3.11,-0.90,2.14,0.71,
3.429,-5.51,0.81,-2.87,-0.90,2.14,0.71,
3.431,-5.51,0.81,-2.87,-0.94,2.17,0.70,
3.434,-5.51,0.81,-2.87,-0.98,2.21,0.70,
3.434,-5.91,0.59,-2.56,-0.98,2.21,0.70,
3.436,-5.91,0.59,-2.56,-1.01,2.25,0.70,
3.44,-5.91,0.59,-2.56,-1.04,2.31,0.70,
3.44,-6.35,0.41,-2.20,-1.04,2.31,0.70,
3.443,-6.35,0.41,-2.20,-1.07,2.37,0.70,
3.444,-6.86,0.22,-1.77,-1.07,2.37,0.70,
3.447,-6.86,0.22,-1.77,-1.08,2.44,0.69,
3.447,-6.86,0.22,-1.77,-1.09,2.51,0.70,
3.449,-6.86,0.22,-1.77,-1.09,2.59,0.70,
3.449,-7.45,0.06,-1.25,-1.09,2.59,0.70,
3.452,-7.45,0.06,-1.25,-1.08,2.68,0.71,
3.454,-8.17,-0.11,-0.72,-1.08,2.68,0.71,
3.455,-8.17,-0.11,-0.72,-1.07,2.77,0.72,
3.458,-8.17,-0.11,-0.72,-1.05,2.86,0.74,
3.459,-9.00,-0.30,-0.18,-1.05,2.86,0.74,
3.459,-9.00,-0.30,-0.18,-1.02,2.96,0.76,
3.462,-9.00,-0.30,-0.18,-0.98,3.05,0.78,
3.464,-9.00,-0.30,-0.18,-0.94,3.13,0.81,
3.464,-9.96,-0.62,0.39,-0.94,3.13,0.81,
3.466,-9.96,-0.62,0.39,-0.89,3.22,0.85,
3.469,-9.96,-0.62,0.39,-0.84,3.29,0.89,
3.469,-10.99,-1.01,0.97,-0.84,3.29,0.89,
3.471,-10.99,-1.01,0.97,-0.78,3.36,0.94,
3.475,-10.99,-1.01,0.97,-0.72,3.42,1.00,
3.476,-12.00,-1.47,1.50,-0.72,3.42,1.00,
3.477,-12.00,-1.47,1.50,-0.66,3.49,1.06,
3.479,-12.00,-1.47,1.50,-0.59,3.54,1.13,
3.479,-13.03,-1.95,1.98,-0.59,3.54,1.13,
3.482,-13.03,-1.95,1.98,-0.52,3.60,1.20,
3.484,-13.03,-1.95,1.98,-0.45,3.64,1.28,
3.484,-13.99,-2.33,2.46,-0.45,3.64,1.28,
3.486,-13.99,-2.33,2.46,-0.37,3.68,1.37,
3.489,-14.80,-2.55,2.87,-0.37,3.68,1.37,
3.489,-14.80,-2.55,2.87,-0.30,3.71,1.47,
3.498,-14.80,-2.55,2.87,-0.23,3.74,1.57,
3.499,-14.80,-2.55,2.87,-0.16,3.76,1.69,
3.499,-15.46,-2.68,3.19,-0.16,3.76,1.69,
3.499,-15.46,-2.68,3.19,-0.10,3.79,1.81,
3.5,-15.46,-2.68,3.19,-0.05,3.80,1.94,
3.5,-15.96,-2.82,3.40,-0.05,3.80,1.94,
3.505,-16.29,-3.00,3.46,-0.05,3.80,1.94,
3.505,-16.29,-3.00,3.46,-0.01,3.82,2.07,
3.505,-16.29,-3.00,3.46,0.02,3.84,2.21,
3.507,-16.29,-3.00,3.46,0.03,3.86,2.36,
3.509,-16.29,-3.00,3.46,0.03,3.87,2.51,
3.51,-16.53,-3.33,3.43,0.03,3.87,2.51,
3.512,-16.53,-3.33,3.43,0.02,3.89,2.65,
3.514,-16.53,-3.33,3.43,-0.02,3.90,2.80,
3.514,-16.65,-3.78,3.38,-0.02,3.90,2.80,
3.516,-16.65,-3.78,3.38,-0.06,3.91,2.95,
3.519,-16.65,-3.78,3.38,-0.12,3.92,3.09,
3.519,-16.68,-4.37,3.37,-0.12,3.92,3.09,
3.521,-16.68,-4.37,3.37,-0.19,3.91,3.22,
3.526,-16.64,-5.09,3.47,-0.19,3.91,3.22,
3.526,-16.64,-5.09,3.47,-0.26,3.89,3.35,
3.527,-16.64,-5.09,3.47,-0.35,3.86,3.48,
3.529,-16.64,-5.09,3.47,-0.43,3.81,3.60,
3.529,-16.51,-5.79,3.69,-0.43,3.81,3.60,
3.531,-16.51,-5.79,3.69,-0.52,3.74,3.71,
3.533,-16.30,-6.45,4.02,-0.52,3.74,3.71,
3.533,-16.30,-6.45,4.02,-0.61,3.66,3.81,
3.536,-16.30,-6.45,4.02,-0.71,3.56,3.91,
3.538,-16.30,-6.45,4.02,-0.80,3.44,4.00,
3.539,-15.99,-7.03,4.41,-0.80,3.44,4.00,
3.541,-15.99,-7.03,4.41,-0.90,3.30,4.08,
3.543,-15.99,-7.03,4.41,-0.99,3.15,4.15,
3.544,-15.54,-7.55,4.81,-0.99,3.15,4.15,
3.546,-15.54,-7.55,4.81,-1.09,2.98,4.22,
3.567,-15.54,-7.55,4.81,-1.19,2.79,4.28,
3.567,-14.95,-7.94,5.17,-1.19,2.79,4.28,
3.567,-14.95,-7.94,5.17,-1.28,2.59,4.34,
3.567,-14.95,-7.94,5.17,-1.38,2.38,4.39,
3.568,-14.21,-8.16,5.43,-1.38,2.38,4.39,
3.568,-14.21,-8.16,5.43,-1.48,2.17,4.43,
3.568,-14.21,-8.16,5.43,-1.58,1.95,4.47,
3.568,-13.33,-8.24,5.63,-1.58,1.95,4.47,
3.568,-13.33,-8.24,5.63,-1.68,1.72,4.51,
3.569,-13.33,-8.24,5.63,-1.78,1.50,4.55,
3.569,-12.41,-8.14,5.75,-1.78,1.50,4.55,
3.569,-12.41,-8.14,5.75,-1.88,1.28,4.59,
3.569,-12.41,-8.14,5.75,-1.98,1.06,4.62,
3.569,-11.46,-8.01,5.75,-1.98,1.06,4.62,
3.57,-11.46,-8.01,5.75,-2.08,0.85,4.64,
3.574,-10.54,-7.83,5.73,-2.08,0.85,4.64,
3.575,-10.54,-7.83,5.73,-2.17,0.63,4.67,
3.576,-10.54,-7.83,5.73,-2.26,0.42,4.70,
3.578,-10.54,-7.83,5.73,-2.35,0.21,4.73,
3.578,-9.65,-7.68,5.68,-2.35,0.21,4.73,
3.581,-9.65,-7.68,5.68,-2.44,0.01,4.75,
3.584,-8.80,-7.57,5.63,-2.44,0.01,4.75,
3.584,-8.80,-7.57,5.63,-2.52,-0.18,4.77,
3.586,-8.80,-7.57,5.63,-2.59,-0.37,4.79,
3.589,-8.80,-7.57,5.63,-2.66,-0.56,4.81,
3.589,-8.01,-7.50,5.54,-2.66,-0.56,4.81,
3.595,-8.01,-7.50,5.54,-2.73,-0.73,4.82,
3.596,-7.30,-7.46,5.50,-2.73,-0.73,4.82,
3.596,-7.30,-7.46,5.50,-2.79,-0.91,4.84,
3.597,-7.30,-7.46,5.50,-2.84,-1.08,4.85,
3.615,-6.62,-7.43,5.47,-2.84,-1.08,4.85,
3.616,-6.62,-7.43,5.47,-2.89,-1.25,4.86,
3.616,-6.62,-7.43,5.47,-2.93,-1.41,4.87,
3.617,-6.62,-7.43,5.47,-2.96,-1.56,4.88,
3.617,-6.62,-7.43,5.47,-2.99,-1.71,4.89,
3.617,-6.62,-7.43,5.47,-3.01,-1.84,4.90,
3.618,-5.94,-7.36,5.42,-3.01,-1.84,4.90,
3.618,-5.32,-7.26,5.35,-3.01,-1.84,4.90,
3.618,-5.32,-7.26,5.35,-3.02,-1.97,4.91,
3.619,-4.78,-7.15,5.28,-3.02,-1.97,4.91,
3.619,-4.78,-7.15,5.28,-3.03,-2.10,4.91,
3.619,-4.78,-7.15,5.28,-3.03,-2.22,4.92,
3.619,-4.78,-7.15,5.28,-3.02,-2.34,4.93,
3.62,-4.33,-7.12,5.23,-3.02,-2.34,4.93,
3.62,-4.33,-7.12,5.23,-3.00,-2.46,4.93,
3.622,-4.33,-7.12,5.23,-2.98,-2.57,4.94,
3.623,-3.95,-7.18,5.18,-2.98,-2.57,4.94,
3.625,-3.95,-7.18,5.18,-2.95,-2.69,4.95,
3.627,-3.58,-7.24,5.12,-2.95,-2.69,4.95,
3.631,-3.58,-7.24,5.12,-2.91,-2.79,4.95,
3.631,-3.58,-7.24,5.12,-2.86,-2.89,4.96,
3.632,-3.58,-7.24,5.12,-2.81,-2.99,4.97,
3.633,-3.16,-7.27,5.02,-2.81,-2.99,4.97,
3.635,-3.16,-7.27,5.02,-2.76,-3.07,4.98,
3.638,-2.71,-7.32,4.80,-2.76,-3.07,4.98,
3.638,-2.71,-7.32,4.80,-2.70,-3.15,4.99,
3.64,-2.71,-7.32,4.80,-2.63,-3.23,5.00,
3.643,-2.17,-7.40,4.51,-2.63,-3.23,5.00,
3.643,-2.17,-7.40,4.51,-2.56,-3.29,5.01,
3.645,-2.17,-7.40,4.51,-2.49,-3.35,5.01,
3.647,-2.17,-7.40,4.51,-2.42,-3.40,5.02,
3.647,-1.56,-7.50,4.18,-2.42,-3.40,5.02,
3.65,-1.56,-7.50,4.18,-2.34,-3.44,5.02,
3.652,-1.56,-7.50,4.18,-2.26,-3.48,5.02,
3.652,-0.95,-7.57,3.76,-2.26,-3.48,5.02,
3.655,-0.95,-7.57,3.76,-2.18,-3.50,5.03,
3.658,-0.95,-7.57,3.76,-2.10,-3.51,5.03,
3.658,-0.34,-7.60,3.37,-2.10,-3.51,5.03,
3.66,-0.34,-7.60,3.37,-2.02,-3.52,5.02,
3.662,-0.34,-7.60,3.37,-1.94,-3.52,5.02,
3.663,0.27,-7.63,3.02,-1.94,-3.52,5.02,
3.665,0.27,-7.63,3.02,-1.86,-3.51,5.02,
3.667,0.27,-7.63,3.02,-1.78,-3.48,5.01,
3.668,0.85,-7.66,2.67,-1.78,-3.48,5.01,
3.67,0.85,-7.66,2.67,-1.69,-3.46,5.01,
3.672,0.85,-7.66,2.67,-1.61,-3.42,5.00,
3.673,1.44,-7.69,2.37,-1.61,-3.42,5.00,
3.679,1.44,-7.69,2.37,-1.52,-3.37,4.99,
3.68,1.44,-7.69,2.37,-1.44,-3.32,4.98,
3.68,1.99,-7.74,2.08,-1.44,-3.32,4.98,
3.681,1.99,-7.74,2.08,-1.35,-3.26,4.96,
3.71,1.99,-7.74,2.08,-1.27,-3.19,4.94,
3.711,2.50,-7.78,1.84,-1.27,-3.19,4.94,
3.711,2.50,-7.78,1.84,-1.18,-3.11,4.93,
3.712,2.50,-7.78,1.84,-1.09,-3.03,4.91,
3.712,2.50,-7.78,1.84,-0.99,-2.94,4.89,
3.712,2.50,-7.78,1.84,-0.90,-2.85,4.87,
3.712,2.94,-7.81,1.64,-0.90,-2.85,4.87,
3.713,3.39,-7.89,1.49,-0.90,-2.85,4.87,
3.713,3.39,-7.89,1.49,-0.80,-2.75,4.84,
3.713,3.39,-7.89,1.49,-0.70,-2.65,4.81,
3.714,3.79,-7.97,1.39,-0.70,-2.65,4.81,
3.714,3.79,-7.97,1.39,-0.59,-2.55,4.78,
3.714,3.79,-7.97,1.39,-0.49,-2.45,4.75,
3.714,4.21,-8.06,1.35,-0.49,-2.45,4.75,
3.715,4.21,-8.06,1.35,-0.38,-2.35,4.72,
3.715,4.21,-8.06,1.35,-0.26,-2.24,4.68,
3.715,4.61,-8.13,1.30,-0.26,-2.24,4.68,
3.716,4.61,-8.13,1.30,-0.15,-2.13,4.64,
3.716,4.95,-8.19,1.27,-0.15,-2.13,4.64,
3.742,4.95,-8.19,1.27,-0.04,-2.02,4.60,
3.743,4.95,-8.19,1.27,0.08,-1.91,4.56,
3.743,5.29,-8.24,1.24,0.08,-1.91,4.56,
3.743,5.29,-8.24,1.24,0.20,-1.80,4.51,
3.743,5.29,-8.24,1.24,0.31,-1.69,4.47,
3.744,5.54,-8.32,1.20,0.31,-1.69,4.47,
3.744,5.54,-8.32,1.20,0.43,-1.58,4.42,
3.744,5.54,-8.32,1.20,0.55,-1.47,4.38,
3.744,5.80,-8.41,1.16,0.55,-1.47,4.38,
3.745,5.80,-8.41,1.16,0.66,-1.36,4.33,
3.745,5.80,-8.41,1.16,0.78,-1.26,4.28,
3.745,5.80,-8.41,1.16,0.89,-1.16,4.23,
3.745,6.02,-8.49,1.13,0.89,-1.16,4.23,
3.745,6.02,-8.49,1.13,1.00,-1.06,4.18,
3.746,6.24,-8.56,1.11,1.00,-1.06,4.18,
3.746,6.24,-8.56,1.11,1.11,-0.96,4.13,
3.746,6.24,-8.56,1.11,1.21,-0.86,4.09,
3.746,6.46,-8.64,1.06,1.21,-0.86,4.09,
3.747,6.46,-8.64,1.06,1.32,-0.77,4.04,
3.747,6.46,-8.64,1.06,1.42,-0.68,3.98,
3.747,6.64,-8.74,0.98,1.42,-0.68,3.98,
3.747,6.64,-8.74,0.98,1.52,-0.59,3.93,
3.749,6.64,-8.74,0.98,1.61,-0.50,3.88,
3.752,6.80,-8.87,0.89,1.61,-0.50,3.88,
3.752,6.80,-8.87,0.89,1.70,-0.42,3.82,
3.754,6.80,-8.87,0.89,1.78,-0.34,3.76,
3.758,6.80,-8.87,0.89,1.86,-0.26,3.69,
3.758,7.01,-9.04,0.76,1.86,-0.26,3.69,
3.759,7.01,-9.04,0.76,1.93,-0.19,3.62,
3.762,7.01,-9.04,0.76,2.00,-0.12,3.55,
3.762,7.26,-9.20,0.63,2.00,-0.12,3.55,
3.765,7.26,-9.20,0.63,2.06,-0.05,3.48,
3.767,7.26,-9.20,0.63,2.11,0.01,3.40,
3.768,7.51,-9.31,0.46,2.11,0.01,3.40,
3.77,7.51,-9.31,0.46,2.15,0.08,3.32,
3.771,7.51,-9.31,0.46,2.20,0.13,3.24,
3.772,7.72,-9.35,0.34,2.20,0.13,3.24,
3.778,7.72,-9.35,0.34,2.23,0.19,3.16,
3.779,7.72,-9.35,0.34,2.26,0.23,3.08,
3.779,7.93,-9.37,0.23,2.26,0.23,3.08,
3.78,7.93,-9.37,0.23,2.29,0.28,3.00,
3.783,8.14,-9.37,0.14,2.29,0.28,3.00,
3.784,8.14,-9.37,0.14,2.31,0.32,2.92,
3.784,8.14,-9.37,0.14,2.32,0.36,2.83,
3.786,8.14,-9.37,0.14,2.33,0.39,2.75,
3.786,8.40,-9.35,0.05,2.33,0.39,2.75,
3.79,8.40,-9.35,0.05,2.34,0.43,2.66,
3.796,8.40,-9.35,0.05,2.34,0.45,2.58,
3.796,8.58,-9.26,-0.05,2.34,0.45,2.58,
3.796,8.58,-9.26,-0.05,2.34,0.48,2.49,
3.797,8.73,-9.14,-0.14,2.34,0.48,2.49,
3.797,8.73,-9.14,-0.14,2.33,0.51,2.40,
3.799,8.73,-9.14,-0.14,2.32,0.53,2.32,
3.801,8.73,-9.14,-0.14,2.30,0.55,2.23,
3.801,8.84,-8.98,-0.22,2.30,0.55,2.23,
3.804,8.84,-8.98,-0.22,2.28,0.57,2.15,
3.806,8.84,-8.98,-0.22,2.25,0.58,2.07,
3.806,8.91,-8.84,-0.26,2.25,0.58,2.07,
3.809,8.91,-8.84,-0.26,2.22,0.59,1.99,
3.812,8.92,-8.69,-0.32,2.22,0.59,1.99,
3.812,8.92,-8.69,-0.32,2.19,0.60,1.91,
3.813,8.92,-8.69,-0.32,2.16,0.60,1.83,
3.816,8.92,-8.69,-0.32,2.12,0.60,1.75,
3.816,8.91,-8.57,-0.35,2.12,0.60,1.75,
3.819,8.91,-8.57,-0.35,2.07,0.60,1.68,
3.821,8.91,-8.57,-0.35,2.03,0.59,1.61,
3.821,8.86,-8.44,-0.33,2.03,0.59,1.61,
3.823,8.86,-8.44,-0.33,1.99,0.58,1.54,
3.827,8.77,-8.34,-0.35,1.99,0.58,1.54,
3.827,8.77,-8.34,-0.35,1.94,0.57,1.47,
3.829,8.77,-8.34,-0.35,1.90,0.56,1.40,
3.831,8.77,-8.34,-0.35,1.85,0.55,1.34,
3.831,8.67,-8.25,-0.35,1.85,0.55,1.34,
3.834,8.67,-8.25,-0.35,1.80,0.53,1.28,
3.836,8.67,-8.25,-0.35,1.75,0.51,1.21,
3.836,8.53,-8.23,-0.38,1.75,0.51,1.21,
3.838,8.53,-8.23,-0.38,1.69,0.49,1.15,
3.842,8.53,-8.23,-0.38,1.64,0.47,1.09,
3.843,8.42,-8.19,-0.40,1.64,0.47,1.09,
3.844,8.42,-8.19,-0.40,1.59,0.45,1.03,
3.846,8.42,-8.19,-0.40,1.53,0.43,0.98,
3.846,8.34,-8.16,-0.46,1.53,0.43,0.98,
3.848,8.34,-8.16,-0.46,1.48,0.40,0.92,
3.851,8.34,-8.16,-0.46,1.42,0.38,0.87,
3.851,8.26,-8.16,-0.48,1.42,0.38,0.87,
3.853,8.26,-8.16,-0.48,1.35,0.36,0.81,
3.856,8.26,-8.16,-0.48,1.29,0.33,0.76,
3.856,8.25,-8.10,-0.56,1.29,0.33,0.76,
3.858,8.25,-8.10,-0.56,1.23,0.31,0.70,
3.861,8.20,-8.07,-0.61,1.23,0.31,0.70,
3.862,8.20,-8.07,-0.61,1.16,0.29,0.65,
3.863,8.20,-8.07,-0.61,1.09,0.27,0.59,
3.866,8.20,-8.07,-0.61,1.03,0.25,0.54,
3.866,8.14,-8.01,-0.62,1.03,0.25,0.54,
3.868,8.14,-8.01,-0.62,0.96,0.23,0.48,
3.871,8.11,-7.98,-0.61,0.96,0.23,0.48,
3.871,8.11,-7.98,-0.61,0.89,0.21,0.42,
3.873,8.11,-7.98,-0.61,0.82,0.19,0.37,
3.88,8.11,-7.98,-0.61,0.76,0.17,0.31,
3.88,8.13,-7.94,-0.57,0.76,0.17,0.31,
3.914,8.13,-7.94,-0.57,0.69,0.15,0.25,
3.915,8.13,-7.94,-0.57,0.62,0.14,0.19,
3.915,8.14,-7.90,-0.51,0.62,0.14,0.19,
3.916,8.14,-7.90,-0.51,0.56,0.12,0.13,
3.916,8.14,-7.90,-0.51,0.50,0.10,0.06,
3.916,8.17,-7.85,-0.39,0.50,0.10,0.06,
3.917,8.17,-7.85,-0.39,0.45,0.09,0.00,
3.917,8.17,-7.85,-0.39,0.39,0.07,-0.07,
3.918,8.16,-7.79,-0.25,0.39,0.07,-0.07,
3.918,8.16,-7.79,-0.25,0.35,0.06,-0.13,
3.918,8.14,-7.77,-0.11,0.35,0.06,-0.13,
3.919,8.14,-7.77,-0.11,0.30,0.04,-0.20,
3.919,8.14,-7.77,-0.11,0.26,0.02,-0.26,
3.92,8.14,-7.77,-0.11,0.22,0.01,-0.33,
3.92,8.13,-7.75,0.03,0.22,0.01,-0.33,
3.92,8.13,-7.75,0.03,0.19,-0.00,-0.40,
3.921,8.13,-7.75,0.03,0.16,-0.02,-0.47,
3.921,8.01,-7.75,0.16,0.16,-0.02,-0.47,
3.922,8.01,-7.75,0.16,0.14,-0.03,-0.54,
3.922,7.91,-7.82,0.22,0.14,-0.03,-0.54,
3.922,7.91,-7.82,0.22,0.12,-0.04,-0.61,
3.923,7.91,-7.82,0.22,0.11,-0.05,-0.69,
3.923,7.78,-7.96,0.30,0.11,-0.05,-0.69,
3.924,7.78,-7.96,0.30,0.09,-0.06,-0.76,
3.924,7.78,-7.96,0.30,0.09,-0.07,-0.83,
3.924,7.62,-8.03,0.35,0.09,-0.07,-0.83,
3.925,7.62,-8.03,0.35,0.08,-0.08,-0.91,
3.926,7.62,-8.03,0.35,0.08,-0.09,-0.99,
3.926,7.62,-8.03,0.35,0.08,-0.09,-1.06,
3.926,7.44,-8.08,0.38,0.08,-0.09,-1.06,
3.933,7.44,-8.08,0.38,0.08,-0.10,-1.13,
3.934,7.44,-8.08,0.38,0.08,-0.10,-1.20,
3.934,7.24,-8.10,0.37,0.08,-0.10,-1.20,
3.935,7.24,-8.10,0.37,0.09,-0.10,-1.27,
3.935,7.24,-8.10,0.37,0.09,-0.10,-1.34,
3.935,6.99,-8.10,0.35,0.09,-0.10,-1.34,
3.939,6.99,-8.10,0.35,0.10,-0.10,-1.41,
3.94,6.99,-8.10,0.35,0.10,-0.09,-1.47,
3.94,6.74,-8.13,0.26,0.10,-0.09,-1.47,
3.944,6.74,-8.13,0.26,0.11,-0.08,-1.54,
3.945,6.74,-8.13,0.26,0.11,-0.07,-1.60,
3.945,6.49,-8.22,0.17,0.11,-0.07,-1.60,
3.948,6.49,-8.22,0.17,0.12,-0.06,-1.67,
3.951,6.49,-8.22,0.17,0.12,-0.04,-1.73,
3.951,6.27,-8.37,0.01,0.12,-0.04,-1.73,
3.952,6.27,-8.37,0.01,0.12,-0.02,-1.79,
3.955,6.27,-8.37,0.01,0.11,0.00,-1.85,
3.955,6.05,-8.50,-0.17,0.11,0.00,-1.85,
3.957,6.05,-8.50,-0.17,0.11,0.03,-1.91,
3.961,5.78,-8.65,-0.31,0.11,0.03,-1.91,
3.961,5.78,-8.65,-0.31,0.10,0.07,-1.97,
3.962,5.78,-8.65,-0.31,0.10,0.10,-2.04,
3.965,5.78,-8.65,-0.31,0.09,0.13,-2.10,
3.965,5.56,-8.87,-0.44,0.09,0.13,-2.10,
3.967,5.56,-8.87,-0.44,0.09,0.17,-2.17,
3.97,5.35,-9.17,-0.53,0.09,0.17,-2.17,
3.97,5.35,-9.17,-0.53,0.10,0.20,-2.24,
3.972,5.35,-9.17,-0.53,0.11,0.23,-2.32,
3.977,5.35,-9.17,-0.53,0.12,0.26,-2.40,
3.977,5.20,-9.55,-0.57,0.12,0.26,-2.40,
3.98,5.20,-9.55,-0.57,0.14,0.29,-2.48,
3.981,5.20,-9.55,-0.57,0.16,0.33,-2.58,
3.981,5.00,-9.96,-0.57,0.16,0.33,-2.58,
3.982,5.00,-9.96,-0.57,0.20,0.36,-2.67,
3.985,4.67,-10.39,-0.57,0.20,0.36,-2.67,
3.985,4.67,-10.39,-0.57,0.23,0.38,-2.78,
3.987,4.67,-10.39,-0.57,0.27,0.41,-2.89,
3.99,4.25,-10.94,-0.57,0.27,0.41,-2.89,
3.99,4.25,-10.94,-0.57,0.31,0.43,-3.00,
4.01,4.25,-10.94,-0.57,0.36,0.44,-3.12,
4.01,3.85,-11.48,-0.63,0.36,0.44,-3.12,
4.01,3.85,-11.48,-0.63,0.41,0.46,-3.24,
4.01,3.85,-11.48,-0.63,0.46,0.48,-3.37,
4.01,3.51,-11.94,-0.79,0.46,0.48,-3.37,
4.011,3.51,-11.94,-0.79,0.51,0.51,-3.49,
4.011,3.51,-11.94,-0.79,0.56,0.55,-3.62,
4.011,3.51,-11.94,-0.79,0.61,0.59,-3.75,
4.011,3.14,-12.32,-0.95,0.61,0.59,-3.75,
4.011,3.14,-12.32,-0.95,0.66,0.63,-3.87,
4.012,2.75,-12.68,-1.08,0.66,0.63,-3.87,
4.012,2.75,-12.68,-1.08,0.70,0.68,-4.00,
4.012,2.75,-12.68,-1.08,0.74,0.72,-4.12,
4.015,2.75,-12.68,-1.08,0.78,0.78,-4.25,
4.015,2.36,-13.12,-1.26,0.78,0.78,-4.25,
4.019,2.36,-13.12,-1.26,0.81,0.83,-4.38,
4.02,2.36,-13.12,-1.26,0.84,0.89,-4.52,
4.02,1.89,-13.66,-1.46,0.84,0.89,-4.52,
4.024,1.89,-13.66,-1.46,0.87,0.94,-4.65,
4.026,1.89,-13.66,-1.46,0.90,1.00,-4.78,
4.026,1.32,-14.18,-1.59,0.90,1.00,-4.78,
4.028,1.32,-14.18,-1.59,0.93,1.05,-4.92,
4.029,1.32,-14.18,-1.59,0.96,1.10,-5.06,
4.03,0.66,-14.72,-1.67,0.96,1.10,-5.06,
4.032,0.66,-14.72,-1.67,0.99,1.15,-5.19,
4.034,0.66,-14.72,-1.67,1.01,1.19,-5.32,
4.035,-0.15,-15.06,-1.74,1.01,1.19,-5.32,
4.037,-0.15,-15.06,-1.74,1.03,1.24,-5.44,
4.039,-0.15,-15.06,-1.74,1.04,1.27,-5.56,
4.039,-1.11,-15.20,-1.74,1.04,1.27,-5.56,
4.042,-1.11,-15.20,-1.74,1.06,1.30,-5.66,
4.065,-2.16,-15.29,-1.70,1.06,1.30,-5.66,
4.065,-2.16,-15.29,-1.70,1.07,1.32,-5.76,
4.066,-2.16,-15.29,-1.70,1.07,1.33,-5.86,
4.066,-2.16,-15.29,-1.70,1.08,1.33,-5.94,
4.066,-3.27,-15.34,-1.63,1.08,1.33,-5.94,
4.066,-3.27,-15.34,-1.63,1.08,1.33,-6.02,
4.067,-3.27,-15.34,-1.63,1.07,1.31,-6.08,
4.067,-4.44,-15.32,-1.52,1.07,1.31,-6.08,
4.067,-4.44,-15.32,-1.52,1.06,1.29,-6.14,
4.067,-5.59,-15.27,-1.42,1.06,1.29,-6.14,
4.068,-5.59,-15.27,-1.42,1.04,1.26,-6.19,
4.068,-5.59,-15.27,-1.42,1.02,1.22,-6.23,
4.068,-5.59,-15.27,-1.42,0.99,1.17,-6.27,
4.068,-6.63,-15.25,-1.35,0.99,1.17,-6.27,
4.068,-6.63,-15.25,-1.35,0.95,1.11,-6.30,
4.071,-7.53,-15.22,-1.26,0.95,1.11,-6.30,
4.071,-7.53,-15.22,-1.26,0.91,1.03,-6.34,
4.073,-7.53,-15.22,-1.26,0.85,0.95,-6.37,
4.074,-7.53,-15.22,-1.26,0.80,0.86,-6.41,
4.074,-8.31,-15.22,-1.15,0.80,0.86,-6.41,
4.077,-8.31,-15.22,-1.15,0.73,0.75,-6.45,
4.08,-8.31,-15.22,-1.15,0.67,0.64,-6.49,
4.08,-8.96,-15.16,-0.96,0.67,0.64,-6.49,
4.082,-8.96,-15.16,-0.96,0.60,0.52,-6.54,
4.085,-8.96,-15.16,-0.96,0.52,0.38,-6.59,
4.085,-9.57,-15.08,-0.68,0.52,0.38,-6.59,
4.086,-9.57,-15.08,-0.68,0.45,0.24,-6.64,
4.089,-10.07,-14.89,-0.41,0.45,0.24,-6.64,
4.089,-10.07,-14.89,-0.41,0.37,0.09,-6.69,
4.106,-10.07,-14.89,-0.41,0.29,-0.08,-6.75,
4.107,-10.54,-14.58,-0.10,0.29,-0.08,-6.75,
4.109,-10.54,-14.58,-0.10,0.21,-0.24,-6.81,
4.11,-10.54,-14.58,-0.10,0.12,-0.42,-6.87,
4.11,-11.03,-14.15,0.21,0.12,-0.42,-6.87,
4.111,-11.03,-14.15,0.21,0.04,-0.61,-6.93,
4.112,-11.03,-14.15,0.21,-0.04,-0.80,-6.98,
4.113,-11.47,-13.62,0.48,-0.04,-0.80,-6.98,
4.113,-11.47,-13.62,0.48,-0.12,-0.99,-7.04,
4.114,-11.47,-13.62,0.48,-0.20,-1.18,-7.10,
4.115,-11.83,-12.95,0.71,-0.20,-1.18,-7.10,
4.116,-11.83,-12.95,0.71,-0.28,-1.37,-7.14,
4.116,-11.83,-12.95,0.71,-0.35,-1.56,-7.19,
4.116,-12.18,-12.15,0.85,-0.35,-1.56,-7.19,
4.117,-12.18,-12.15,0.85,-0.42,-1.73,-7.24,
4.117,-12.18,-12.15,0.85,-0.48,-1.91,-7.27,
4.122,-12.18,-12.15,0.85,-0.54,-2.07,-7.30,
4.123,-12.53,-11.25,0.93,-0.54,-2.07,-7.30,
4.123,-12.53,-11.25,0.93,-0.59,-2.22,-7.33,
4.124,-12.53,-11.25,0.93,-0.64,-2.35,-7.34,
4.125,-12.83,-10.22,0.96,-0.64,-2.35,-7.34,
4.131,-12.83,-10.22,0.96,-0.67,-2.48,-7.35,
4.131,-13.17,-9.10,0.92,-0.67,-2.48,-7.35,
4.132,-13.17,-9.10,0.92,-0.71,-2.60,-7.35,
4.132,-13.17,-9.10,0.92,-0.73,-2.70,-7.34,
4.133,-13.17,-9.10,0.92,-0.75,-2.80,-7.33,
4.134,-13.54,-7.95,0.90,-0.75,-2.80,-7.33,
4.137,-13.54,-7.95,0.90,-0.76,-2.88,-7.30,
4.139,-13.92,-6.78,0.79,-0.76,-2.88,-7.30,
4.139,-13.92,-6.78,0.79,-0.76,-2.95,-7.27,
4.141,-13.92,-6.78,0.79,-0.75,-3.00,-7.23,
4.143,-13.92,-6.78,0.79,-0.74,-3.04,-7.18,
4.143,-14.31,-5.61,0.69,-0.74,-3.04,-7.18,
4.146,-14.31,-5.61,0.69,-0.73,-3.06,-7.12,
4.148,-14.73,-4.40,0.53,-0.73,-3.06,-7.12,
4.148,-14.73,-4.40,0.53,-0.70,-3.06,-7.06,
4.151,-14.73,-4.40,0.53,-0.67,-3.05,-6.98,
4.153,-14.73,-4.40,0.53,-0.63,-3.02,-6.90,
4.153,-15.16,-3.16,0.37,-0.63,-3.02,-6.90,
4.155,-15.16,-3.16,0.37,-0.58,-2.99,-6.81,
4.158,-15.16,-3.16,0.37,-0.53,-2.94,-6.71,
4.159,-15.42,-1.87,0.24,-0.53,-2.94,-6.71,
4.161,-15.42,-1.87,0.24,-0.47,-2.87,-6.61,
4.163,-15.42,-1.87,0.24,-0.40,-2.79,-6.49,
4.163,-15.64,-0.63,0.14,-0.40,-2.79,-6.49,
4.165,-15.64,-0.63,0.14,-0.33,-2.70,-6.36,
4.168,-15.64,-0.63,0.14,-0.25,-2.59,-6.23,
4.168,-15.75,0.59,0.09,-0.25,-2.59,-6.23,
4.17,-15.75,0.59,0.09,-0.17,-2.47,-6.09,
4.173,-15.78,1.74,0.05,-0.17,-2.47,-6.09,
4.173,-15.78,1.74,0.05,-0.09,-2.35,-5.94,
4.176,-15.78,1.74,0.05,0.00,-2.22,-5.78,
4.178,-15.74,2.78,0.05,0.00,-2.22,-5.78,
4.178,-15.74,2.78,0.05,0.09,-2.08,-5.61,
4.18,-15.74,2.78,0.05,0.18,-1.94,-5.43,
4.183,-15.63,3.72,0.00,0.18,-1.94,-5.43,
4.183,-15.63,3.72,0.00,0.28,-1.80,-5.24,
4.185,-15.63,3.72,0.00,0.37,-1.65,-5.05,
4.188,-15.43,4.49,-0.06,0.37,-1.65,-5.05,
4.188,-15.43,4.49,-0.06,0.46,-1.51,-4.85,
4.191,-15.43,4.49,-0.06,0.55,-1.38,-4.64,
4.194,-15.08,5.11,-0.16,0.55,-1.38,-4.64,
4.195,-15.08,5.11,-0.16,0.64,-1.24,-4.43,
4.198,-15.08,5.11,-0.16,0.72,-1.12,-4.21,
4.199,-15.08,5.11,-0.16,0.80,-0.99,-3.99,
4.199,-14.59,5.56,-0.30,0.80,-0.99,-3.99,
4.2,-14.59,5.56,-0.30,0.87,-0.88,-3.77,
4.203,-13.88,5.85,-0.52,0.87,-0.88,-3.77,
4.203,-13.88,5.85,-0.52,0.93,-0.77,-3.56,
4.206,-13.88,5.85,-0.52,0.99,-0.67,-3.35,
4.208,-13.88,5.85,-0.52,1.03,-0.58,-3.15,
4.218,-13.00,5.97,-0.78,1.03,-0.58,-3.15,
4.218,-13.00,5.97,-0.78,1.07,-0.50,-2.96,
4.218,-13.00,5.97,-0.78,1.09,-0.42,-2.78,
4.218,-12.03,5.94,-1.10,1.09,-0.42,-2.78,
4.218,-12.03,5.94,-1.10,1.10,-0.35,-2.61,
4.219,-11.03,5.79,-1.46,1.10,-0.35,-2.61,
4.219,-11.03,5.79,-1.46,1.10,-0.29,-2.46,
4.22,-11.03,5.79,-1.46,1.08,-0.23,-2.31,
4.223,-11.03,5.79,-1.46,1.06,-0.17,-2.17,
4.223,-10.01,5.61,-1.75,1.06,-0.17,-2.17,
4.226,-10.01,5.61,-1.75,1.02,-0.12,-2.05,
4.228,-9.04,5.48,-1.97,1.02,-0.12,-2.05,
4.229,-9.04,5.48,-1.97,0.98,-0.07,-1.93,
4.23,-9.04,5.48,-1.97,0.93,-0.02,-1.83,
4.233,-9.04,5.48,-1.97,0.88,0.02,-1.74,
4.233,-8.09,5.38,-2.16,0.88,0.02,-1.74,
4.235,-8.09,5.38,-2.16,0.82,0.07,-1.66,
4.237,-8.09,5.38,-2.16,0.76,0.10,-1.58,
4.237,-7.30,5.26,-2.25,0.76,0.10,-1.58,
4.24,-7.30,5.26,-2.25,0.71,0.14,-1.52,
4.243,-7.30,5.26,-2.25,0.65,0.17,-1.47,
4.243,-6.58,5.04,-2.26,0.65,0.17,-1.47,
4.245,-6.58,5.04,-2.26,0.58,0.20,-1.43,
4.248,-6.00,4.76,-2.25,0.58,0.20,-1.43,
4.248,-6.00,4.76,-2.25,0.52,0.23,-1.39,
4.25,-6.00,4.76,-2.25,0.46,0.26,-1.36,
4.252,-6.00,4.76,-2.25,0.40,0.28,-1.35,
4.252,-5.51,4.42,-2.15,0.40,0.28,-1.35,
4.255,-5.51,4.42,-2.15,0.34,0.30,-1.34,
4.257,-5.51,4.42,-2.15,0.28,0.31,-1.34,
4.257,-5.13,4.08,-1.98,0.28,0.31,-1.34,
4.26,-5.13,4.08,-1.98,0.23,0.31,-1.34,
4.262,-5.13,4.08,-1.98,0.19,0.31,-1.36,
4.262,-4.84,3.82,-1.71,0.19,0.31,-1.36,
4.265,-4.84,3.82,-1.71,0.15,0.31,-1.38,
4.267,-4.84,3.82,-1.71,0.12,0.31,-1.40,
4.267,-4.59,3.62,-1.38,0.12,0.31,-1.40,
4.27,-4.59,3.62,-1.38,0.10,0.30,-1.43,
4.272,-4.59,3.62,-1.38,0.09,0.30,-1.47,
4.272,-4.33,3.54,-1.07,0.09,0.30,-1.47,
4.277,-4.33,3.54,-1.07,0.08,0.29,-1.51,
4.278,-4.33,3.54,-1.07,0.09,0.29,-1.56,
4.278,-4.13,3.48,-0.83,0.09,0.29,-1.56,
4.28,-4.13,3.48,-0.83,0.09,0.29,-1.61,
4.285,-4.13,3.48,-0.83,0.11,0.29,-1.67,
4.286,-4.13,3.48,-0.83,0.13,0.29,-1.72,
4.286,-4.03,3.48,-0.64,0.13,0.29,-1.72,
4.287,-4.03,3.52,-0.52,0.13,0.29,-1.72,
4.288,-4.03,3.52,-0.52,0.16,0.29,-1.78,
4.29,-4.03,3.52,-0.52,0.19,0.29,-1.84,
4.293,-4.03,3.52,-0.52,0.23,0.30,-1.90,
4.293,-4.20,3.62,-0.45,0.23,0.30,-1.90,
4.299,-4.20,3.62,-0.45,0.26,0.30,-1.95,
4.299,-4.50,3.78,-0.42,0.26,0.30,-1.95,
4.299,-4.50,3.78,-0.42,0.31,0.30,-2.01,
4.299,-4.50,3.78,-0.42,0.35,0.30,-2.05,
4.302,-4.82,3.98,-0.47,0.35,0.30,-2.05,
4.302,-4.82,3.98,-0.47,0.39,0.29,-2.10,
4.304,-4.82,3.98,-0.47,0.44,0.29,-2.14,
4.307,-4.82,3.98,-0.47,0.48,0.29,-2.17,
4.307,-5.14,4.23,-0.57,0.48,0.29,-2.17,
4.311,-5.14,4.23,-0.57,0.52,0.29,-2.20,
4.312,-5.51,4.54,-0.73,0.52,0.29,-2.20,
4.312,-5.51,4.54,-0.73,0.56,0.30,-2.23,
4.315,-5.51,4.54,-0.73,0.60,0.31,-2.26,
4.317,-5.51,4.54,-0.73,0.64,0.31,-2.28,
4.317,-5.80,4.83,-0.89,0.64,0.31,-2.28,
4.319,-5.80,4.83,-0.89,0.68,0.33,-2.30,
4.323,-5.80,4.83,-0.89,0.71,0.34,-2.32,
4.323,-6.06,5.15,-1.05,0.71,0.34,-2.32,
4.324,-6.06,5.15,-1.05,0.75,0.35,-2.34,
4.327,-6.06,5.15,-1.05,0.78,0.36,-2.35,
4.328,-6.29,5.46,-1.21,0.78,0.36,-2.35,
4.329,-6.29,5.46,-1.21,0.81,0.38,-2.37,
4.332,-6.29,5.46,-1.21,0.83,0.40,-2.39,
4.332,-6.49,5.75,-1.37,0.83,0.40,-2.39,
4.334,-6.49,5.75,-1.37,0.86,0.41,-2.40,
4.337,-6.49,5.75,-1.37,0.88,0.43,-2.41,
4.337,-6.70,6.03,-1.51,0.88,0.43,-2.41,
4.34,-6.70,6.03,-1.51,0.90,0.45,-2.42,
4.342,-6.70,6.03,-1.51,0.92,0.46,-2.43,
4.343,-6.94,6.30,-1.63,0.92,0.46,-2.43,
4.345,-6.94,6.30,-1.63,0.94,0.48,-2.44,
4.347,-6.94,6.30,-1.63,0.96,0.50,-2.45,
4.347,-7.26,6.55,-1.75,0.96,0.50,-2.45,
4.349,-7.26,6.55,-1.75,0.97,0.52,-2.45,
4.352,-7.63,6.80,-1.85,0.97,0.52,-2.45,
4.352,-7.63,6.80,-1.85,0.99,0.55,-2.44,
4.354,-7.63,6.80,-1.85,1.01,0.57,-2.44,
4.357,-7.63,6.80,-1.85,1.03,0.59,-2.43,
4.357,-7.96,7.07,-1.93,1.03,0.59,-2.43,
4.359,-7.96,7.07,-1.93,1.04,0.61,-2.41,
4.362,-8.34,7.35,-1.98,1.04,0.61,-2.41,
4.363,-8.34,7.35,-1.98,1.06,0.63,-2.39,
4.364,-8.34,7.35,-1.98,1.08,0.65,-2.37,
4.367,-8.34,7.35,-1.98,1.10,0.67,-2.34,
4.367,-8.69,7.65,-2.03,1.10,0.67,-2.34,
4.369,-8.69,7.65,-2.03,1.12,0.70,-2.30,
4.372,-8.69,7.65,-2.03,1.15,0.72,-2.27,
4.372,-8.98,7.95,-2.06,1.15,0.72,-2.27,
4.401,-8.98,7.95,-2.06,1.17,0.75,-2.22,
4.402,-8.98,7.95,-2.06,1.20,0.79,-2.18,
4.402,-9.23,8.23,-2.11,1.20,0.79,-2.18,
4.402,-9.23,8.23,-2.11,1.23,0.82,-2.12,
4.402,-9.43,8.52,-2.17,1.23,0.82,-2.12,
4.403,-9.43,8.52,-2.17,1.25,0.86,-2.07,
4.403,-9.43,8.52,-2.17,1.28,0.91,-2.00,
4.403,-9.62,8.82,-2.24,1.28,0.91,-2.00,
4.403,-9.62,8.82,-2.24,1.31,0.96,-1.93,
4.403,-9.62,8.82,-2.24,1.33,1.01,-1.86,
4.404,-9.62,8.82,-2.24,1.36,1.07,-1.78,
4.404,-9.85,9.07,-2.37,1.36,1.07,-1.78,
4.404,-9.85,9.07,-2.37,1.38,1.13,-1.69,
4.404,-9.85,9.07,-2.37,1.40,1.20,-1.60,
4.405,-10.14,9.22,-2.62,1.40,1.20,-1.60,
4.405,-10.14,9.22,-2.62,1.41,1.28,-1.49,
4.405,-10.14,9.22,-2.62,1.41,1.36,-1.39,
4.406,-10.44,9.23,-2.95,1.41,1.36,-1.39,
4.406,-10.44,9.23,-2.95,1.41,1.46,-1.27,
4.406,-10.44,9.23,-2.95,1.41,1.55,-1.16,
4.407,-10.82,9.00,-3.31,1.41,1.55,-1.16,
4.412,-10.82,9.00,-3.31,1.40,1.63,-1.04,
4.414,-10.82,9.00,-3.31,1.38,1.72,-0.93,
4.414,-11.32,8.48,-3.65,1.38,1.72,-0.93,
4.415,-11.32,8.48,-3.65,1.37,1.80,-0.82,
4.416,-11.32,8.48,-3.65,1.34,1.87,-0.71,
4.417,-11.83,7.62,-3.96,1.34,1.87,-0.71,
4.419,-11.83,7.62,-3.96,1.31,1.94,-0.61,
4.422,-11.83,7.62,-3.96,1.28,2.00,-0.52,
4.423,-12.36,6.61,-4.24,1.28,2.00,-0.52,
4.425,-12.36,6.61,-4.24,1.23,2.07,-0.43,
4.443,-12.36,6.61,-4.24,1.18,2.13,-0.34,
4.444,-12.91,5.57,-4.51,1.18,2.13,-0.34,
4.444,-12.91,5.57,-4.51,1.13,2.19,-0.26,
4.445,-12.91,5.57,-4.51,1.06,2.27,-0.18,
4.445,-13.48,4.51,-4.85,1.06,2.27,-0.18,
4.445,-13.48,4.51,-4.85,0.98,2.34,-0.11,
4.445,-14.05,3.46,-5.18,0.98,2.34,-0.11,
4.446,-14.05,3.46,-5.18,0.90,2.42,-0.04,
4.446,-14.05,3.46,-5.18,0.80,2.50,0.01,
4.446,-14.70,2.38,-5.39,0.80,2.50,0.01,
4.446,-14.70,2.38,-5.39,0.70,2.59,0.05,
4.446,-14.70,2.38,-5.39,0.60,2.67,0.09,
4.446,-15.32,1.40,-5.39,0.60,2.67,0.09,
4.447,-15.32,1.40,-5.39,0.49,2.75,0.12,
4.449,-15.32,1.40,-5.39,0.38,2.84,0.15,
4.451,-15.32,1.40,-5.39,0.28,2.93,0.17,
4.451,-15.97,0.61,-5.19,0.28,2.93,0.17,
4.453,-15.97,0.61,-5.19,0.16,3.02,0.19,
4.456,-15.97,0.61,-5.19,0.06,3.12,0.20,
4.456,-16.73,0.13,-4.81,0.06,3.12,0.20,
4.458,-16.73,0.13,-4.81,-0.05,3.22,0.22,
4.461,-17.54,-0.12,-4.23,-0.05,3.22,0.22,
4.462,-17.54,-0.12,-4.23,-0.15,3.33,0.24,
4.463,-17.54,-0.12,-4.23,-0.25,3.44,0.27,
4.466,-18.50,-0.23,-3.54,-0.25,3.44,0.27,
4.466,-18.50,-0.23,-3.54,-0.34,3.55,0.30,
4.469,-18.50,-0.23,-3.54,-0.44,3.67,0.34,
4.472,-19.63,-0.28,-2.72,-0.44,3.67,0.34,
4.472,-19.63,-0.28,-2.72,-0.52,3.79,0.40,
4.474,-19.63,-0.28,-2.72,-0.61,3.91,0.46,
4.478,-19.63,-0.28,-2.72,-0.69,4.02,0.54,
4.479,-20.82,-0.40,-1.82,-0.69,4.02,0.54,
4.48,-20.82,-0.40,-1.82,-0.76,4.12,0.63,
4.481,-20.82,-0.40,-1.82,-0.83,4.21,0.73,
4.481,-22.07,-0.62,-0.77,-0.83,4.21,0.73,
4.483,-22.07,-0.62,-0.77,-0.90,4.29,0.84,
4.487,-22.07,-0.62,-0.77,-0.95,4.35,0.96,
4.487,-23.25,-0.83,0.40,-0.95,4.35,0.96,
4.488,-23.25,-0.83,0.40,-1.00,4.40,1.10,
4.491,-23.25,-0.83,0.40,-1.04,4.42,1.24,
4.492,-24.36,-1.02,1.68,-1.04,4.42,1.24,
4.5,-24.36,-1.02,1.68,-1.07,4.42,1.40,
4.501,-24.36,-1.02,1.68,-1.09,4.41,1.57,
4.502,-25.25,-1.15,3.00,-1.09,4.41,1.57,
4.502,-25.25,-1.15,3.00,-1.09,4.37,1.75,
4.502,-25.25,-1.15,3.00,-1.09,4.31,1.94,
4.503,-25.86,-1.23,4.30,-1.09,4.31,1.94,
4.503,-25.86,-1.23,4.30,-1.08,4.24,2.14,
4.505,-25.86,-1.23,4.30,-1.06,4.16,2.36,
4.506,-26.18,-1.27,5.48,-1.06,4.16,2.36,
4.508,-26.18,-1.27,5.48,-1.04,4.06,2.58,
4.512,-26.21,-1.33,6.48,-1.04,4.06,2.58,
4.514,-26.21,-1.33,6.48,-1.00,3.95,2.81,
4.514,-26.21,-1.33,6.48,-0.97,3.83,3.05,
4.515,-25.95,-1.44,7.21,-0.97,3.83,3.05,
4.516,-25.95,-1.44,7.21,-0.93,3.70,3.30,
4.518,-25.95,-1.44,7.21,-0.89,3.56,3.56,
4.52,-25.95,-1.44,7.21,-0.86,3.41,3.81,
4.521,-25.37,-1.66,7.60,-0.86,3.41,3.81,
4.523,-25.37,-1.66,7.60,-0.83,3.25,4.06,
4.525,-25.37,-1.66,7.60,-0.82,3.09,4.31,
4.525,-24.42,-2.02,7.72,-0.82,3.09,4.31,
4.529,-24.42,-2.02,7.72,-0.81,2.92,4.55,
4.53,-23.18,-2.59,7.60,-0.81,2.92,4.55,
4.531,-23.18,-2.59,7.60,-0.81,2.74,4.79,
4.533,-23.18,-2.59,7.60,-0.82,2.57,5.00,
4.535,-21.81,-3.28,7.33,-0.82,2.57,5.00,
4.535,-21.81,-3.28,7.33,-0.85,2.40,5.21,
4.537,-21.81,-3.28,7.33,-0.87,2.22,5.41,
4.557,-20.39,-4.11,7.05,-0.87,2.22,5.41,
4.557,-20.39,-4.11,7.05,-0.91,2.05,5.59,
4.558,-20.39,-4.11,7.05,-0.95,1.87,5.75,
4.558,-20.39,-4.11,7.05,-1.00,1.69,5.90,
4.559,-18.96,-5.01,6.72,-1.00,1.69,5.90,
4.559,-18.96,-5.01,6.72,-1.04,1.52,6.03,
4.559,-17.53,-5.99,6.38,-1.04,1.52,6.03,
4.56,-17.53,-5.99,6.38,-1.10,1.35,6.15,
4.56,-17.53,-5.99,6.38,-1.15,1.18,6.25,
4.561,-17.53,-5.99,6.38,-1.20,1.03,6.33,
4.561,-16.15,-6.97,6.03,-1.20,1.03,6.33,
4.562,-16.15,-6.97,6.03,-1.25,0.88,6.40,
4.562,-14.86,-7.87,5.76,-1.25,0.88,6.40,
4.563,-14.86,-7.87,5.76,-1.31,0.75,6.45,
4.564,-14.86,-7.87,5.76,-1.36,0.62,6.50,
4.566,-14.86,-7.87,5.76,-1.40,0.51,6.52,
4.567,-13.67,-8.71,5.52,-1.40,0.51,6.52,
4.568,-13.67,-8.71,5.52,-1.45,0.42,6.54,
4.57,-12.55,-9.43,5.31,-1.45,0.42,6.54,
4.571,-12.55,-9.43,5.31,-1.49,0.34,6.55,
4.572,-12.55,-9.43,5.31,-1.53,0.27,6.55,
4.575,-12.55,-9.43,5.31,-1.57,0.22,6.54,
4.575,-11.41,-10.03,5.15,-1.57,0.22,6.54,
4.577,-11.41,-10.03,5.15,-1.60,0.19,6.52,
4.58,-11.41,-10.03,5.15,-1.63,0.17,6.49,
4.58,-10.32,-10.40,5.10,-1.63,0.17,6.49,
4.583,-10.32,-10.40,5.10,-1.66,0.16,6.46,
4.585,-10.32,-10.40,5.10,-1.67,0.17,6.42,
4.585,-9.31,-10.55,5.13,-1.67,0.17,6.42,
4.588,-9.31,-10.55,5.13,-1.68,0.19,6.38,
4.59,-9.31,-10.55,5.13,-1.68,0.21,6.34,
4.59,-8.43,-10.54,5.34,-1.68,0.21,6.34,
4.593,-8.43,-10.54,5.34,-1.67,0.24,6.30,
4.596,-7.64,-10.42,5.70,-1.67,0.24,6.30,
4.597,-7.64,-10.42,5.70,-1.65,0.28,6.26,
4.597,-7.64,-10.42,5.70,-1.62,0.33,6.23,
4.6,-7.64,-10.42,5.70,-1.58,0.38,6.20,
4.6,-6.97,-10.20,6.15,-1.58,0.38,6.20,
4.605,-6.47,-9.97,6.65,-1.58,0.38,6.20,
4.619,-6.11,-9.73,7.19,-1.58,0.38,6.20,
4.619,-6.11,-9.73,7.19,-1.52,0.44,6.17,
4.619,-6.11,-9.73,7.19,-1.46,0.50,6.15,
4.619,-6.11,-9.73,7.19,-1.38,0.56,6.14,
4.62,-6.11,-9.73,7.19,-1.30,0.62,6.14,
4.62,-6.11,-9.73,7.19,-1.21,0.69,6.15,
4.62,-5.91,-9.57,7.66,-1.21,0.69,6.15,
4.62,-5.91,-9.57,7.66,-1.11,0.74,6.16,
4.62,-5.91,-9.57,7.66,-1.02,0.80,6.18,
4.62,-5.76,-9.51,8.00,-1.02,0.80,6.18,
4.62,-5.76,-9.51,8.00,-0.92,0.86,6.21,
4.622,-5.76,-9.51,8.00,-0.82,0.92,6.25,
4.625,-5.59,-9.57,8.24,-0.82,0.92,6.25,
4.625,-5.59,-9.57,8.24,-0.72,0.98,6.29,
4.628,-5.59,-9.57,8.24,-0.62,1.04,6.33,
4.629,-5.37,-9.72,8.47,-0.62,1.04,6.33,
4.63,-5.37,-9.72,8.47,-0.53,1.10,6.38,
4.632,-5.37,-9.72,8.47,-0.43,1.15,6.42,
4.634,-5.02,-9.93,8.68,-0.43,1.15,6.42,
4.635,-5.02,-9.93,8.68,-0.34,1.20,6.46,
4.637,-5.02,-9.93,8.68,-0.25,1.24,6.51,
4.639,-5.02,-9.93,8.68,-0.15,1.28,6.55,
4.639,-4.61,-10.16,8.84,-0.15,1.28,6.55,
4.642,-4.61,-10.16,8.84,-0.05,1.32,6.58,
4.645,-4.19,-10.45,9.01,-0.05,1.32,6.58,
4.645,-4.19,-10.45,9.01,0.04,1.36,6.61,
4.647,-4.19,-10.45,9.01,0.14,1.38,6.64,
4.649,-3.67,-10.81,9.19,0.14,1.38,6.64,
4.65,-3.67,-10.81,9.19,0.24,1.41,6.66,
4.652,-3.67,-10.81,9.19,0.34,1.42,6.67,
4.654,-3.67,-10.81,9.19,0.44,1.43,6.67,
4.654,-3.11,-11.22,9.36,0.44,1.43,6.67,
4.656,-3.11,-11.22,9.36,0.55,1.44,6.67,
4.66,-3.11,-11.22,9.36,0.65,1.44,6.65,
4.66,-2.44,-11.61,9.45,0.65,1.44,6.65,
4.662,-2.44,-11.61,9.45,0.75,1.44,6.63,
4.664,-1.70,-11.93,9.46,0.75,1.44,6.63,
4.664,-1.70,-11.93,9.46,0.85,1.44,6.59,
4.667,-1.70,-11.93,9.46,0.94,1.44,6.55,
4.669,-0.91,-12.15,9.38,0.94,1.44,6.55,
4.67,-0.91,-12.15,9.38,1.03,1.44,6.50,
4.671,-0.91,-12.15,9.38,1.12,1.43,6.44,
4.674,-0.08,-12.26,9.23,1.12,1.43,6.44,
4.674,-0.08,-12.26,9.23,1.20,1.42,6.37,
4.678,-0.08,-12.26,9.23,1.27,1.41,6.30,
4.68,0.77,-12.26,9.03,1.27,1.41,6.30,
4.681,0.77,-12.26,9.03,1.34,1.39,6.22,
4.682,0.77,-12.26,9.03,1.40,1.37,6.13,
4.684,1.60,-12.16,8.77,1.40,1.37,6.13,
4.684,1.60,-12.16,8.77,1.44,1.34,6.04,
4.686,1.60,-12.16,8.77,1.48,1.32,5.94,
4.689,1.60,-12.16,8.77,1.52,1.29,5.84,
4.689,2.36,-11.98,8.45,1.52,1.29,5.84,
4.691,2.36,-11.98,8.45,1.54,1.25,5.73,
4.698,2.36,-11.98,8.45,1.56,1.21,5.62,
4.699,3.05,-11.75,8.13,1.56,1.21,5.62,
4.7,3.05,-11.75,8.13,1.57,1.17,5.51,
4.7,3.61,-11.49,7.87,1.57,1.17,5.51,
4.7,3.61,-11.49,7.87,1.57,1.12,5.39,
4.702,3.61,-11.49,7.87,1.57,1.08,5.28,
4.706,3.61,-11.49,7.87,1.57,1.02,5.16,
4.73,4.05,-11.19,7.59,1.57,1.02,5.16,
4.73,4.05,-11.19,7.59,1.56,0.96,5.05,
4.73,4.40,-10.86,7.36,1.56,0.96,5.05,
4.731,4.40,-10.86,7.36,1.54,0.91,4.94,
4.731,4.40,-10.86,7.36,1.52,0.85,4.83,
4.731,4.40,-10.86,7.36,1.50,0.79,4.73,
4.732,4.68,-10.55,7.10,1.50,0.79,4.73,
4.732,4.68,-10.55,7.10,1.47,0.72,4.62,
4.732,4.68,-10.55,7.10,1.45,0.66,4.53,
4.732,4.86,-10.27,6.83,1.45,0.66,4.53,
4.732,4.86,-10.27,6.83,1.41,0.59,4.43,
4.733,4.86,-10.27,6.83,1.38,0.52,4.34,
4.733,4.96,-9.99,6.58,1.38,0.52,4.34,
4.733,4.96,-9.99,6.58,1.34,0.45,4.26,
4.733,4.96,-9.99,6.58,1.30,0.38,4.18,
4.734,5.05,-9.73,6.34,1.30,0.38,4.18,
4.734,5.05,-9.73,6.34,1.26,0.31,4.10,
4.734,5.05,-9.73,6.34,1.22,0.24,4.03,
4.734,5.09,-9.51,6.10,1.22,0.24,4.03,
4.736,5.09,-9.51,6.10,1.18,0.17,3.96,
4.739,5.09,-9.51,6.10,1.14,0.11,3.90,
4.739,5.11,-9.30,5.86,1.14,0.11,3.90,
4.741,5.11,-9.30,5.86,1.09,0.04,3.84,
4.744,5.16,-9.12,5.65,1.09,0.04,3.84,
4.748,5.16,-9.12,5.65,1.05,-0.02,3.79,
4.749,5.16,-9.12,5.65,1.01,-0.08,3.73,
4.749,5.16,-9.12,5.65,0.97,-0.14,3.68,
4.749,5.21,-8.98,5.46,0.97,-0.14,3.68,
4.752,5.21,-8.98,5.46,0.93,-0.19,3.64,
4.754,5.23,-8.90,5.25,0.93,-0.19,3.64,
4.754,5.23,-8.90,5.25,0.89,-0.23,3.59,
4.756,5.23,-8.90,5.25,0.85,-0.28,3.55,
4.759,5.23,-8.90,5.25,0.82,-0.32,3.51,
4.759,5.30,-8.82,5.05,0.82,-0.32,3.51,
4.762,5.30,-8.82,5.05,0.78,-0.35,3.47,
4.763,5.30,-8.82,5.05,0.74,-0.39,3.43,
4.763,5.43,-8.81,4.86,0.74,-0.39,3.43,
4.766,5.43,-8.81,4.86,0.70,-0.42,3.38,
4.768,5.43,-8.81,4.86,0.66,-0.45,3.34,
4.768,5.60,-8.87,4.63,0.66,-0.45,3.34,
4.771,5.60,-8.87,4.63,0.63,-0.47,3.28,
4.774,5.60,-8.87,4.63,0.59,-0.48,3.23,
4.775,5.83,-8.94,4.40,0.59,-0.48,3.23,
4.776,5.83,-8.94,4.40,0.55,-0.50,3.17,
4.779,5.83,-8.94,4.40,0.52,-0.51,3.11,
4.779,6.02,-9.03,4.14,0.52,-0.51,3.11,
4.781,6.02,-9.03,4.14,0.48,-0.51,3.05,
4.783,6.02,-9.03,4.14,0.44,-0.52,2.99,
4.783,6.20,-9.12,3.96,0.44,-0.52,2.99,
4.786,6.20,-9.12,3.96,0.40,-0.52,2.92,
4.788,6.20,-9.12,3.96,0.35,-0.52,2.85,
4.788,6.38,-9.17,3.77,0.35,-0.52,2.85,
4.79,6.38,-9.17,3.77,0.31,-0.52,2.78,
4.795,6.38,-9.17,3.77,0.27,-0.52,2.71,
4.802,6.57,-9.18,3.65,0.27,-0.52,2.71,
4.802,6.57,-9.18,3.65,0.22,-0.51,2.64,
4.803,6.70,-9.16,3.56,0.22,-0.51,2.64,
4.803,6.70,-9.16,3.56,0.18,-0.51,2.56,
4.803,6.70,-9.16,3.56,0.13,-0.50,2.49,
4.804,6.71,-9.18,3.46,0.13,-0.50,2.49,
4.804,6.71,-9.18,3.46,0.09,-0.48,2.42,
4.806,6.71,-9.18,3.46,0.04,-0.47,2.34,
4.808,6.71,-9.18,3.46,-0.00,-0.45,2.27,
4.809,6.67,-9.24,3.42,-0.00,-0.45,2.27,
4.828,6.67,-9.24,3.42,-0.05,-0.44,2.19,
4.828,6.67,-9.24,3.42,-0.09,-0.42,2.12,
4.829,6.55,-9.36,3.41,-0.09,-0.42,2.12,
4.829,6.55,-9.36,3.41,-0.13,-0.41,2.05,
4.829,6.55,-9.36,3.41,-0.17,-0.40,1.98,
4.83,6.39,-9.48,3.47,-0.17,-0.40,1.98,
4.83,6.39,-9.48,3.47,-0.21,-0.39,1.92,
4.83,6.21,-9.56,3.58,-0.21,-0.39,1.92,
4.83,6.21,-9.56,3.58,-0.24,-0.38,1.86,
4.831,6.21,-9.56,3.58,-0.27,-0.37,1.80,
4.831,6.21,-9.56,3.58,-0.30,-0.37,1.74,
4.831,6.04,-9.60,3.75,-0.30,-0.37,1.74,
4.832,6.04,-9.60,3.75,-0.32,-0.37,1.68,
4.837,5.86,-9.63,3.93,-0.32,-0.37,1.68,
4.838,5.86,-9.63,3.93,-0.34,-0.36,1.63,
4.838,5.86,-9.63,3.93,-0.36,-0.36,1.58,
4.838,5.67,-9.72,4.12,-0.36,-0.36,1.58,
4.839,5.67,-9.72,4.12,-0.37,-0.36,1.52,
4.84,5.67,-9.72,4.12,-0.37,-0.36,1.47,
4.843,5.49,-9.82,4.30,-0.37,-0.36,1.47,
4.844,5.49,-9.82,4.30,-0.38,-0.36,1.42,
4.846,5.49,-9.82,4.30,-0.38,-0.36,1.37,
4.848,5.37,-9.99,4.45,-0.38,-0.36,1.37,
4.848,5.37,-9.99,4.45,-0.38,-0.36,1.32,
4.85,5.37,-9.99,4.45,-0.37,-0.37,1.26,
4.853,5.25,-10.16,4.58,-0.37,-0.37,1.26,
4.853,5.25,-10.16,4.58,-0.37,-0.37,1.21,
4.856,5.25,-10.16,4.58,-0.36,-0.37,1.16,
4.857,5.14,-10.35,4.66,-0.36,-0.37,1.16,
4.858,5.14,-10.35,4.66,-0.35,-0.37,1.10,
4.861,5.14,-10.35,4.66,-0.34,-0.37,1.04,
4.864,5.03,-10.57,4.68,-0.34,-0.37,1.04,
4.864,5.03,-10.57,4.68,-0.32,-0.37,0.98,
4.865,5.03,-10.57,4.68,-0.31,-0.36,0.93,
4.868,4.93,-10.85,4.66,-0.31,-0.36,0.93,
4.868,4.93,-10.85,4.66,-0.29,-0.35,0.86,
4.888,4.93,-10.85,4.66,-0.28,-0.34,0.80,
4.889,4.93,-10.85,4.66,-0.26,-0.33,0.73,
4.889,4.82,-11.20,4.59,-0.26,-0.33,0.73,
4.889,4.82,-11.20,4.59,-0.25,-0.32,0.66,
4.889,4.80,-11.58,4.53,-0.25,-0.32,0.66,
4.89,4.80,-11.58,4.53,-0.23,-0.31,0.58,
4.89,4.80,-11.58,4.53,-0.21,-0.30,0.49,
4.89,4.80,-11.58,4.53,-0.19,-0.29,0.40,
4.89,4.96,-12.00,4.49,-0.19,-0.29,0.40,
4.89,4.96,-12.00,4.49,-0.17,-0.28,0.30,
4.891,4.96,-12.00,4.49,-0.15,-0.27,0.19,
4.891,5.24,-12.28,4.51,-0.15,-0.27,0.19,
4.891,5.24,-12.28,4.51,-0.12,-0.25,0.07,
4.893,5.24,-12.28,4.51,-0.08,-0.23,-0.05,
4.896,5.58,-12.34,4.60,-0.08,-0.23,-0.05,
4.897,5.58,-12.34,4.60,-0.04,-0.21,-0.18,
4.898,5.92,-12.31,4.71,-0.04,-0.21,-0.18,
4.898,5.92,-12.31,4.71,-0.00,-0.19,-0.32,
4.9,5.92,-12.31,4.71,0.05,-0.17,-0.46,
4.902,5.92,-12.31,4.71,0.10,-0.15,-0.61,
4.902,6.17,-12.16,4.85,0.10,-0.15,-0.61,
4.905,6.17,-12.16,4.85,0.16,-0.13,-0.76,
4.907,6.17,-12.16,4.85,0.22,-0.10,-0.91,
4.907,6.32,-12.03,5.00,0.22,-0.10,-0.91,
4.909,6.32,-12.03,5.00,0.29,-0.08,-1.06,
4.912,6.32,-12.03,5.00,0.36,-0.06,-1.21,
