
time,ax,ay,az,wx,wy,wz,
0.002,-0.16,-0.21,0.31,0.02,-0.09,0.01,
0.003,-0.12,-0.35,0.29,0.02,-0.09,0.01,
0.003,-0.12,-0.35,0.29,0.02,-0.09,0.01,
0.003,-0.12,-0.35,0.29,0.01,-0.09,0.01,
0.003,-0.12,-0.26,0.32,0.01,-0.09,0.01,
0.004,-0.12,-0.26,0.32,0.01,-0.10,0.01,
0.006,-0.12,-0.26,0.32,0.01,-0.09,0.02,
0.006,-0.21,-0.13,0.23,0.01,-0.09,0.02,
0.007,-0.21,-0.13,0.23,0.02,-0.09,0.01,
0.01,-0.21,-0.13,0.23,0.02,-0.09,0.02,
0.01,-0.33,-0.04,0.18,0.02,-0.09,0.02,
0.019,-0.33,-0.04,0.18,0.01,-0.09,0.02,
0.019,-0.33,-0.04,0.18,0.01,-0.09,0.02,
0.02,-0.37,-0.00,0.17,0.01,-0.09,0.02,
0.02,-0.37,-0.00,0.17,0.01,-0.09,0.03,
0.02,-0.37,-0.00,0.17,0.01,-0.10,0.03,
0.02,-0.38,0.03,0.21,0.01,-0.10,0.03,
0.022,-0.38,0.03,0.21,0.01,-0.11,0.03,
0.025,-0.38,0.03,0.21,0.01,-0.11,0.03,
0.025,-0.34,0.01,0.15,0.01,-0.11,0.03,
0.028,-0.34,0.01,0.15,0.01,-0.11,0.03,
0.03,-0.34,0.01,0.15,0.01,-0.11,0.04,
0.03,-0.27,0.01,0.08,0.01,-0.11,0.04,
0.036,-0.27,0.01,0.08,0.01,-0.11,0.04,
0.037,-0.16,0.04,0.02,0.01,-0.11,0.04,
0.037,-0.16,0.04,0.02,0.01,-0.10,0.04,
0.038,-0.16,0.04,0.02,0.00,-0.09,0.04,
0.04,-0.16,0.04,0.02,0.01,-0.08,0.04,
0.04,-0.09,0.03,0.00,0.01,-0.08,0.04,
0.042,-0.09,0.03,0.00,0.00,-0.07,0.04,
0.046,-0.04,-0.02,-0.06,0.00,-0.07,0.04,
0.047,-0.04,-0.02,-0.06,0.00,-0.06,0.04,
0.047,-0.04,-0.02,-0.06,-0.00,-0.04,0.04,
0.05,-0.04,-0.02,-0.06,-0.00,-0.04,0.04,
0.05,-0.00,0.03,0.03,-0.00,-0.04,0.04,
0.052,-0.00,0.03,0.03,-0.00,-0.03,0.04,
0.055,-0.00,0.03,0.03,-0.00,-0.02,0.04,
0.055,-0.01,0.02,0.10,-0.00,-0.02,0.04,
0.058,-0.01,0.02,0.10,-0.00,-0.02,0.04,
0.061,-0.01,0.02,0.10,-0.00,-0.01,0.03,
0.061,0.04,-0.06,0.12,-0.00,-0.01,0.03,
0.063,0.04,-0.06,0.12,-0.00,-0.01,0.03,
0.065,0.04,-0.06,0.12,-0.00,-0.00,0.02,
0.065,-0.02,-0.08,0.14,-0.00,-0.00,0.02,
0.067,-0.02,-0.08,0.14,-0.00,-0.00,0.02,
0.07,-0.02,-0.08,0.14,-0.00,-0.01,0.02,
0.071,-0.21,-0.02,0.23,-0.00,-0.01,0.02,
0.072,-0.21,-0.02,0.23,-0.00,-0.02,0.02,
0.075,-0.26,0.04,0.31,-0.00,-0.02,0.02,
0.075,-0.26,0.04,0.31,-0.00,-0.02,0.02,
0.078,-0.26,0.04,0.31,-0.00,-0.02,0.02,
0.081,-0.26,0.04,0.31,-0.00,-0.02,0.02,
0.081,-0.16,0.03,0.34,-0.00,-0.02,0.02,
0.082,-0.16,0.03,0.34,0.00,-0.02,0.02,
0.085,-0.16,0.03,0.34,0.01,-0.02,0.02,
0.085,-0.07,-0.02,0.28,0.01,-0.02,0.02,
0.087,-0.07,-0.02,0.28,0.01,-0.01,0.02,
0.089,-0.07,-0.02,0.28,0.01,-0.01,0.02,
0.09,-0.12,0.04,0.27,0.01,-0.01,0.02,
0.092,-0.12,0.04,0.27,0.01,-0.01,0.02,
0.103,-0.20,0.07,0.28,0.01,-0.01,0.02,
0.103,-0.20,0.07,0.28,0.01,-0.00,0.03,
0.104,-0.20,0.07,0.28,0.01,-0.00,0.03,
0.104,-0.20,0.07,0.28,0.02,0.00,0.03,
0.104,-0.26,0.02,0.27,0.02,0.00,0.03,
0.104,-0.26,0.02,0.27,0.02,0.00,0.03,
0.105,-0.26,0.02,0.27,0.01,0.00,0.03,
0.105,-0.23,-0.08,0.26,0.01,0.00,0.03,
0.107,-0.23,-0.08,0.26,0.02,0.01,0.03,
0.109,-0.23,-0.08,0.26,0.02,0.01,0.03,
0.11,-0.19,-0.12,0.28,0.02,0.01,0.03,
0.112,-0.19,-0.12,0.28,0.02,0.01,0.03,
0.114,-0.19,-0.12,0.28,0.02,0.01,0.03,
0.115,-0.18,-0.09,0.30,0.02,0.01,0.03,
0.117,-0.18,-0.09,0.30,0.02,0.02,0.03,
0.12,-0.18,-0.09,0.30,0.02,0.02,0.03,
0.12,-0.18,-0.07,0.28,0.02,0.02,0.03,
0.122,-0.18,-0.07,0.28,0.02,0.02,0.03,
0.124,-0.18,-0.07,0.28,0.02,0.02,0.03,
0.125,-0.21,-0.09,0.28,0.02,0.02,0.03,
0.126,-0.21,-0.09,0.28,0.02,0.01,0.03,
0.132,-0.21,-0.09,0.28,0.02,0.01,0.04,
0.133,-0.24,-0.10,0.28,0.02,0.01,0.04,
0.133,-0.24,-0.10,0.28,0.02,0.00,0.04,
0.134,-0.24,-0.10,0.28,0.02,-0.00,0.04,
0.135,-0.24,-0.08,0.22,0.02,-0.00,0.04,
0.136,-0.24,-0.08,0.22,0.02,-0.00,0.04,
0.139,-0.24,-0.08,0.22,0.01,-0.01,0.04,
0.139,-0.26,-0.05,0.14,0.01,-0.01,0.04,
0.141,-0.26,-0.05,0.14,0.01,-0.01,0.04,
0.145,-0.26,-0.05,0.14,0.01,-0.02,0.04,
0.145,-0.27,-0.08,0.16,0.01,-0.02,0.04,
0.147,-0.27,-0.08,0.16,0.01,-0.02,0.04,
0.149,-0.27,-0.08,0.16,0.01,-0.03,0.04,
0.149,-0.27,-0.12,0.17,0.01,-0.03,0.04,
0.151,-0.27,-0.12,0.17,0.01,-0.03,0.04,
0.154,-0.27,-0.12,0.17,0.01,-0.03,0.04,
0.154,-0.31,-0.12,0.22,0.01,-0.03,0.04,
0.157,-0.31,-0.12,0.22,0.01,-0.03,0.04,
0.16,-0.31,-0.12,0.22,0.01,-0.03,0.04,
0.16,-0.20,-0.05,0.21,0.01,-0.03,0.04,
0.162,-0.20,-0.05,0.21,0.00,-0.04,0.04,
0.164,-0.20,-0.05,0.21,0.00,-0.04,0.04,
0.165,-0.05,-0.07,0.18,0.00,-0.04,0.04,
0.166,-0.05,-0.07,0.18,-0.00,-0.05,0.03,
0.169,-0.05,-0.07,0.18,-0.00,-0.05,0.03,
0.169,-0.04,-0.04,0.22,-0.00,-0.05,0.03,
0.171,-0.04,-0.04,0.22,-0.00,-0.05,0.03,
0.174,-0.04,-0.04,0.22,-0.01,-0.06,0.03,
0.174,-0.08,0.02,0.20,-0.01,-0.06,0.03,
0.176,-0.08,0.02,0.20,-0.01,-0.06,0.03,
0.18,-0.08,0.02,0.20,-0.01,-0.07,0.03,
0.18,-0.03,0.02,0.27,-0.01,-0.07,0.03,
0.204,-0.03,0.02,0.27,-0.00,-0.06,0.03,
0.204,-0.03,0.02,0.27,0.00,-0.05,0.03,
0.205,0.05,-0.02,0.31,0.00,-0.05,0.03,
0.206,0.05,-0.02,0.31,0.00,-0.05,0.02,
0.206,0.05,-0.02,0.31,0.01,-0.04,0.02,
0.206,0.06,0.00,0.31,0.01,-0.04,0.02,
0.206,0.06,0.00,0.31,0.01,-0.04,0.02,
0.207,0.06,0.00,0.31,0.01,-0.03,0.02,
0.207,0.04,0.04,0.21,0.01,-0.03,0.02,
0.207,0.04,0.04,0.21,0.01,-0.02,0.02,
0.207,0.04,0.04,0.21,0.01,-0.02,0.01,
0.207,-0.07,0.05,0.22,0.01,-0.02,0.01,
0.207,-0.07,0.05,0.22,0.02,-0.02,0.01,
0.207,-0.07,0.05,0.22,0.02,-0.02,0.01,
0.208,-0.10,0.08,0.24,0.02,-0.02,0.01,
0.208,-0.10,0.08,0.24,0.02,-0.02,0.01,
0.208,-0.10,0.08,0.24,0.02,-0.02,0.01,
0.208,-0.11,0.08,0.26,0.02,-0.02,0.01,
0.214,-0.11,0.08,0.26,0.02,-0.02,0.01,
0.214,-0.11,0.08,0.26,0.02,-0.02,0.01,
0.214,-0.11,0.07,0.22,0.02,-0.02,0.01,
0.22,-0.11,0.07,0.22,0.02,-0.01,0.01,
0.22,-0.11,0.07,0.22,0.02,-0.01,0.01,
0.221,-0.11,0.07,0.22,0.02,-0.01,0.00,
0.221,-0.04,0.02,0.19,0.02,-0.01,0.00,
0.223,-0.04,0.02,0.19,0.03,0.00,0.00,
0.224,-0.00,-0.02,0.17,0.03,0.00,0.00,
0.225,-0.00,-0.02,0.17,0.03,0.01,0.00,
0.229,-0.10,-0.01,0.15,0.03,0.01,0.00,
0.229,-0.10,-0.01,0.15,0.03,0.01,0.00,
0.231,-0.10,-0.01,0.15,0.03,0.02,0.00,
0.233,-0.10,-0.01,0.15,0.03,0.02,0.00,
0.233,-0.18,-0.01,0.18,0.03,0.02,0.00,
0.236,-0.18,-0.01,0.18,0.03,0.01,0.00,
0.239,-0.18,-0.01,0.18,0.03,0.01,0.00,
0.24,-0.18,-0.06,0.19,0.03,0.01,0.00,
0.24,-0.18,-0.06,0.19,0.02,0.00,0.00,
0.243,-0.18,-0.06,0.19,0.02,-0.01,-0.00,
0.243,-0.22,-0.05,0.19,0.02,-0.01,-0.00,
0.246,-0.22,-0.05,0.19,0.02,-0.02,-0.00,
0.248,-0.22,-0.05,0.19,0.02,-0.02,-0.00,
0.248,-0.20,-0.03,0.28,0.02,-0.02,-0.00,
0.251,-0.20,-0.03,0.28,0.02,-0.03,-0.00,
0.254,-0.20,-0.03,0.28,0.02,-0.03,0.00,
0.254,-0.25,-0.02,0.31,0.02,-0.03,0.00,
0.256,-0.25,-0.02,0.31,0.02,-0.03,0.01,
0.259,-0.25,-0.02,0.31,0.02,-0.04,0.01,
0.259,-0.32,-0.06,0.29,0.02,-0.04,0.01,
0.26,-0.32,-0.06,0.29,0.02,-0.04,0.01,
0.263,-0.32,-0.06,0.29,0.02,-0.04,0.01,
0.264,-0.31,-0.10,0.27,0.02,-0.04,0.01,
0.265,-0.31,-0.10,0.27,0.03,-0.04,0.01,
0.268,-0.31,-0.10,0.27,0.03,-0.04,0.01,
0.268,-0.36,-0.08,0.20,0.03,-0.04,0.01,
0.27,-0.36,-0.08,0.20,0.02,-0.04,0.02,
0.273,-0.36,-0.08,0.20,0.02,-0.04,0.02,
0.273,-0.37,-0.06,0.21,0.02,-0.04,0.02,
0.275,-0.37,-0.06,0.21,0.02,-0.03,0.02,
0.279,-0.29,-0.04,0.27,0.02,-0.03,0.02,
0.279,-0.29,-0.04,0.27,0.02,-0.04,0.02,
0.281,-0.29,-0.04,0.27,0.02,-0.04,0.02,
0.283,-0.29,-0.04,0.27,0.02,-0.04,0.03,
0.283,-0.23,0.01,0.32,0.02,-0.04,0.03,
0.285,-0.23,0.01,0.32,0.03,-0.04,0.03,
0.288,-0.23,0.01,0.32,0.03,-0.05,0.03,
0.288,-0.10,-0.03,0.26,0.03,-0.05,0.03,
0.29,-0.10,-0.03,0.26,0.03,-0.05,0.03,
0.293,-0.10,-0.03,0.26,0.03,-0.04,0.03,
0.293,-0.08,-0.09,0.21,0.03,-0.04,0.03,
0.302,-0.08,-0.09,0.21,0.03,-0.04,0.03,
0.302,-0.08,-0.09,0.21,0.03,-0.03,0.03,
0.302,-0.05,-0.13,0.16,0.03,-0.03,0.03,
0.302,-0.05,-0.13,0.16,0.03,-0.02,0.02,
0.303,-0.05,-0.13,0.16,0.03,-0.02,0.02,
0.303,-0.03,-0.14,0.09,0.03,-0.02,0.02,
0.305,-0.03,-0.14,0.09,0.03,-0.01,0.02,
0.308,-0.03,-0.14,0.09,0.03,-0.01,0.02,
0.308,-0.04,-0.09,0.18,0.03,-0.01,0.02,
0.31,-0.04,-0.09,0.18,0.03,-0.00,0.02,
0.313,-0.04,-0.09,0.18,0.03,0.00,0.01,
0.313,-0.05,-0.08,0.31,0.03,0.00,0.01,
0.315,-0.05,-0.08,0.31,0.03,0.00,0.01,
0.318,-0.05,-0.08,0.31,0.03,0.00,0.01,
0.318,-0.09,-0.06,0.19,0.03,0.00,0.01,
0.32,-0.09,-0.06,0.19,0.03,0.00,0.01,
0.323,-0.09,-0.06,0.19,0.03,0.00,0.01,
0.323,-0.11,-0.11,0.09,0.03,0.00,0.01,
0.325,-0.11,-0.11,0.09,0.03,0.00,0.01,
0.327,-0.11,-0.11,0.09,0.03,0.00,0.00,
0.328,-0.11,-0.07,0.11,0.03,0.00,0.00,
0.33,-0.11,-0.07,0.11,0.02,0.01,0.00,
0.332,-0.11,-0.07,0.11,0.03,0.02,-0.00,
0.332,-0.11,-0.07,0.07,0.03,0.02,-0.00,
0.335,-0.11,-0.07,0.07,0.03,0.02,0.00,
0.338,-0.11,-0.07,0.07,0.03,0.02,0.00,
0.338,-0.13,-0.04,0.10,0.03,0.02,0.00,
0.34,-0.13,-0.04,0.10,0.02,0.02,0.00,
0.342,-0.13,-0.04,0.10,0.02,0.01,0.01,
0.342,-0.11,-0.07,0.09,0.02,0.01,0.01,
0.346,-0.11,-0.07,0.09,0.02,0.01,0.01,
0.36,-0.22,-0.09,0.13,0.02,0.01,0.01,
0.361,-0.22,-0.09,0.13,0.02,0.01,0.00,
0.362,-0.22,-0.09,0.13,0.01,0.01,0.01,
0.362,-0.22,-0.09,0.13,0.01,0.01,0.01,
0.362,-0.32,-0.10,0.14,0.01,0.01,0.01,
0.362,-0.32,-0.10,0.14,0.01,0.01,0.01,
0.363,-0.32,-0.10,0.14,0.01,-0.00,0.01,
0.363,-0.30,-0.07,0.12,0.01,-0.00,0.01,
0.363,-0.30,-0.07,0.12,0.01,-0.01,0.02,
0.363,-0.30,-0.07,0.12,0.01,-0.02,0.02,
0.364,-0.34,0.03,0.10,0.01,-0.02,0.02,
0.368,-0.34,0.03,0.10,0.01,-0.03,0.02,
0.369,-0.34,0.03,0.10,0.01,-0.03,0.03,
0.369,-0.23,0.14,0.09,0.01,-0.03,0.03,
0.37,-0.23,0.14,0.09,0.00,-0.04,0.03,
0.372,-0.23,0.14,0.09,0.00,-0.04,0.03,
0.372,-0.15,0.12,0.04,0.00,-0.04,0.03,
0.374,-0.15,0.12,0.04,0.00,-0.04,0.03,
0.377,-0.06,0.01,0.08,0.00,-0.04,0.03,
0.377,-0.06,0.01,0.08,0.00,-0.04,0.03,
0.38,-0.06,0.01,0.08,0.00,-0.04,0.03,
0.382,-0.06,0.01,0.08,0.00,-0.03,0.03,
0.382,-0.02,-0.06,0.15,0.00,-0.03,0.03,
0.384,-0.02,-0.06,0.15,0.00,-0.03,0.02,
0.387,-0.02,-0.06,0.15,0.00,-0.02,0.02,
0.387,-0.06,-0.12,0.19,0.00,-0.02,0.02,
0.389,-0.06,-0.12,0.19,0.00,-0.02,0.02,
0.392,-0.06,-0.12,0.19,0.00,-0.02,0.02,
0.392,-0.13,-0.10,0.19,0.00,-0.02,0.02,
0.394,-0.13,-0.10,0.19,0.00,-0.02,0.02,
0.399,-0.13,-0.10,0.19,0.00,-0.02,0.02,
0.399,-0.14,-0.10,0.21,0.00,-0.02,0.02,
0.399,-0.14,-0.10,0.21,0.00,-0.02,0.02,
0.402,-0.06,-0.08,0.28,0.00,-0.02,0.02,
0.402,-0.06,-0.08,0.28,0.00,-0.02,0.02,
0.404,-0.06,-0.08,0.28,0.01,-0.01,0.02,
0.407,-0.06,-0.08,0.28,0.01,-0.01,0.01,
0.407,-0.02,-0.08,0.33,0.01,-0.01,0.01,
0.409,-0.02,-0.08,0.33,0.01,-0.01,0.01,
0.413,-0.02,-0.08,0.33,0.01,-0.01,0.01,
0.413,-0.01,-0.02,0.20,0.01,-0.01,0.01,
0.414,-0.01,-0.02,0.20,0.01,-0.01,0.01,
0.417,-0.04,-0.02,0.18,0.01,-0.01,0.01,
0.417,-0.04,-0.02,0.18,0.01,-0.01,0.01,
0.419,-0.04,-0.02,0.18,0.01,-0.01,0.01,
0.421,-0.04,-0.02,0.18,0.01,-0.01,0.01,
0.422,-0.04,-0.07,0.15,0.01,-0.01,0.01,
0.424,-0.04,-0.07,0.15,0.01,-0.01,0.00,
0.427,-0.04,-0.07,0.15,0.01,-0.02,0.01,
0.427,-0.16,-0.03,0.31,0.01,-0.02,0.01,
0.43,-0.16,-0.03,0.31,0.01,-0.01,0.01,
0.431,-0.16,-0.03,0.31,0.01,-0.01,0.01,
0.432,-0.15,-0.04,0.28,0.01,-0.01,0.01,
0.434,-0.15,-0.04,0.28,0.02,-0.01,0.01,
0.437,-0.04,-0.09,0.16,0.02,-0.01,0.01,
0.437,-0.04,-0.09,0.16,0.01,-0.01,0.01,
0.439,-0.04,-0.09,0.16,0.01,-0.01,0.01,
0.441,-0.04,-0.09,0.16,0.01,-0.01,0.00,
0.442,-0.08,-0.09,0.10,0.01,-0.01,0.00,
0.444,-0.08,-0.09,0.10,0.01,-0.00,0.00,
0.448,-0.08,-0.09,0.10,0.01,0.00,0.00,
0.449,-0.16,-0.09,0.14,0.01,0.00,0.00,
0.449,-0.16,-0.09,0.14,0.01,0.00,0.00,
0.451,-0.16,-0.09,0.14,0.01,0.01,0.01,
0.452,-0.15,-0.03,0.13,0.01,0.01,0.01,
0.455,-0.15,-0.03,0.13,0.01,0.01,0.01,
0.457,-0.15,-0.03,0.13,0.01,0.01,0.00,
0.457,-0.06,-0.01,0.05,0.01,0.01,0.00,
0.459,-0.06,-0.01,0.05,0.01,0.01,0.00,
0.462,-0.06,-0.01,0.05,0.01,0.00,0.00,
0.462,-0.07,-0.01,-0.03,0.01,0.00,0.00,
0.464,-0.07,-0.01,-0.03,0.00,0.00,0.00,
0.466,-0.11,-0.04,0.04,0.00,0.00,0.00,
0.467,-0.11,-0.04,0.04,0.00,0.01,-0.00,
0.469,-0.11,-0.04,0.04,0.00,0.01,-0.00,
0.471,-0.16,-0.04,0.18,0.00,0.01,-0.00,
0.471,-0.16,-0.04,0.18,0.00,0.01,-0.00,
0.473,-0.16,-0.04,0.18,0.00,0.01,-0.00,
0.476,-0.16,-0.04,0.18,0.00,0.01,-0.00,
0.476,-0.15,-0.04,0.21,0.00,0.01,-0.00,
0.478,-0.15,-0.04,0.21,0.00,0.01,0.00,
0.481,-0.15,-0.04,0.21,0.00,0.01,0.00,
0.481,-0.14,-0.04,0.19,0.00,0.01,0.00,
0.483,-0.14,-0.04,0.19,0.00,0.01,0.00,
0.487,-0.20,-0.05,0.05,0.00,0.01,0.00,
0.487,-0.20,-0.05,0.05,-0.00,0.00,0.00,
0.489,-0.20,-0.05,0.05,-0.01,-0.00,0.00,
0.492,-0.20,-0.05,0.05,-0.01,-0.00,0.00,
0.492,-0.27,-0.05,0.15,-0.01,-0.00,0.00,
0.494,-0.27,-0.05,0.15,-0.01,-0.00,0.01,
0.502,-0.27,-0.05,0.15,-0.00,-0.00,0.01,
0.503,-0.26,-0.04,0.22,-0.00,-0.00,0.01,
0.504,-0.26,-0.04,0.22,-0.00,-0.00,0.01,
0.504,-0.26,-0.04,0.22,-0.00,0.00,0.02,
0.506,-0.18,0.01,0.19,-0.00,0.00,0.02,
0.506,-0.18,0.01,0.19,0.00,0.01,0.02,
0.507,-0.18,0.01,0.19,0.00,0.01,0.02,
0.507,-0.19,0.03,0.21,0.00,0.01,0.02,
0.508,-0.19,0.03,0.21,0.01,0.01,0.02,
0.513,-0.19,0.03,0.21,0.01,0.02,0.02,
0.541,-0.21,0.00,0.18,0.01,0.02,0.02,
0.541,-0.21,0.00,0.18,0.01,0.02,0.02,
0.541,-0.21,0.00,0.18,0.01,0.02,0.02,
0.541,-0.26,-0.04,0.22,0.01,0.02,0.02,
0.541,-0.26,-0.04,0.22,0.01,0.02,0.02,
0.542,-0.26,-0.04,0.22,0.01,0.02,0.03,
0.542,-0.27,-0.00,0.20,0.01,0.02,0.03,
0.542,-0.27,-0.00,0.20,0.01,0.01,0.03,
0.542,-0.27,-0.00,0.20,0.01,0.01,0.03,
0.542,-0.22,0.03,0.11,0.01,0.01,0.03,
0.542,-0.22,0.03,0.11,0.00,0.01,0.04,
0.543,-0.22,0.03,0.11,0.01,0.00,0.04,
0.543,-0.24,0.13,0.14,0.01,0.00,0.04,
0.543,-0.24,0.13,0.14,0.01,0.01,0.04,
0.543,-0.24,0.13,0.14,0.01,0.00,0.04,
0.543,-0.24,0.09,0.17,0.01,0.00,0.04,
0.543,-0.24,0.09,0.17,0.01,0.00,0.05,
0.544,-0.24,0.09,0.17,0.01,0.00,0.04,
0.544,-0.22,0.02,0.15,0.01,0.00,0.04,
0.544,-0.22,0.02,0.15,0.01,-0.00,0.05,
0.548,-0.18,-0.02,0.10,0.01,-0.00,0.05,
0.549,-0.18,-0.02,0.10,0.01,-0.01,0.04,
0.549,-0.18,-0.02,0.10,0.01,-0.01,0.05,
0.55,-0.18,-0.02,0.10,0.01,-0.02,0.04,
0.551,-0.10,0.03,0.07,0.01,-0.02,0.04,
0.554,-0.10,0.03,0.07,0.01,-0.03,0.04,
0.555,-0.10,0.03,0.07,0.01,-0.03,0.05,
0.556,-0.03,0.06,0.02,0.01,-0.03,0.05,
0.558,-0.03,0.06,0.02,0.01,-0.03,0.05,
0.56,-0.03,0.06,0.02,0.00,-0.03,0.04,
0.56,-0.03,0.06,0.07,0.00,-0.03,0.04,
0.565,-0.03,0.06,0.07,0.00,-0.03,0.05,
0.566,-0.03,0.06,0.07,0.00,-0.04,0.04,
0.566,-0.07,0.01,0.09,0.00,-0.04,0.04,
0.568,-0.07,0.01,0.09,0.00,-0.04,0.04,
0.57,-0.07,0.01,0.09,0.00,-0.04,0.04,
0.57,-0.09,-0.04,0.13,0.00,-0.04,0.04,
0.572,-0.09,-0.04,0.13,0.00,-0.04,0.04,
0.575,-0.09,-0.04,0.13,0.00,-0.04,0.04,
0.575,-0.04,-0.14,0.10,0.00,-0.04,0.04,
0.577,-0.04,-0.14,0.10,0.00,-0.05,0.04,
0.581,-0.02,-0.16,0.05,0.00,-0.05,0.04,
0.582,-0.02,-0.16,0.05,-0.00,-0.05,0.04,
0.583,-0.02,-0.16,0.05,-0.00,-0.04,0.04,
0.585,-0.02,-0.16,0.05,-0.01,-0.04,0.03,
0.586,-0.04,-0.06,0.01,-0.01,-0.04,0.03,
0.587,-0.04,-0.06,0.01,-0.01,-0.04,0.03,
0.59,-0.04,-0.06,0.01,-0.01,-0.04,0.03,
0.59,-0.05,0.05,0.05,-0.01,-0.04,0.03,
0.593,-0.05,0.05,0.05,-0.01,-0.04,0.03,
0.598,-0.03,0.11,0.13,-0.01,-0.04,0.03,
0.599,-0.03,0.11,0.13,-0.01,-0.04,0.03,
0.599,-0.03,0.11,0.13,-0.01,-0.04,0.03,
0.606,-0.03,0.08,0.19,-0.01,-0.04,0.03,
0.606,-0.03,0.08,0.19,-0.00,-0.04,0.03,
0.607,-0.03,0.08,0.19,-0.00,-0.03,0.03,
0.607,-0.03,0.08,0.19,-0.00,-0.03,0.03,
0.607,0.00,-0.05,0.26,-0.00,-0.03,0.03,
0.609,0.00,-0.05,0.26,0.00,-0.03,0.03,
0.61,-0.11,-0.21,0.27,0.00,-0.03,0.03,
0.61,-0.11,-0.21,0.27,0.00,-0.03,0.03,
0.613,-0.11,-0.21,0.27,0.00,-0.02,0.03,
0.615,-0.11,-0.21,0.27,0.00,-0.02,0.03,
0.615,-0.11,-0.24,0.29,0.00,-0.02,0.03,
0.619,-0.11,-0.24,0.29,0.00,-0.02,0.03,
0.62,-0.11,-0.24,0.29,0.01,-0.02,0.03,
0.62,-0.15,-0.03,0.34,0.01,-0.02,0.03,
0.622,-0.15,-0.03,0.34,0.01,-0.02,0.03,
0.624,-0.15,-0.03,0.34,0.01,-0.02,0.03,
0.625,-0.19,0.08,0.30,0.01,-0.02,0.03,
0.627,-0.19,0.08,0.30,0.02,-0.03,0.03,
0.63,-0.27,0.02,0.24,0.02,-0.03,0.03,
0.63,-0.27,0.02,0.24,0.02,-0.03,0.04,
0.632,-0.27,0.02,0.24,0.02,-0.04,0.04,
0.635,-0.27,0.02,0.24,0.02,-0.05,0.04,
0.635,-0.29,0.12,0.28,0.02,-0.05,0.04,
0.637,-0.29,0.12,0.28,0.02,-0.06,0.05,
0.639,-0.29,0.12,0.28,0.02,-0.07,0.05,
0.64,-0.28,0.05,0.30,0.02,-0.07,0.05,
0.643,-0.28,0.05,0.30,0.03,-0.07,0.05,
0.645,-0.28,0.05,0.30,0.03,-0.07,0.06,
0.645,-0.37,-0.02,0.17,0.03,-0.07,0.06,
0.648,-0.37,-0.02,0.17,0.03,-0.08,0.06,
0.65,-0.37,-0.02,0.17,0.03,-0.08,0.07,
0.65,-0.31,-0.02,0.10,0.03,-0.08,0.07,
0.652,-0.31,-0.02,0.10,0.02,-0.08,0.07,
0.654,-0.31,-0.02,0.10,0.02,-0.09,0.07,
0.655,-0.25,0.02,0.07,0.02,-0.09,0.07,
0.657,-0.25,0.02,0.07,0.02,-0.09,0.07,
0.659,-0.25,0.02,0.07,0.02,-0.09,0.07,
0.66,-0.22,-0.07,0.02,0.02,-0.09,0.07,
0.662,-0.22,-0.07,0.02,0.02,-0.08,0.08,
0.666,-0.22,-0.07,0.02,0.02,-0.08,0.08,
0.667,-0.20,-0.04,0.09,0.02,-0.08,0.08,
0.667,-0.20,-0.04,0.09,0.02,-0.08,0.08,
0.669,-0.20,0.01,0.15,0.02,-0.08,0.08,
0.67,-0.20,0.01,0.15,0.02,-0.08,0.09,
0.672,-0.20,0.01,0.15,0.02,-0.08,0.09,
0.675,-0.20,0.01,0.15,0.02,-0.08,0.09,
0.675,-0.15,0.03,0.11,0.02,-0.08,0.09,
0.698,-0.15,0.03,0.11,0.03,-0.08,0.09,
0.698,-0.15,0.03,0.11,0.03,-0.08,0.10,
0.699,-0.38,-0.04,0.13,0.03,-0.08,0.10,
0.699,-0.38,-0.04,0.13,0.03,-0.08,0.10,
0.699,-0.38,-0.04,0.13,0.02,-0.08,0.11,
0.699,-0.40,-0.10,0.08,0.02,-0.08,0.11,
0.699,-0.40,-0.10,0.08,0.02,-0.07,0.11,
0.699,-0.40,-0.10,0.08,0.03,-0.07,0.12,
0.7,-0.25,-0.03,0.11,0.03,-0.07,0.12,
0.7,-0.25,-0.03,0.11,0.02,-0.07,0.12,
0.7,-0.21,0.08,0.09,0.02,-0.07,0.12,
0.7,-0.21,0.08,0.09,0.02,-0.08,0.12,
0.7,-0.21,0.08,0.09,0.02,-0.08,0.12,
0.701,-0.21,0.08,0.09,0.02,-0.08,0.13,
0.701,-0.35,0.09,0.15,0.02,-0.08,0.13,
0.702,-0.35,0.09,0.15,0.02,-0.08,0.14,
0.706,-0.35,0.09,0.15,0.03,-0.09,0.14,
0.706,-0.28,0.22,0.36,0.03,-0.09,0.14,
0.707,-0.28,0.22,0.36,0.03,-0.10,0.15,
0.711,-0.28,0.22,0.36,0.04,-0.10,0.15,
0.711,-0.22,0.09,0.36,0.04,-0.10,0.15,
0.711,-0.22,0.09,0.36,0.04,-0.11,0.16,
0.716,-0.22,0.09,0.36,0.04,-0.11,0.16,
0.717,-0.25,-0.10,0.23,0.04,-0.11,0.16,
0.718,-0.25,-0.10,0.23,0.04,-0.11,0.17,
0.719,-0.25,-0.10,0.23,0.04,-0.11,0.16,
0.719,-0.07,-0.21,0.16,0.04,-0.11,0.16,
0.722,-0.07,-0.21,0.16,0.04,-0.12,0.17,
0.724,-0.07,-0.21,0.16,0.04,-0.12,0.17,
0.724,-0.19,-0.15,0.12,0.04,-0.12,0.17,
0.726,-0.19,-0.15,0.12,0.04,-0.11,0.17,
0.735,-0.19,-0.15,0.12,0.04,-0.10,0.18,
0.735,-0.35,0.01,0.18,0.04,-0.10,0.18,
0.736,-0.35,0.01,0.18,0.04,-0.12,0.19,
0.736,-0.35,0.01,0.18,0.04,-0.16,0.20,
0.736,-0.45,0.46,0.85,0.04,-0.16,0.20,
0.737,-0.45,0.46,0.85,0.05,-0.27,0.21,
0.741,-0.45,0.46,0.85,0.06,-0.32,0.22,
0.741,-0.37,0.32,0.48,0.06,-0.32,0.22,
0.742,-0.37,0.32,0.48,0.06,-0.31,0.22,
0.745,-0.32,-0.02,-0.54,0.06,-0.31,0.22,
0.746,-0.32,-0.02,-0.54,0.06,-0.27,0.21,
0.754,-0.32,-0.02,-0.54,0.05,-0.26,0.21,
0.755,-0.32,-0.02,-0.54,0.04,-0.26,0.22,
0.755,-0.49,-0.14,-0.14,0.04,-0.26,0.22,
0.755,-0.49,-0.14,-0.14,0.03,-0.26,0.22,
0.755,-0.49,-0.14,-0.14,0.03,-0.24,0.24,
0.756,-0.61,-0.27,-0.14,0.03,-0.24,0.24,
0.756,-0.61,-0.27,-0.14,0.03,-0.21,0.25,
0.758,-0.61,-0.27,-0.14,0.03,-0.20,0.27,
0.759,-0.66,-0.16,0.16,0.03,-0.20,0.27,
0.762,-0.66,-0.16,0.16,0.03,-0.21,0.28,
0.765,-0.48,-0.19,-0.16,0.03,-0.21,0.28,
0.765,-0.48,-0.19,-0.16,0.04,-0.17,0.29,
0.766,-0.48,-0.19,-0.16,0.04,-0.12,0.29,
0.768,-0.48,-0.19,-0.16,0.02,-0.10,0.29,
0.768,0.02,-0.29,-0.25,0.02,-0.10,0.29,
0.771,0.02,-0.29,-0.25,0.01,-0.12,0.28,
0.774,0.02,-0.29,-0.25,-0.00,-0.15,0.27,
0.774,0.38,-0.02,-0.07,-0.00,-0.15,0.27,
0.776,0.38,-0.02,-0.07,-0.01,-0.20,0.26,
0.779,0.38,-0.02,-0.07,-0.02,-0.25,0.25,
0.779,0.73,0.25,0.12,-0.02,-0.25,0.25,
0.782,0.73,0.25,0.12,-0.02,-0.24,0.24,
0.783,0.73,0.25,0.12,-0.01,-0.20,0.22,
0.783,0.86,0.05,-0.44,-0.01,-0.20,0.22,
0.786,0.86,0.05,-0.44,-0.02,-0.15,0.20,
0.788,0.86,0.05,-0.44,-0.01,-0.13,0.19,
0.789,0.89,-0.11,0.13,-0.01,-0.13,0.19,
0.791,0.89,-0.11,0.13,-0.00,-0.12,0.17,
0.793,0.89,-0.11,0.13,0.00,-0.10,0.16,
0.793,0.70,-0.48,0.23,0.00,-0.10,0.16,
0.799,0.70,-0.48,0.23,0.01,-0.07,0.14,
0.799,0.69,-0.49,0.15,0.01,-0.07,0.14,
0.799,0.69,-0.49,0.15,0.01,-0.05,0.12,
0.801,0.69,-0.49,0.15,0.01,-0.04,0.11,
0.803,0.69,-0.49,0.15,0.01,-0.02,0.09,
0.803,0.37,-0.45,0.02,0.01,-0.02,0.09,
0.806,0.37,-0.45,0.02,0.00,-0.01,0.09,
0.809,0.37,-0.45,0.02,-0.00,-0.01,0.08,
0.809,0.21,-0.26,0.05,-0.00,-0.01,0.08,
0.811,0.21,-0.26,0.05,-0.00,-0.02,0.08,
0.814,0.30,0.06,-0.02,-0.00,-0.02,0.08,
0.814,0.30,0.06,-0.02,-0.01,-0.02,0.07,
0.816,0.30,0.06,-0.02,-0.01,-0.02,0.06,
0.818,0.31,0.10,-0.14,-0.01,-0.02,0.06,
0.818,0.31,0.10,-0.14,-0.01,-0.02,0.05,
0.82,0.31,0.10,-0.14,-0.01,-0.01,0.05,
0.823,0.31,0.10,-0.14,-0.02,0.01,0.04,
0.823,0.18,-0.08,-0.33,-0.02,0.01,0.04,
0.825,0.18,-0.08,-0.33,-0.03,0.03,0.04,
0.828,0.03,-0.21,-0.82,-0.03,0.03,0.04,
0.828,0.03,-0.21,-0.82,-0.04,0.05,0.04,
0.831,0.03,-0.21,-0.82,-0.06,0.09,0.04,
0.833,0.42,-0.27,-0.77,-0.06,0.09,0.04,
0.833,0.42,-0.27,-0.77,-0.07,0.12,0.03,
0.836,0.42,-0.27,-0.77,-0.09,0.13,0.02,
0.838,0.62,-0.18,-0.28,-0.09,0.13,0.02,
0.838,0.62,-0.18,-0.28,-0.09,0.14,0.00,
0.841,0.62,-0.18,-0.28,-0.10,0.16,-0.01,
0.855,0.66,-0.25,-0.36,-0.10,0.16,-0.01,
0.856,0.66,-0.25,-0.36,-0.11,0.19,-0.02,
0.856,0.66,-0.25,-0.36,-0.11,0.23,-0.04,
0.856,0.85,-0.23,-0.62,-0.11,0.23,-0.04,
0.857,0.85,-0.23,-0.62,-0.12,0.27,-0.05,
0.857,0.85,-0.23,-0.62,-0.13,0.30,-0.07,
0.857,0.86,0.03,-0.14,-0.13,0.30,-0.07,
0.857,0.86,0.03,-0.14,-0.13,0.31,-0.09,
0.858,0.86,0.03,-0.14,-0.13,0.30,-0.10,
0.859,0.86,0.03,-0.14,-0.12,0.28,-0.11,
0.859,0.75,0.28,0.78,-0.12,0.28,-0.11,
0.86,0.75,0.28,0.78,-0.11,0.24,-0.13,
0.865,0.75,0.28,0.78,-0.09,0.21,-0.15,
0.867,0.72,0.16,0.84,-0.09,0.21,-0.15,
0.867,0.72,0.16,0.84,-0.08,0.17,-0.16,
0.868,0.15,0.09,0.89,-0.08,0.17,-0.16,
0.868,0.15,0.09,0.89,-0.07,0.15,-0.17,
0.871,0.15,0.09,0.89,-0.05,0.14,-0.17,
0.873,0.15,0.09,0.89,-0.04,0.14,-0.17,
0.873,-0.11,-0.17,0.60,-0.04,0.14,-0.17,
0.876,-0.11,-0.17,0.60,-0.03,0.15,-0.17,
0.878,-0.30,-0.34,-0.00,-0.03,0.15,-0.17,
0.879,-0.30,-0.34,-0.00,-0.03,0.17,-0.17,
0.883,-0.30,-0.34,-0.00,-0.04,0.18,-0.17,
0.884,-0.44,-0.32,-0.22,-0.04,0.18,-0.17,
0.884,-0.44,-0.32,-0.22,-0.04,0.19,-0.16,
0.885,-0.44,-0.32,-0.22,-0.06,0.19,-0.16,
0.888,-0.56,-0.20,-0.10,-0.06,0.19,-0.16,
0.888,-0.56,-0.20,-0.10,-0.06,0.18,-0.15,
0.89,-0.56,-0.20,-0.10,-0.07,0.18,-0.15,
0.893,-0.56,-0.20,-0.10,-0.07,0.18,-0.14,
0.893,-0.55,0.07,0.09,-0.07,0.18,-0.14,
0.895,-0.55,0.07,0.09,-0.07,0.18,-0.13,
0.898,-0.55,0.07,0.09,-0.06,0.18,-0.12,
0.898,-0.55,0.27,0.11,-0.06,0.18,-0.12,
0.9,-0.55,0.27,0.11,-0.06,0.18,-0.10,
0.902,-0.55,0.27,0.11,-0.06,0.19,-0.09,
0.903,-0.54,0.24,0.08,-0.06,0.19,-0.09,
0.905,-0.54,0.24,0.08,-0.06,0.20,-0.08,
0.908,-0.54,0.24,0.08,-0.06,0.20,-0.07,
0.908,-0.41,0.16,0.08,-0.06,0.20,-0.07,
0.91,-0.41,0.16,0.08,-0.06,0.21,-0.06,
0.92,-0.19,-0.01,0.31,-0.06,0.21,-0.06,
0.921,-0.19,-0.01,0.31,-0.05,0.21,-0.06,
0.922,-0.19,-0.01,0.31,-0.05,0.21,-0.06,
0.922,-0.04,-0.14,0.44,-0.05,0.21,-0.06,
0.922,-0.04,-0.14,0.44,-0.05,0.20,-0.06,
0.927,-0.04,-0.14,0.44,-0.05,0.19,-0.06,
0.928,-0.01,-0.21,0.38,-0.05,0.19,-0.06,
0.928,-0.01,-0.21,0.38,-0.04,0.18,-0.06,
0.929,-0.01,-0.21,0.38,-0.05,0.17,-0.07,
0.93,0.05,-0.22,-0.02,-0.05,0.17,-0.07,
0.932,0.05,-0.22,-0.02,-0.05,0.16,-0.08,
0.947,-0.03,-0.21,0.31,-0.05,0.16,-0.08,
0.948,-0.03,-0.21,0.31,-0.06,0.17,-0.08,
0.948,-0.03,-0.21,0.31,-0.05,0.18,-0.08,
0.949,-0.03,-0.21,0.31,-0.05,0.18,-0.08,
0.949,-0.03,-0.25,0.09,-0.05,0.18,-0.08,
0.949,-0.03,-0.25,0.09,-0.05,0.19,-0.09,
0.95,-0.03,-0.25,0.09,-0.06,0.19,-0.09,
0.95,-0.03,-0.25,0.09,-0.07,0.20,-0.09,
0.95,-0.10,-0.21,-0.07,-0.07,0.20,-0.09,
0.95,-0.10,-0.21,-0.07,-0.07,0.22,-0.09,
0.951,-0.10,-0.21,-0.07,-0.09,0.24,-0.10,
0.951,0.13,-0.14,-0.56,-0.09,0.24,-0.10,
0.951,0.13,-0.14,-0.56,-0.11,0.26,-0.10,
0.954,0.13,-0.14,-0.56,-0.11,0.29,-0.11,
0.954,0.25,0.04,-0.37,-0.11,0.29,-0.11,
0.955,0.25,0.04,-0.37,-0.09,0.33,-0.11,
0.958,0.25,0.04,-0.37,-0.07,0.36,-0.11,
0.959,0.30,0.32,0.64,-0.07,0.36,-0.11,
0.96,0.30,0.32,0.64,-0.05,0.38,-0.11,
0.963,0.30,0.32,0.64,-0.04,0.39,-0.11,
0.964,0.40,0.32,0.47,-0.04,0.39,-0.11,
0.965,0.40,0.32,0.47,-0.03,0.38,-0.12,
0.967,0.62,0.13,-0.02,-0.03,0.38,-0.12,
0.967,0.62,0.13,-0.02,-0.03,0.37,-0.12,
0.969,0.62,0.13,-0.02,-0.04,0.38,-0.14,
0.972,0.59,-0.22,-0.94,-0.04,0.38,-0.14,
0.972,0.59,-0.22,-0.94,-0.06,0.39,-0.15,
0.974,0.59,-0.22,-0.94,-0.08,0.41,-0.17,
0.977,0.59,-0.22,-0.94,-0.09,0.44,-0.18,
0.977,0.41,-0.41,-0.66,-0.09,0.44,-0.18,
0.979,0.41,-0.41,-0.66,-0.09,0.48,-0.19,
0.982,0.41,-0.41,-0.66,-0.09,0.52,-0.20,
0.982,0.03,-0.28,-0.06,-0.09,0.52,-0.20,
0.984,0.03,-0.28,-0.06,-0.08,0.55,-0.19,
0.987,-0.28,0.06,0.57,-0.08,0.55,-0.19,
0.987,-0.28,0.06,0.57,-0.07,0.55,-0.18,
0.989,-0.28,0.06,0.57,-0.06,0.53,-0.17,
0.991,-0.28,0.06,0.57,-0.06,0.49,-0.16,
0.992,-0.54,0.14,0.53,-0.06,0.49,-0.16,
0.994,-0.54,0.14,0.53,-0.06,0.44,-0.16,
1.002,-0.54,0.14,0.53,-0.06,0.40,-0.14,
1.002,-0.82,0.24,0.51,-0.06,0.40,-0.14,
1.002,-0.82,0.24,0.51,-0.06,0.36,-0.13,
1.003,-0.82,0.24,0.51,-0.06,0.32,-0.12,
1.003,-1.17,0.14,0.33,-0.06,0.32,-0.12,
1.004,-1.17,0.14,0.33,-0.07,0.28,-0.10,
1.006,-1.17,0.14,0.33,-0.07,0.24,-0.08,
1.025,-1.16,-0.04,0.03,-0.07,0.24,-0.08,
1.026,-1.16,-0.04,0.03,-0.08,0.21,-0.07,
1.026,-1.16,-0.04,0.03,-0.08,0.18,-0.05,
1.026,-1.07,0.02,0.60,-0.08,0.18,-0.05,
1.026,-1.07,0.02,0.60,-0.07,0.16,-0.04,
1.027,-1.07,0.02,0.60,-0.05,0.13,-0.03,
1.027,-0.67,0.07,0.97,-0.05,0.13,-0.03,
1.027,-0.67,0.07,0.97,-0.05,0.10,-0.02,
1.027,-0.48,0.12,0.66,-0.05,0.10,-0.02,
1.028,-0.48,0.12,0.66,-0.04,0.07,-0.02,
1.028,-0.48,0.12,0.66,-0.04,0.04,-0.01,
1.028,-0.48,0.12,0.66,-0.05,0.01,0.01,
1.028,-0.60,0.06,-0.12,-0.05,0.01,0.01,
1.029,-0.60,0.06,-0.12,-0.07,-0.02,0.02,
1.032,-0.60,0.06,-0.12,-0.07,-0.04,0.02,
1.032,-0.54,0.15,0.33,-0.07,-0.04,0.02,
1.034,-0.54,0.15,0.33,-0.05,-0.05,0.03,
1.037,-0.54,0.15,0.33,-0.03,-0.04,0.02,
1.038,-0.27,0.19,1.16,-0.03,-0.04,0.02,
1.04,-0.27,0.19,1.16,-0.01,-0.05,0.02,
1.042,-0.27,0.19,1.16,0.00,-0.05,0.03,
1.042,-0.14,-0.08,0.55,0.00,-0.05,0.03,
1.043,-0.14,-0.08,0.55,0.00,-0.04,0.03,
1.047,-0.14,-0.08,0.55,0.00,-0.03,0.03,
1.047,0.07,-0.19,0.02,0.00,-0.03,0.03,
1.051,0.07,-0.19,0.02,0.00,-0.02,0.03,
1.051,0.07,-0.19,0.02,0.00,-0.01,0.02,
1.052,0.43,-0.00,0.08,0.00,-0.01,0.02,
1.053,0.43,-0.00,0.08,0.01,0.00,0.01,
1.056,0.43,-0.00,0.08,0.01,0.01,0.00,
1.056,0.35,-0.00,0.07,0.01,0.01,0.00,
1.058,0.35,-0.00,0.07,0.02,0.03,0.00,
1.061,0.35,-0.00,0.07,0.02,0.04,-0.00,
1.061,0.19,-0.16,0.01,0.02,0.04,-0.00,
1.064,0.19,-0.16,0.01,0.02,0.05,-0.01,
1.066,0.19,-0.16,0.01,0.02,0.06,-0.01,
1.066,0.21,-0.10,-0.06,0.02,0.06,-0.01,
1.068,0.21,-0.10,-0.06,0.02,0.06,-0.02,
1.071,0.21,-0.10,-0.06,0.01,0.06,-0.02,
1.071,0.14,-0.05,-0.08,0.01,0.06,-0.02,
1.073,0.14,-0.05,-0.08,0.01,0.06,-0.03,
1.076,0.14,-0.05,-0.08,0.01,0.07,-0.03,
1.076,0.07,-0.14,0.18,0.01,0.07,-0.03,
1.079,0.07,-0.14,0.18,0.01,0.06,-0.03,
1.082,0.07,-0.14,0.18,0.02,0.06,-0.03,
1.083,-0.04,-0.08,0.49,0.02,0.06,-0.03,
1.084,-0.04,-0.08,0.49,0.02,0.04,-0.03,
1.086,-0.04,-0.08,0.49,0.02,0.03,-0.03,
1.087,-0.32,-0.12,0.43,0.02,0.03,-0.03,
1.089,-0.32,-0.12,0.43,0.02,0.01,-0.02,
1.091,-0.32,-0.12,0.43,0.01,-0.02,-0.02,
1.091,-0.48,-0.23,0.19,0.01,-0.02,-0.02,
1.094,-0.48,-0.23,0.19,0.00,-0.04,-0.02,
1.096,-0.48,-0.23,0.19,-0.00,-0.07,-0.02,
1.097,-0.46,-0.23,0.22,-0.00,-0.07,-0.02,
1.104,-0.46,-0.23,0.22,-0.01,-0.09,-0.01,
1.105,-0.53,0.07,0.60,-0.01,-0.09,-0.01,
1.105,-0.53,0.07,0.60,-0.00,-0.12,-0.00,
1.107,-0.53,0.07,0.60,0.01,-0.12,0.01,
1.107,-0.49,-0.04,0.79,0.01,-0.12,0.01,
1.108,-0.49,-0.04,0.79,0.02,-0.11,0.01,
1.113,-0.14,-0.16,0.62,0.02,-0.11,0.01,
1.113,-0.14,-0.16,0.62,0.04,-0.08,0.02,
1.114,-0.14,-0.16,0.62,0.05,-0.06,0.02,
1.134,-0.14,-0.16,0.62,0.06,-0.04,0.02,
1.136,-0.26,-0.17,0.19,0.06,-0.04,0.02,
1.136,-0.26,-0.17,0.19,0.06,-0.04,0.02,
1.137,-0.26,-0.17,0.19,0.05,-0.04,0.03,
1.137,-0.26,-0.17,0.19,0.04,-0.06,0.05,
1.137,-0.70,-0.94,-0.01,0.04,-0.06,0.05,
1.138,-0.70,-0.94,-0.01,0.03,-0.09,0.05,
1.138,-0.70,-0.94,-0.01,0.03,-0.11,0.02,
1.139,0.33,0.27,0.15,0.03,-0.11,0.02,
1.139,0.33,0.27,0.15,0.03,-0.11,0.00,
1.14,0.33,0.27,0.15,0.03,-0.09,0.01,
1.14,0.05,0.85,0.24,0.03,-0.09,0.01,
1.141,0.05,0.85,0.24,0.05,-0.06,0.02,
1.141,0.05,0.85,0.24,0.07,-0.02,0.03,
1.141,0.15,0.49,0.43,0.07,-0.02,0.03,
1.142,0.15,0.49,0.43,0.08,-0.01,0.03,
1.143,0.15,0.49,0.43,0.07,-0.03,0.03,
1.143,-0.33,-0.60,-0.36,0.07,-0.03,0.03,
1.144,-0.33,-0.60,-0.36,0.06,-0.06,0.04,
1.146,-0.33,-0.60,-0.36,0.05,-0.08,0.02,
1.146,0.17,-0.25,-0.03,0.05,-0.08,0.02,
1.15,0.17,-0.25,-0.03,0.05,-0.09,0.00,
1.156,0.31,0.18,-0.13,0.05,-0.09,0.00,
1.157,0.31,0.18,-0.13,0.04,-0.08,-0.01,
1.157,0.31,0.18,-0.13,0.05,-0.06,-0.01,
1.157,0.31,0.18,-0.13,0.06,-0.02,-0.01,
1.157,0.24,0.01,0.15,0.06,-0.02,-0.01,
1.158,0.24,0.01,0.15,0.06,0.00,-0.01,
1.161,0.03,-0.09,-0.26,0.06,0.00,-0.01,
1.161,0.03,-0.09,-0.26,0.06,0.00,-0.00,
1.163,0.03,-0.09,-0.26,0.05,-0.00,0.00,
1.166,0.03,-0.09,-0.26,0.04,-0.01,0.00,
1.167,-0.18,-0.26,-0.19,0.04,-0.01,0.00,
1.169,-0.18,-0.26,-0.19,0.03,-0.02,-0.00,
1.171,0.12,-0.17,-0.07,0.03,-0.02,-0.00,
1.171,0.12,-0.17,-0.07,0.03,-0.04,-0.01,
1.195,0.12,-0.17,-0.07,0.02,-0.04,-0.02,
1.195,0.10,0.06,-0.16,0.02,-0.04,-0.02,
1.196,0.10,0.06,-0.16,0.02,-0.04,-0.02,
1.196,0.10,0.06,-0.16,0.02,-0.03,-0.02,
1.196,0.10,0.06,-0.16,0.02,-0.02,-0.01,
1.196,0.08,0.07,0.05,0.02,-0.02,-0.01,
1.197,0.08,0.07,0.05,0.03,-0.00,-0.01,
1.197,0.08,0.07,0.05,0.03,0.01,-0.02,
1.197,0.14,-0.06,0.15,0.03,0.01,-0.02,
1.197,0.14,-0.06,0.15,0.03,0.02,-0.02,
1.198,0.14,-0.06,0.15,0.03,0.03,-0.03,
1.198,0.03,-0.19,0.06,0.03,0.03,-0.03,
1.198,0.03,-0.19,0.06,0.03,0.04,-0.03,
1.198,0.03,-0.19,0.06,0.03,0.05,-0.03,
1.199,-0.06,-0.18,0.07,0.03,0.05,-0.03,
1.2,-0.06,-0.18,0.07,0.03,0.05,-0.03,
1.201,-0.12,-0.15,0.16,0.03,0.05,-0.03,
1.203,-0.12,-0.15,0.16,0.03,0.05,-0.03,
1.203,-0.12,-0.15,0.16,0.02,0.05,-0.03,
1.205,-0.12,-0.15,0.16,0.02,0.06,-0.02,
1.205,-0.26,-0.16,0.20,0.02,0.06,-0.02,
1.208,-0.26,-0.16,0.20,0.03,0.06,-0.02,
1.211,-0.35,-0.18,0.17,0.03,0.06,-0.02,
1.212,-0.35,-0.18,0.17,0.03,0.06,-0.02,
1.212,-0.35,-0.18,0.17,0.02,0.07,-0.02,
1.217,-0.40,-0.13,0.24,0.02,0.07,-0.02,
1.218,-0.40,-0.13,0.24,0.02,0.07,-0.01,
1.218,-0.40,-0.13,0.24,0.02,0.06,-0.01,
1.221,-0.40,-0.13,0.24,0.02,0.05,-0.01,
1.221,-0.33,-0.18,0.27,0.02,0.05,-0.01,
1.222,-0.33,-0.18,0.27,0.02,0.04,-0.00,
1.225,-0.33,-0.18,0.27,0.02,0.04,-0.00,
1.226,-0.33,-0.28,0.28,0.02,0.04,-0.00,
1.227,-0.33,-0.28,0.28,0.02,0.04,0.00,
1.237,-0.33,-0.28,0.28,0.02,0.03,0.00,
1.237,-0.31,-0.29,0.27,0.02,0.03,0.00,
1.238,-0.31,-0.29,0.27,0.02,0.02,0.01,
1.238,-0.25,-0.27,0.26,0.02,0.02,0.01,
1.238,-0.25,-0.27,0.26,0.01,0.02,0.01,
1.238,-0.25,-0.27,0.26,0.01,0.01,0.01,
1.24,-0.25,-0.27,0.26,0.01,-0.00,0.01,
1.24,-0.16,-0.26,0.22,0.01,-0.00,0.01,
1.244,-0.16,-0.26,0.22,0.00,-0.01,0.01,
1.245,-0.08,-0.25,0.26,0.00,-0.01,0.01,
1.245,-0.08,-0.25,0.26,0.00,-0.01,0.01,
1.254,-0.08,-0.25,0.26,0.00,-0.01,0.01,
1.255,-0.01,-0.26,0.28,0.00,-0.01,0.01,
1.255,-0.01,-0.26,0.28,0.00,-0.01,0.00,
1.256,-0.01,-0.26,0.28,0.00,-0.01,0.00,
1.256,-0.01,-0.25,0.20,0.00,-0.01,0.00,
1.256,-0.01,-0.25,0.20,0.00,-0.00,-0.00,
1.258,-0.01,-0.25,0.20,0.01,0.01,-0.00,
1.259,-0.05,-0.26,0.10,0.01,0.01,-0.00,
1.26,-0.05,-0.26,0.10,0.00,0.01,-0.00,
1.261,-0.05,-0.26,0.10,0.00,0.02,-0.00,
1.264,-0.05,-0.31,0.07,0.00,0.02,-0.00,
1.265,-0.05,-0.31,0.07,-0.00,0.02,-0.00,
1.267,-0.05,-0.31,0.07,-0.01,0.01,-0.00,
1.269,-0.02,-0.31,0.13,-0.01,0.01,-0.00,
1.269,-0.02,-0.31,0.13,-0.01,0.01,-0.00,
1.271,-0.02,-0.31,0.13,-0.01,0.01,-0.00,
1.275,-0.02,-0.31,0.13,-0.02,0.01,-0.01,
1.275,0.05,-0.27,0.17,-0.02,0.01,-0.01,
1.278,0.05,-0.27,0.17,-0.02,0.01,-0.01,
1.28,0.05,-0.27,0.17,-0.02,0.02,-0.01,
1.28,0.07,-0.19,0.13,-0.02,0.02,-0.01,
1.283,0.07,-0.19,0.13,-0.01,0.03,-0.01,
1.285,0.01,-0.06,0.12,-0.01,0.03,-0.01,
1.286,0.01,-0.06,0.12,-0.01,0.04,-0.01,
1.287,0.01,-0.06,0.12,-0.01,0.04,-0.02,
1.289,0.01,-0.06,0.12,-0.01,0.05,-0.02,
1.289,-0.08,0.02,0.17,-0.01,0.05,-0.02,
1.291,-0.08,0.02,0.17,-0.01,0.05,-0.02,
1.294,-0.08,0.02,0.17,-0.00,0.06,-0.02,
1.294,-0.12,0.06,0.22,-0.00,0.06,-0.02,
1.303,-0.12,0.06,0.22,-0.00,0.05,-0.02,
1.303,-0.12,0.06,0.22,0.00,0.05,-0.02,
1.304,-0.09,0.06,0.26,0.00,0.05,-0.02,
1.304,-0.09,0.06,0.26,0.00,0.05,-0.02,
1.304,-0.09,0.06,0.26,0.01,0.05,-0.02,
1.305,0.00,0.05,0.26,0.01,0.05,-0.02,
1.306,0.00,0.05,0.26,0.01,0.04,-0.02,
1.31,0.00,0.05,0.26,0.01,0.04,-0.02,
1.31,0.02,0.07,0.18,0.01,0.04,-0.02,
1.312,0.02,0.07,0.18,0.01,0.05,-0.02,
1.326,0.04,0.09,0.09,0.01,0.05,-0.02,
1.326,0.05,0.13,0.02,0.01,0.05,-0.02,
1.327,0.05,0.13,0.02,0.02,0.05,-0.02,
1.327,0.05,0.13,0.02,0.02,0.06,-0.02,
1.327,0.05,0.13,0.02,0.02,0.06,-0.02,
1.328,0.05,0.13,0.02,0.02,0.06,-0.02,
1.328,0.05,0.13,0.02,0.02,0.07,-0.03,
1.328,0.08,0.17,-0.05,0.02,0.07,-0.03,
1.329,0.08,0.17,-0.05,0.02,0.07,-0.03,
1.329,0.08,0.17,-0.05,0.02,0.08,-0.03,
1.329,0.07,0.17,-0.11,0.02,0.08,-0.03,
1.335,0.07,0.17,-0.11,0.02,0.08,-0.04,
1.336,0.04,0.20,-0.10,0.02,0.08,-0.04,
1.336,0.04,0.20,-0.10,0.02,0.09,-0.04,
1.336,0.04,0.20,-0.10,0.02,0.10,-0.04,
1.357,-0.23,-0.03,0.12,0.02,0.10,-0.04,
1.357,-0.23,-0.03,0.12,0.03,0.11,-0.04,
1.358,-0.23,-0.03,0.12,0.03,0.14,-0.02,
1.358,-0.23,-0.03,0.12,0.04,0.17,0.01,
1.358,-0.45,-0.60,0.32,0.04,0.17,0.01,
1.358,-0.45,-0.60,0.32,0.04,0.20,0.02,
1.358,-0.45,-0.60,0.32,0.05,0.21,0.02,
1.358,-0.11,-0.60,0.30,0.05,0.21,0.02,
1.359,-0.11,-0.60,0.30,0.05,0.21,0.02,
1.359,0.00,-0.30,0.16,0.05,0.21,0.02,
1.359,0.00,-0.30,0.16,0.04,0.19,0.00,
1.359,0.00,-0.30,0.16,0.04,0.17,-0.00,
1.359,0.00,-0.30,0.16,0.03,0.14,-0.01,
1.359,-0.18,0.00,0.08,0.03,0.14,-0.01,
1.361,-0.18,0.00,0.08,0.02,0.11,-0.01,
1.367,-0.18,0.00,0.08,0.02,0.07,-0.01,
1.367,-0.42,0.24,0.16,0.02,0.07,-0.01,
1.367,-0.42,0.24,0.16,0.01,0.05,-0.00,
1.37,-0.42,0.24,0.16,0.01,0.02,0.00,
1.37,-0.50,0.34,0.35,0.01,0.02,0.00,
1.371,-0.50,0.34,0.35,0.02,0.00,0.01,
1.374,-0.50,0.34,0.35,0.02,-0.02,0.01,
1.374,-0.53,0.41,0.50,0.02,-0.02,0.01,
1.375,-0.53,0.41,0.50,0.03,-0.04,0.02,
1.378,-0.53,0.41,0.50,0.03,-0.07,0.02,
1.378,-0.48,0.42,0.57,0.03,-0.07,0.02,
1.381,-0.48,0.42,0.57,0.04,-0.09,0.03,
1.383,-0.38,0.34,0.49,0.04,-0.09,0.03,
1.384,-0.38,0.34,0.49,0.04,-0.11,0.03,
1.385,-0.38,0.34,0.49,0.04,-0.13,0.04,
1.388,-0.38,0.34,0.49,0.04,-0.15,0.04,
1.388,-0.30,0.22,0.26,0.04,-0.15,0.04,
1.39,-0.30,0.22,0.26,0.05,-0.16,0.04,
1.393,-0.30,0.22,0.26,0.05,-0.16,0.04,
1.393,-0.22,0.08,0.09,0.05,-0.16,0.04,
1.401,-0.23,0.00,0.08,0.05,-0.16,0.04,
1.402,-0.23,0.00,0.08,0.04,-0.17,0.04,
1.403,-0.23,0.00,0.08,0.04,-0.17,0.04,
1.404,-0.13,-0.09,0.19,0.04,-0.17,0.04,
1.404,-0.13,-0.09,0.19,0.04,-0.16,0.04,
1.404,-0.13,-0.09,0.19,0.04,-0.15,0.04,
1.405,-0.13,-0.09,0.19,0.04,-0.15,0.04,
1.408,-0.13,-0.09,0.19,0.05,-0.15,0.04,
1.409,0.01,-0.07,0.21,0.05,-0.15,0.04,
1.411,0.01,-0.07,0.21,0.05,-0.14,0.05,
1.413,0.01,-0.07,0.21,0.05,-0.13,0.04,
1.413,0.17,-0.04,0.26,0.05,-0.13,0.04,
1.424,0.17,-0.04,0.26,0.06,-0.12,0.04,
1.425,0.27,-0.07,0.16,0.06,-0.12,0.04,
1.425,0.27,-0.07,0.16,0.06,-0.11,0.03,
1.425,0.27,-0.07,0.16,0.06,-0.10,0.03,
1.425,0.31,-0.10,-0.03,0.06,-0.10,0.03,
1.426,0.31,-0.10,-0.03,0.06,-0.08,0.02,
1.426,0.31,-0.10,-0.03,0.06,-0.07,0.02,
1.428,0.25,-0.02,-0.20,0.06,-0.07,0.02,
1.428,0.25,-0.02,-0.20,0.06,-0.05,0.01,
1.433,0.25,-0.02,-0.20,0.06,-0.03,0.01,
1.434,0.15,0.04,-0.32,0.06,-0.03,0.01,
1.434,0.15,0.04,-0.32,0.06,-0.01,0.01,
1.437,0.15,0.04,-0.32,0.05,0.01,0.00,
1.438,0.27,0.04,-0.69,0.05,0.01,0.00,
1.438,0.27,0.04,-0.69,0.04,0.02,-0.00,
1.441,0.27,0.04,-0.69,0.03,0.01,-0.01,
1.444,0.26,-0.02,-0.67,0.03,0.01,-0.01,
1.444,0.26,-0.02,-0.67,0.02,0.01,-0.02,
1.446,0.26,-0.02,-0.67,0.01,0.03,-0.03,
1.448,0.27,-0.04,-0.27,0.01,0.03,-0.03,
1.448,0.27,-0.04,-0.27,0.01,0.06,-0.03,
1.451,0.27,-0.04,-0.27,0.01,0.09,-0.04,
1.453,0.39,-0.08,-0.08,0.01,0.09,-0.04,
1.453,0.39,-0.08,-0.08,0.01,0.13,-0.04,
1.455,0.39,-0.08,-0.08,0.02,0.17,-0.05,
1.458,0.39,-0.08,-0.08,0.03,0.19,-0.06,
1.458,0.56,-0.12,0.02,0.03,0.19,-0.06,
1.46,0.56,-0.12,0.02,0.03,0.22,-0.07,
1.463,0.75,-0.17,-0.10,0.03,0.22,-0.07,
1.463,0.75,-0.17,-0.10,0.03,0.25,-0.08,
1.467,0.75,-0.17,-0.10,0.03,0.28,-0.09,
1.468,0.77,-0.24,0.09,0.03,0.28,-0.09,
1.469,0.77,-0.24,0.09,0.04,0.31,-0.11,
1.47,0.77,-0.24,0.09,0.05,0.33,-0.12,
1.473,0.73,-0.28,0.32,0.05,0.33,-0.12,
1.473,0.73,-0.28,0.32,0.05,0.36,-0.13,
1.475,0.73,-0.28,0.32,0.06,0.38,-0.15,
1.477,0.73,-0.28,0.32,0.07,0.40,-0.16,
1.478,0.57,-0.23,0.47,0.07,0.40,-0.16,
1.48,0.57,-0.23,0.47,0.07,0.38,-0.17,
1.484,0.27,-0.26,0.44,0.07,0.38,-0.17,
1.484,0.27,-0.26,0.44,0.08,0.37,-0.17,
1.485,0.27,-0.26,0.44,0.08,0.36,-0.18,
1.487,0.27,-0.26,0.44,0.08,0.36,-0.19,
1.488,0.12,-0.33,0.42,0.08,0.36,-0.19,
1.49,0.12,-0.33,0.42,0.09,0.37,-0.20,
1.492,0.12,-0.33,0.42,0.10,0.39,-0.20,
1.492,0.03,-0.32,0.30,0.10,0.39,-0.20,
1.495,0.03,-0.32,0.30,0.11,0.41,-0.21,
1.505,-0.06,-0.33,0.20,0.11,0.41,-0.21,
1.506,-0.06,-0.33,0.20,0.11,0.43,-0.21,
1.506,-0.06,-0.33,0.20,0.12,0.46,-0.21,
1.506,-0.06,-0.33,0.20,0.12,0.48,-0.21,
1.523,-0.10,-0.33,0.25,0.12,0.48,-0.21,
1.523,-0.32,-0.44,0.17,0.12,0.48,-0.21,
1.524,-0.32,-0.44,0.17,0.12,0.49,-0.21,
1.524,-0.32,-0.44,0.17,0.11,0.48,-0.19,
1.524,-0.32,-0.44,0.17,0.10,0.46,-0.18,
1.524,-0.27,-0.46,0.27,0.10,0.46,-0.18,
1.524,-0.27,-0.46,0.27,0.10,0.45,-0.17,
1.525,-0.27,-0.46,0.27,0.09,0.45,-0.17,
1.525,-0.27,-0.46,0.27,0.09,0.44,-0.17,
1.525,-0.14,-0.48,0.31,0.09,0.44,-0.17,
1.525,-0.14,-0.48,0.31,0.09,0.43,-0.18,
1.525,-0.14,-0.48,0.31,0.09,0.41,-0.18,
1.526,-0.23,-0.03,0.49,0.09,0.41,-0.18,
1.526,-0.23,-0.03,0.49,0.09,0.38,-0.18,
1.527,-0.23,-0.03,0.49,0.10,0.35,-0.18,
1.527,-0.60,0.32,0.51,0.10,0.35,-0.18,
1.529,-0.60,0.32,0.51,0.11,0.33,-0.17,
1.532,-0.56,0.04,0.21,0.11,0.33,-0.17,
1.533,-0.56,0.04,0.21,0.12,0.34,-0.16,
1.534,-0.56,0.04,0.21,0.12,0.38,-0.18,
1.537,-0.56,0.04,0.21,0.12,0.43,-0.20,
1.537,-0.11,-0.57,-0.13,0.12,0.43,-0.20,
1.539,-0.11,-0.57,-0.13,0.12,0.46,-0.21,
1.542,-0.11,-0.57,-0.13,0.12,0.48,-0.20,
1.542,0.05,-0.24,-0.02,0.12,0.48,-0.20,
1.544,0.05,-0.24,-0.02,0.12,0.47,-0.19,
1.547,0.05,-0.24,-0.02,0.12,0.46,-0.18,
1.547,0.08,0.08,-0.05,0.12,0.46,-0.18,
1.55,0.08,0.08,-0.05,0.11,0.40,-0.17,
1.552,0.08,0.08,-0.05,0.10,0.31,-0.13,
1.552,-0.75,1.53,0.06,0.10,0.31,-0.13,
1.554,-0.75,1.53,0.06,0.09,0.23,-0.09,
1.557,-0.54,1.75,-0.35,0.09,0.23,-0.09,
1.557,-0.54,1.75,-0.35,0.08,0.17,-0.08,
1.559,-0.54,1.75,-0.35,0.08,0.15,-0.10,
1.561,-0.54,1.75,-0.35,0.08,0.18,-0.13,
1.562,-0.39,0.68,-0.01,0.08,0.18,-0.13,
1.565,-0.39,0.68,-0.01,0.10,0.21,-0.15,
1.567,-0.39,0.68,-0.01,0.12,0.23,-0.15,
1.567,-0.81,0.00,0.49,0.12,0.23,-0.15,
1.569,-0.81,0.00,0.49,0.13,0.23,-0.12,
1.572,-0.81,0.00,0.49,0.12,0.27,-0.09,
1.572,-1.27,-0.54,-0.91,0.12,0.27,-0.09,
1.575,-1.27,-0.54,-0.91,0.10,0.35,-0.07,
1.577,-1.27,-0.54,-0.91,0.08,0.39,-0.05,
1.578,-1.29,-0.50,-0.47,0.08,0.39,-0.05,
1.579,-1.29,-0.50,-0.47,0.06,0.35,-0.01,
1.583,-1.42,0.58,0.63,0.06,0.35,-0.01,
1.584,-1.42,0.58,0.63,0.05,0.22,0.03,
1.584,-1.42,0.58,0.63,0.03,0.05,0.04,
1.586,-1.00,0.47,0.53,0.03,0.05,0.04,
1.587,-1.00,0.47,0.53,0.02,-0.10,0.04,
1.589,-1.00,0.47,0.53,0.00,-0.20,0.03,
1.591,-1.00,0.47,0.53,-0.00,-0.27,0.04,
1.592,-1.24,0.57,0.33,-0.00,-0.27,0.04,
1.594,-1.24,0.57,0.33,-0.01,-0.33,0.05,
1.596,-1.24,0.57,0.33,-0.01,-0.38,0.08,
1.597,-1.50,1.17,0.48,-0.01,-0.38,0.08,
1.602,-1.50,1.17,0.48,-0.00,-0.42,0.11,
1.603,-1.66,1.33,0.43,-0.00,-0.42,0.11,
1.603,-1.66,1.33,0.43,0.00,-0.46,0.15,
1.606,-1.66,1.33,0.43,0.01,-0.48,0.17,
1.606,-1.66,1.33,0.43,0.02,-0.50,0.19,
1.608,-1.46,1.04,0.76,0.02,-0.50,0.19,
1.609,-1.46,1.04,0.76,0.04,-0.52,0.21,
1.612,-1.46,1.04,0.76,0.05,-0.56,0.23,
1.612,-1.27,0.78,1.06,0.05,-0.56,0.23,
1.621,-1.27,0.78,1.06,0.07,-0.60,0.24,
1.622,-0.59,0.30,1.15,0.07,-0.60,0.24,
1.622,-0.59,0.30,1.15,0.08,-0.65,0.25,
1.622,-0.59,0.30,1.15,0.09,-0.69,0.24,
1.622,0.29,-0.28,1.01,0.09,-0.69,0.24,
1.623,0.29,-0.28,1.01,0.10,-0.74,0.23,
1.623,0.29,-0.28,1.01,0.11,-0.76,0.19,
1.626,0.29,-0.28,1.01,0.11,-0.77,0.16,
1.626,1.38,-0.84,0.86,0.11,-0.77,0.16,
1.628,1.38,-0.84,0.86,0.12,-0.77,0.12,
1.632,1.38,-0.84,0.86,0.13,-0.74,0.09,
1.632,2.02,-1.24,0.86,0.13,-0.74,0.09,
1.634,2.02,-1.24,0.86,0.16,-0.67,0.05,
1.636,2.60,-1.53,0.81,0.16,-0.67,0.05,
1.636,2.60,-1.53,0.81,0.18,-0.57,0.01,
1.638,2.60,-1.53,0.81,0.20,-0.45,-0.03,
1.641,2.60,-1.53,0.81,0.23,-0.32,-0.07,
1.641,2.54,-1.49,0.43,0.23,-0.32,-0.07,
1.643,2.54,-1.49,0.43,0.25,-0.19,-0.09,
1.646,2.54,-1.49,0.43,0.27,-0.08,-0.11,
1.646,2.13,-1.16,0.21,0.27,-0.08,-0.11,
1.649,2.13,-1.16,0.21,0.28,0.03,-0.14,
1.651,2.13,-1.16,0.21,0.30,0.11,-0.17,
1.651,1.60,-0.64,0.24,0.30,0.11,-0.17,
1.653,1.60,-0.64,0.24,0.31,0.16,-0.19,
1.657,1.60,-0.64,0.24,0.32,0.21,-0.22,
1.657,0.90,0.10,0.54,0.32,0.21,-0.22,
1.659,0.90,0.10,0.54,0.35,0.26,-0.23,
1.661,0.46,0.17,0.49,0.35,0.26,-0.23,
1.661,0.46,0.17,0.49,0.37,0.30,-0.24,
1.664,0.46,0.17,0.49,0.40,0.38,-0.26,
1.667,0.58,0.06,0.61,0.40,0.38,-0.26,
1.667,0.58,0.06,0.61,0.43,0.49,-0.27,
1.694,0.58,0.06,0.61,0.47,0.58,-0.27,
1.694,-0.07,0.06,0.30,0.47,0.58,-0.27,
1.694,-0.07,0.06,0.30,0.48,0.64,-0.25,
1.695,-0.07,0.06,0.30,0.48,0.64,-0.24,
1.695,-0.07,0.06,0.30,0.46,0.59,-0.22,
1.696,-0.63,0.00,-0.21,0.46,0.59,-0.22,
1.696,-0.63,0.00,-0.21,0.44,0.52,-0.20,
1.696,-0.63,0.00,-0.21,0.41,0.44,-0.18,
1.696,-1.30,-0.08,-0.41,0.41,0.44,-0.18,
1.696,-1.30,-0.08,-0.41,0.37,0.35,-0.16,
1.697,-1.30,-0.08,-0.41,0.35,0.27,-0.14,
1.697,-1.60,-0.14,-0.18,0.35,0.27,-0.14,
1.697,-1.60,-0.14,-0.18,0.32,0.19,-0.13,
1.697,-1.26,-0.22,0.24,0.32,0.19,-0.13,
1.697,-1.26,-0.22,0.24,0.31,0.11,-0.12,
1.697,-1.26,-0.22,0.24,0.30,0.05,-0.12,
1.698,-1.26,-0.22,0.24,0.29,-0.00,-0.11,
1.698,-0.92,-0.20,0.33,0.29,-0.00,-0.11,
1.7,-0.92,-0.20,0.33,0.29,-0.04,-0.10,
1.703,-0.72,-0.11,0.30,0.29,-0.04,-0.10,
1.704,-0.72,-0.11,0.30,0.28,-0.08,-0.09,
1.704,-0.72,-0.11,0.30,0.27,-0.12,-0.08,
1.706,-0.72,-0.11,0.30,0.27,-0.14,-0.08,
1.706,-0.43,-0.01,0.47,0.27,-0.14,-0.08,
1.708,-0.43,-0.01,0.47,0.28,-0.14,-0.08,
1.711,-0.43,-0.01,0.47,0.28,-0.13,-0.08,
1.711,-0.22,0.01,0.71,0.28,-0.13,-0.08,
1.713,-0.22,0.01,0.71,0.29,-0.12,-0.08,
1.72,-0.22,0.01,0.71,0.31,-0.11,-0.08,
1.721,-0.03,0.02,0.88,0.31,-0.11,-0.08,
1.721,-0.03,0.02,0.88,0.32,-0.11,-0.08,
1.722,-0.03,0.02,0.88,0.33,-0.11,-0.08,
1.722,0.06,-0.02,0.75,0.33,-0.11,-0.08,
1.723,0.06,-0.02,0.75,0.34,-0.11,-0.09,
1.725,0.06,-0.02,0.75,0.35,-0.10,-0.09,
1.726,0.07,-0.16,0.29,0.35,-0.10,-0.09,
1.727,0.07,-0.16,0.29,0.35,-0.08,-0.10,
1.73,0.07,-0.16,0.29,0.35,-0.06,-0.11,
1.731,0.20,-0.32,-0.08,0.35,-0.06,-0.11,
1.738,0.20,-0.32,-0.08,0.35,-0.04,-0.12,
1.739,0.20,-0.32,-0.08,0.34,-0.02,-0.13,
1.739,0.34,-0.38,-0.27,0.34,-0.02,-0.13,
1.739,0.34,-0.38,-0.27,0.34,-0.01,-0.14,
1.74,0.34,-0.38,-0.27,0.33,-0.00,-0.15,
1.74,0.50,-0.34,-0.32,0.33,-0.00,-0.15,
1.743,0.50,-0.34,-0.32,0.32,0.00,-0.16,
1.745,0.50,-0.34,-0.32,0.32,0.01,-0.16,
1.746,0.63,-0.21,-0.20,0.32,0.01,-0.16,
1.749,0.63,-0.21,-0.20,0.31,0.01,-0.17,
1.751,0.63,-0.06,0.03,0.31,0.01,-0.17,
1.751,0.63,-0.06,0.03,0.31,0.01,-0.18,
1.752,0.63,-0.06,0.03,0.31,0.01,-0.19,
1.755,0.63,-0.06,0.03,0.31,0.02,-0.20,
1.755,0.54,0.04,0.20,0.31,0.02,-0.20,
1.757,0.54,0.04,0.20,0.31,0.04,-0.21,
1.76,0.54,0.04,0.20,0.32,0.05,-0.22,
1.76,0.47,0.06,0.36,0.32,0.05,-0.22,
1.762,0.47,0.06,0.36,0.33,0.06,-0.22,
1.766,0.41,-0.02,0.35,0.33,0.06,-0.22,
1.766,0.41,-0.02,0.35,0.34,0.08,-0.23,
1.767,0.41,-0.02,0.35,0.34,0.09,-0.24,
1.771,0.41,-0.02,0.35,0.35,0.11,-0.24,
1.771,0.37,-0.08,0.24,0.35,0.11,-0.24,
1.773,0.37,-0.08,0.24,0.35,0.13,-0.25,
1.776,0.37,-0.08,0.24,0.35,0.13,-0.25,
1.776,0.35,-0.13,0.13,0.35,0.13,-0.25,
1.777,0.35,-0.13,0.13,0.35,0.13,-0.26,
1.78,0.35,-0.13,0.13,0.35,0.12,-0.26,
1.78,0.28,-0.13,0.09,0.35,0.12,-0.26,
1.783,0.28,-0.13,0.09,0.35,0.11,-0.27,
1.785,0.10,-0.11,0.18,0.35,0.11,-0.27,
1.785,0.10,-0.11,0.18,0.34,0.11,-0.27,
1.787,0.10,-0.11,0.18,0.35,0.11,-0.28,
1.79,0.10,-0.11,0.18,0.35,0.11,-0.28,
1.79,-0.15,-0.08,0.30,0.35,0.11,-0.28,
1.792,-0.15,-0.08,0.30,0.36,0.11,-0.28,
1.795,-0.15,-0.08,0.30,0.36,0.12,-0.28,
1.796,-0.34,-0.06,0.25,0.36,0.12,-0.28,
1.798,-0.34,-0.06,0.25,0.36,0.12,-0.27,
1.801,-0.34,-0.06,0.25,0.36,0.11,-0.27,
1.802,-0.43,-0.00,0.13,0.36,0.11,-0.27,
1.804,-0.43,-0.00,0.13,0.35,0.10,-0.26,
1.806,-0.43,-0.00,0.13,0.35,0.09,-0.26,
1.807,-0.43,-0.00,0.13,0.35,0.08,-0.25,
1.808,-0.37,0.03,0.08,0.35,0.08,-0.25,
1.81,-0.33,0.04,0.09,0.35,0.08,-0.25,
1.81,-0.33,0.04,0.09,0.34,0.06,-0.25,
1.813,-0.33,0.04,0.09,0.34,0.05,-0.25,
1.824,-0.32,0.04,0.10,0.34,0.05,-0.25,
1.825,-0.32,0.04,0.10,0.34,0.04,-0.24,
1.825,-0.32,0.04,0.10,0.34,0.05,-0.24,
1.826,-0.32,0.02,0.18,0.34,0.05,-0.24,
1.826,-0.32,0.02,0.18,0.35,0.06,-0.24,
1.826,-0.32,0.02,0.18,0.35,0.08,-0.24,
1.827,-0.27,-0.04,0.10,0.35,0.08,-0.24,
1.827,-0.27,-0.04,0.10,0.36,0.09,-0.24,
1.827,-0.27,-0.04,0.10,0.36,0.09,-0.24,
1.833,-0.27,-0.04,0.10,0.36,0.09,-0.24,
1.834,-0.25,-0.09,-0.09,0.36,0.09,-0.24,
1.835,-0.25,-0.09,-0.09,0.36,0.09,-0.24,
1.86,-0.25,-0.09,-0.09,0.36,0.10,-0.24,
1.86,-0.35,-0.12,0.01,0.36,0.10,-0.24,
1.861,-0.35,-0.12,0.01,0.37,0.10,-0.24,
1.861,-0.35,-0.12,0.01,0.38,0.11,-0.24,
1.861,-0.37,-0.16,0.31,0.38,0.11,-0.24,
1.861,-0.37,-0.16,0.31,0.38,0.11,-0.24,
1.862,-0.37,-0.16,0.31,0.39,0.11,-0.24,
1.862,-0.24,-0.15,0.41,0.39,0.11,-0.24,
1.862,-0.24,-0.15,0.41,0.39,0.10,-0.24,
1.862,-0.24,-0.15,0.41,0.39,0.09,-0.24,
1.863,0.21,-0.11,0.36,0.39,0.09,-0.24,
1.863,0.21,-0.11,0.36,0.39,0.09,-0.25,
1.863,0.21,-0.11,0.36,0.39,0.08,-0.26,
1.863,0.64,-0.10,0.15,0.39,0.08,-0.26,
1.864,0.64,-0.10,0.15,0.39,0.07,-0.27,
1.864,0.64,-0.10,0.15,0.38,0.07,-0.28,
1.864,0.79,-0.17,-0.11,0.38,0.07,-0.28,
1.864,0.79,-0.17,-0.11,0.37,0.07,-0.29,
1.866,0.72,-0.28,-0.08,0.37,0.07,-0.29,
1.867,0.72,-0.28,-0.08,0.37,0.09,-0.31,
1.868,0.72,-0.28,-0.08,0.37,0.11,-0.32,
1.869,0.72,-0.28,-0.08,0.37,0.13,-0.33,
1.869,0.56,-0.37,0.18,0.37,0.13,-0.33,
1.871,0.56,-0.37,0.18,0.37,0.14,-0.34,
1.875,0.33,-0.29,0.31,0.37,0.14,-0.34,
1.875,0.33,-0.29,0.31,0.37,0.13,-0.34,
1.877,0.33,-0.29,0.31,0.37,0.13,-0.35,
1.879,0.33,-0.29,0.31,0.38,0.13,-0.35,
1.879,0.22,-0.14,0.30,0.38,0.13,-0.35,
1.882,0.22,-0.14,0.30,0.38,0.14,-0.36,
1.885,0.22,-0.14,0.30,0.38,0.15,-0.37,
1.885,0.16,-0.09,0.36,0.38,0.15,-0.37,
1.886,0.16,-0.09,0.36,0.39,0.15,-0.37,
1.889,0.01,0.02,0.32,0.39,0.15,-0.37,
1.889,0.01,0.02,0.32,0.39,0.14,-0.37,
1.891,0.01,0.02,0.32,0.38,0.13,-0.37,
1.894,0.01,0.02,0.32,0.38,0.12,-0.37,
1.894,-0.02,0.06,0.17,0.38,0.12,-0.37,
1.896,-0.02,0.06,0.17,0.37,0.11,-0.37,
1.899,-0.09,0.09,0.10,0.37,0.11,-0.37,
1.899,-0.09,0.09,0.10,0.37,0.09,-0.37,
1.901,-0.09,0.09,0.10,0.36,0.08,-0.37,
1.903,-0.09,0.09,0.10,0.35,0.07,-0.36,
1.904,-0.31,0.10,0.09,0.35,0.07,-0.36,
1.906,-0.31,0.10,0.09,0.35,0.06,-0.35,
1.908,-0.31,0.10,0.09,0.35,0.06,-0.34,
1.908,-0.62,0.13,0.16,0.35,0.06,-0.34,
1.911,-0.62,0.13,0.16,0.35,0.05,-0.33,
1.914,-0.62,0.13,0.16,0.35,0.06,-0.32,
1.914,-0.76,0.17,0.16,0.35,0.06,-0.32,
1.917,-0.76,0.17,0.16,0.36,0.05,-0.31,
1.919,-0.76,0.17,0.16,0.35,0.03,-0.30,
1.919,-0.89,0.34,-0.04,0.35,0.03,-0.30,
1.921,-0.89,0.34,-0.04,0.34,-0.00,-0.29,
1.924,-0.59,0.30,-0.29,0.34,-0.00,-0.29,
1.924,-0.59,0.30,-0.29,0.33,-0.03,-0.29,
1.926,-0.59,0.30,-0.29,0.32,-0.06,-0.29,
1.929,-0.31,-0.00,-0.24,0.32,-0.06,-0.29,
1.929,-0.31,-0.00,-0.24,0.31,-0.08,-0.29,
1.931,-0.31,-0.00,-0.24,0.31,-0.09,-0.29,
1.934,0.10,-0.16,-0.02,0.31,-0.09,-0.29,
1.934,0.10,-0.16,-0.02,0.32,-0.08,-0.29,
1.936,0.10,-0.16,-0.02,0.34,-0.02,-0.31,
1.939,1.49,-0.24,-0.44,0.34,-0.02,-0.31,
1.939,1.49,-0.24,-0.44,0.36,0.03,-0.35,
1.941,1.49,-0.24,-0.44,0.36,0.07,-0.39,
1.943,1.49,-0.24,-0.44,0.34,0.09,-0.43,
1.943,2.00,0.09,-1.79,0.34,0.09,-0.43,
1.946,2.00,0.09,-1.79,0.31,0.12,-0.46,
1.949,1.36,0.42,-1.41,0.31,0.12,-0.46,
1.949,1.36,0.42,-1.41,0.30,0.18,-0.47,
1.952,1.36,0.42,-1.41,0.32,0.27,-0.47,
1.953,1.36,0.42,-1.41,0.35,0.36,-0.46,
1.954,0.21,0.50,0.75,0.35,0.36,-0.46,
1.956,0.21,0.50,0.75,0.40,0.44,-0.45,
1.958,-0.32,0.78,0.71,0.40,0.44,-0.45,
1.958,-0.32,0.78,0.71,0.43,0.49,-0.44,
1.961,-0.32,0.78,0.71,0.44,0.52,-0.43,
1.963,-0.32,0.78,0.71,0.42,0.52,-0.42,
1.963,-0.56,0.99,-0.79,0.42,0.52,-0.42,
1.966,-0.56,0.99,-0.79,0.40,0.49,-0.40,
1.968,-1.00,1.04,-0.90,0.40,0.49,-0.40,
1.969,-1.00,1.04,-0.90,0.37,0.43,-0.38,
1.971,-1.00,1.04,-0.90,0.35,0.35,-0.37,
1.974,-1.11,0.73,-0.28,0.35,0.35,-0.37,
1.974,-1.11,0.73,-0.28,0.33,0.25,-0.36,
1.976,-1.11,0.73,-0.28,0.31,0.14,-0.35,
1.982,-1.91,0.18,0.55,0.31,0.14,-0.35,
1.983,-1.91,0.18,0.55,0.30,0.02,-0.33,
1.983,-1.91,0.18,0.55,0.29,-0.11,-0.31,
1.983,-2.72,-0.23,1.19,0.29,-0.11,-0.31,
1.984,-2.72,-0.23,1.19,0.28,-0.23,-0.27,
1.986,-2.72,-0.23,1.19,0.28,-0.32,-0.23,
1.988,-2.72,-0.23,1.19,0.27,-0.40,-0.20,
1.988,-2.84,-0.53,1.12,0.27,-0.40,-0.20,
1.99,-2.84,-0.53,1.12,0.26,-0.46,-0.16,
1.993,-2.84,-0.53,1.12,0.24,-0.50,-0.12,
1.993,-2.47,-0.93,0.53,0.24,-0.50,-0.12,
1.996,-2.47,-0.93,0.53,0.23,-0.51,-0.09,
1.999,-2.47,-0.93,0.53,0.22,-0.50,-0.06,
2.031,-1.42,-1.35,0.52,0.22,-0.50,-0.06,
2.031,-1.42,-1.35,0.52,0.21,-0.49,-0.06,
2.032,-1.42,-1.35,0.52,0.21,-0.49,-0.07,
2.033,0.02,-1.44,0.87,0.21,-0.49,-0.07,
2.034,0.02,-1.44,0.87,0.21,-0.51,-0.08,
2.034,0.02,-1.44,0.87,0.21,-0.51,-0.10,
2.035,0.52,-0.85,0.80,0.21,-0.51,-0.10,
2.035,0.52,-0.85,0.80,0.21,-0.51,-0.10,
2.035,0.52,-0.85,0.80,0.23,-0.47,-0.10,
2.036,0.74,0.38,0.37,0.23,-0.47,-0.10,
2.036,0.74,0.38,0.37,0.23,-0.43,-0.11,
2.036,1.62,0.57,-0.09,0.23,-0.43,-0.11,
2.036,1.62,0.57,-0.09,0.23,-0.38,-0.14,
2.037,1.62,0.57,-0.09,0.25,-0.31,-0.17,
2.037,1.62,0.57,-0.09,0.26,-0.23,-0.19,
2.037,1.42,1.50,-0.64,0.26,-0.23,-0.19,
2.037,1.42,1.50,-0.64,0.27,-0.17,-0.19,
2.038,0.68,0.91,-1.28,0.27,-0.17,-0.19,
2.038,0.68,0.91,-1.28,0.26,-0.10,-0.18,
2.038,0.68,0.91,-1.28,0.25,-0.02,-0.18,
2.038,0.68,0.91,-1.28,0.22,0.06,-0.20,
2.039,0.75,-0.92,-1.69,0.22,0.06,-0.20,
2.039,0.75,-0.92,-1.69,0.20,0.12,-0.23,
2.039,0.02,-1.69,-0.42,0.20,0.12,-0.23,
2.039,0.02,-1.69,-0.42,0.18,0.18,-0.24,
2.041,0.02,-1.69,-0.42,0.18,0.22,-0.24,
2.044,0.02,-1.69,-0.42,0.17,0.22,-0.25,
2.044,0.24,-2.07,0.25,0.17,0.22,-0.25,
2.047,0.24,-2.07,0.25,0.15,0.20,-0.25,
2.049,0.12,-1.69,0.06,0.15,0.20,-0.25,
2.056,0.12,-1.69,0.06,0.14,0.19,-0.26,
2.059,0.12,-1.69,0.06,0.12,0.21,-0.27,
2.06,0.12,-1.69,0.06,0.13,0.25,-0.27,
2.06,-0.51,-0.67,0.08,0.13,0.25,-0.27,
2.06,-0.51,-0.67,0.08,0.12,0.28,-0.26,
2.061,-1.48,-0.10,0.16,0.12,0.28,-0.26,
2.061,-1.48,-0.10,0.16,0.12,0.28,-0.23,
2.068,-2.01,0.27,0.24,0.12,0.28,-0.23,
2.068,-2.15,0.75,0.49,0.12,0.28,-0.23,
2.069,-2.15,0.75,0.49,0.12,0.26,-0.20,
2.093,-2.16,1.53,0.68,0.12,0.26,-0.20,
2.094,-2.16,1.53,0.68,0.11,0.22,-0.17,
2.095,-2.16,1.53,0.68,0.10,0.16,-0.14,
2.096,-2.16,1.53,0.68,0.10,0.11,-0.11,
2.096,-2.16,1.53,0.68,0.10,0.06,-0.09,
2.097,-2.16,1.53,0.68,0.10,0.01,-0.06,
2.097,-2.16,1.53,0.68,0.11,-0.03,-0.02,
2.097,-2.34,1.81,0.20,0.11,-0.03,-0.02,
2.099,-2.34,1.81,0.20,0.10,-0.10,0.02,
2.1,-2.34,1.81,0.20,0.09,-0.19,0.07,
2.101,-2.34,1.81,0.20,0.08,-0.28,0.11,
2.101,-2.24,1.37,0.18,0.08,-0.28,0.11,
2.101,-2.24,1.37,0.18,0.08,-0.35,0.14,
2.102,-2.24,1.37,0.18,0.08,-0.42,0.16,
2.102,-1.74,0.63,0.47,0.08,-0.42,0.16,
2.103,-1.74,0.63,0.47,0.09,-0.47,0.17,
2.103,-0.98,-0.02,0.19,0.09,-0.47,0.17,
2.104,-0.98,-0.02,0.19,0.09,-0.50,0.18,
2.104,-0.98,-0.02,0.19,0.08,-0.53,0.18,
2.105,-0.44,-0.47,-0.18,0.08,-0.53,0.18,
2.105,-0.44,-0.47,-0.18,0.06,-0.55,0.18,
2.105,-0.44,-0.47,-0.18,0.05,-0.55,0.19,
2.106,0.05,-0.65,-0.22,0.05,-0.55,0.19,
2.106,0.05,-0.65,-0.22,0.05,-0.53,0.19,
2.106,0.05,-0.65,-0.22,0.05,-0.48,0.18,
2.107,0.05,-0.65,-0.22,0.05,-0.42,0.16,
2.107,0.51,-0.48,-0.16,0.05,-0.42,0.16,
2.11,0.51,-0.48,-0.16,0.07,-0.33,0.15,
2.112,0.51,-0.48,-0.16,0.09,-0.22,0.14,
2.113,0.83,-0.08,0.01,0.09,-0.22,0.14,
2.114,0.83,-0.08,0.01,0.12,-0.11,0.13,
2.13,0.83,-0.08,0.01,0.13,-0.03,0.12,
2.131,1.00,0.25,-0.15,0.13,-0.03,0.12,
2.132,1.00,0.25,-0.15,0.14,0.03,0.12,
2.132,1.00,0.25,-0.15,0.13,0.06,0.12,
2.133,0.86,0.29,-0.56,0.13,0.06,0.12,
2.133,0.86,0.29,-0.56,0.11,0.08,0.12,
2.134,0.86,0.29,-0.56,0.10,0.11,0.12,
2.135,0.44,0.21,-0.81,0.10,0.11,0.12,
2.135,0.44,0.21,-0.81,0.09,0.15,0.11,
2.136,-0.54,0.13,-0.76,0.09,0.15,0.11,
2.136,-0.54,0.13,-0.76,0.08,0.20,0.12,
2.137,-0.54,0.13,-0.76,0.06,0.20,0.14,
2.137,-0.54,0.13,-0.76,0.03,0.15,0.17,
2.137,-2.09,0.24,-1.38,0.03,0.15,0.17,
2.148,-2.09,0.24,-1.38,-0.07,-0.03,0.23,
2.15,-2.09,0.24,-1.38,-0.16,-0.17,0.32,
2.15,-4.34,0.83,-2.27,-0.16,-0.17,0.32,
2.15,-4.34,0.83,-2.27,-0.14,-0.09,0.37,
2.15,-4.34,0.83,-2.27,-0.04,-0.01,0.40,
2.151,-3.00,1.60,3.05,-0.04,-0.01,0.40,
2.151,-3.00,1.60,3.05,0.05,-0.01,0.41,
2.157,-1.51,1.31,2.65,0.05,-0.01,0.41,
2.157,-1.51,1.31,2.65,0.11,-0.05,0.42,
2.158,-1.51,1.31,2.65,0.13,-0.15,0.45,
2.158,-1.51,1.31,2.65,0.12,-0.23,0.49,
2.158,-1.25,0.78,0.20,0.12,-0.23,0.49,
2.159,-1.25,0.78,0.20,0.09,-0.29,0.53,
2.162,-1.27,0.38,-1.14,0.09,-0.29,0.53,
2.163,-1.27,0.38,-1.14,0.06,-0.30,0.56,
2.177,-1.27,0.38,-1.14,0.03,-0.30,0.59,
2.177,-1.27,0.38,-1.14,0.01,-0.31,0.60,
2.177,-0.97,0.07,-0.68,0.01,-0.31,0.60,
2.177,-0.97,0.07,-0.68,-0.01,-0.36,0.61,
2.177,-0.77,-0.30,0.74,-0.01,-0.36,0.61,
2.178,-0.77,-0.30,0.74,-0.01,-0.41,0.60,
2.178,-0.77,-0.30,0.74,0.00,-0.43,0.59,
2.178,-0.77,-0.30,0.74,0.03,-0.44,0.58,
2.178,-0.18,-0.60,1.07,0.03,-0.44,0.58,
2.179,-0.18,-0.60,1.07,0.05,-0.42,0.57,
2.182,-0.18,-0.60,1.07,0.06,-0.40,0.56,
2.182,0.21,-0.68,0.55,0.06,-0.40,0.56,
2.184,0.21,-0.68,0.55,0.06,-0.38,0.56,
2.187,0.21,-0.68,0.55,0.06,-0.36,0.55,
2.187,0.80,-0.69,0.23,0.06,-0.36,0.55,
2.189,0.80,-0.69,0.23,0.07,-0.36,0.53,
2.191,0.80,-0.69,0.23,0.06,-0.36,0.52,
2.192,0.88,-0.76,-0.07,0.06,-0.36,0.52,
2.194,0.88,-0.76,-0.07,0.04,-0.35,0.51,
2.196,0.99,-0.65,-0.95,0.04,-0.35,0.51,
2.196,0.99,-0.65,-0.95,0.02,-0.32,0.49,
2.199,0.99,-0.65,-0.95,0.01,-0.26,0.46,
2.203,0.99,-0.65,-0.95,0.01,-0.20,0.43,
2.204,1.47,-0.51,-0.53,0.01,-0.20,0.43,
2.204,1.47,-0.51,-0.53,0.01,-0.12,0.39,
2.207,1.47,-0.51,-0.53,0.03,-0.05,0.37,
2.207,1.53,-0.20,-0.09,0.03,-0.05,0.37,
2.209,1.53,-0.20,-0.09,0.04,0.02,0.35,
2.211,1.53,-0.20,-0.09,0.05,0.09,0.33,
2.211,1.88,-0.23,-0.13,0.05,0.09,0.33,
2.215,1.88,-0.23,-0.13,0.05,0.17,0.30,
2.217,1.88,-0.23,-0.13,0.05,0.25,0.28,
2.219,2.24,-0.45,-0.22,0.05,0.25,0.28,
2.219,2.24,-0.45,-0.22,0.06,0.34,0.24,
2.221,2.45,-0.61,0.08,0.06,0.34,0.24,
2.222,2.45,-0.61,0.08,0.08,0.44,0.20,
2.223,2.45,-0.61,0.08,0.09,0.54,0.17,
2.227,2.45,-0.61,0.08,0.11,0.64,0.14,
2.227,1.87,-0.58,-0.06,0.11,0.64,0.14,
2.228,1.87,-0.58,-0.06,0.12,0.72,0.13,
2.231,1.87,-0.58,-0.06,0.12,0.79,0.11,
2.231,1.42,-0.57,-0.06,0.12,0.79,0.11,
2.237,1.42,-0.57,-0.06,0.13,0.84,0.09,
2.238,1.42,-0.57,-0.06,0.13,0.89,0.06,
2.238,0.96,-0.57,0.10,0.13,0.89,0.06,
2.239,0.96,-0.57,0.10,0.14,0.91,0.05,
2.246,0.96,-0.57,0.10,0.14,0.93,0.03,
2.247,0.96,-0.57,0.10,0.15,0.93,0.02,
2.247,0.96,-0.57,0.10,0.15,0.94,0.00,
2.247,0.63,-0.60,0.15,0.15,0.94,0.00,
2.248,0.25,-0.58,0.24,0.15,0.94,0.00,
2.248,0.25,-0.58,0.24,0.15,0.93,-0.01,
2.254,-0.21,-0.57,0.27,0.15,0.93,-0.01,
2.255,-0.21,-0.57,0.27,0.14,0.92,-0.02,
2.255,-0.21,-0.57,0.27,0.13,0.89,-0.02,
2.256,-0.21,-0.57,0.27,0.12,0.85,-0.02,
2.256,-0.59,-0.45,0.51,0.12,0.85,-0.02,
2.258,-0.59,-0.45,0.51,0.11,0.79,-0.02,
2.261,-0.59,-0.45,0.51,0.11,0.72,-0.01,
2.261,-0.81,-0.27,0.85,0.11,0.72,-0.01,
2.263,-0.81,-0.27,0.85,0.10,0.64,-0.01,
2.266,-0.81,-0.27,0.85,0.09,0.55,0.01,
2.267,-0.89,-0.01,0.92,0.09,0.55,0.01,
2.27,-0.89,-0.01,0.92,0.08,0.46,0.01,
2.271,-0.89,-0.01,0.92,0.07,0.37,0.02,
2.271,-0.88,0.24,0.75,0.07,0.37,0.02,
2.273,-0.88,0.24,0.75,0.07,0.28,0.03,
2.276,-0.88,0.50,0.55,0.07,0.28,0.03,
2.276,-0.88,0.50,0.55,0.06,0.21,0.04,
2.278,-0.88,0.50,0.55,0.06,0.15,0.05,
2.28,-0.88,0.50,0.55,0.05,0.10,0.06,
2.281,-0.88,0.60,0.34,0.05,0.10,0.06,
2.284,-0.88,0.60,0.34,0.05,0.06,0.07,
2.285,-0.88,0.60,0.34,0.05,0.03,0.08,
2.286,-0.89,0.63,0.40,0.05,0.03,0.08,
2.288,-0.89,0.63,0.40,0.05,-0.01,0.09,
2.29,-0.89,0.63,0.40,0.05,-0.05,0.11,
2.29,-0.92,0.59,0.68,0.05,-0.05,0.11,
2.293,-0.92,0.59,0.68,0.05,-0.10,0.12,
2.296,-0.86,0.42,0.69,0.05,-0.10,0.12,
2.297,-0.86,0.42,0.69,0.06,-0.15,0.14,
2.298,-0.86,0.42,0.69,0.06,-0.17,0.15,
2.301,-0.86,0.42,0.69,0.06,-0.19,0.16,
2.302,-0.73,0.29,0.45,0.06,-0.19,0.16,
2.303,-0.73,0.29,0.45,0.06,-0.20,0.17,
2.31,-0.57,0.12,0.24,0.06,-0.20,0.17,
2.311,-0.67,0.08,0.31,0.06,-0.20,0.17,
2.312,-0.67,0.08,0.31,0.06,-0.22,0.18,
2.312,-0.67,0.08,0.31,0.05,-0.23,0.19,
2.312,-0.67,0.08,0.31,0.05,-0.23,0.20,
2.313,-0.67,0.08,0.31,0.06,-0.24,0.21,
2.321,-0.50,0.14,0.55,0.06,-0.24,0.21,
2.322,-0.50,0.14,0.55,0.06,-0.27,0.21,
2.322,-0.50,0.14,0.55,0.06,-0.32,0.21,
2.323,-0.33,0.17,0.58,0.06,-0.32,0.21,
2.323,-0.33,0.17,0.58,0.06,-0.36,0.20,
2.324,-0.33,0.17,0.58,0.06,-0.40,0.20,
2.326,-0.33,0.17,0.58,0.07,-0.40,0.20,
2.326,-0.26,0.02,0.35,0.07,-0.40,0.20,
2.328,-0.26,0.02,0.35,0.07,-0.39,0.19,
2.352,-0.26,0.02,0.35,0.07,-0.36,0.18,
2.352,0.51,-0.31,-0.11,0.07,-0.36,0.18,
2.352,0.51,-0.31,-0.11,0.06,-0.33,0.17,
2.353,0.51,-0.31,-0.11,0.07,-0.28,0.16,
2.353,0.65,-0.29,-0.23,0.07,-0.28,0.16,
2.353,0.65,-0.29,-0.23,0.07,-0.21,0.16,
2.353,0.65,-0.29,-0.23,0.08,-0.13,0.14,
2.354,0.95,-0.36,-0.21,0.08,-0.13,0.14,
2.354,0.95,-0.36,-0.21,0.09,-0.05,0.13,
2.354,0.95,-0.36,-0.21,0.09,-0.02,0.12,
2.354,1.06,-0.06,0.03,0.09,-0.02,0.12,
2.354,1.06,-0.06,0.03,0.09,-0.01,0.10,
2.355,1.06,-0.06,0.03,0.10,0.00,0.09,
2.355,0.76,0.04,-0.02,0.10,0.00,0.09,
2.355,0.76,0.04,-0.02,0.10,0.02,0.08,
2.355,0.76,0.04,-0.02,0.10,0.05,0.07,
2.355,0.24,-0.11,-0.13,0.10,0.05,0.07,
2.36,0.24,-0.11,-0.13,0.10,0.07,0.07,
2.36,0.24,-0.11,-0.13,0.09,0.08,0.07,
2.361,-0.23,-0.20,-0.03,0.09,0.08,0.07,
2.362,-0.23,-0.20,-0.03,0.09,0.10,0.07,
2.365,-0.23,-0.20,-0.03,0.09,0.10,0.07,
2.365,-0.41,-0.15,0.14,0.09,0.10,0.07,
2.367,-0.41,-0.15,0.14,0.09,0.10,0.08,
2.37,-0.41,-0.15,0.14,0.09,0.09,0.09,
2.37,-0.40,-0.04,0.33,0.09,0.09,0.09,
2.372,-0.40,-0.04,0.33,0.09,0.09,0.09,
2.374,-0.40,-0.04,0.33,0.09,0.07,0.09,
2.375,-0.24,0.05,0.36,0.09,0.07,0.09,
2.377,-0.24,0.05,0.36,0.09,0.06,0.09,
2.38,-0.24,0.05,0.36,0.09,0.05,0.09,
2.38,-0.16,0.06,0.25,0.09,0.05,0.09,
2.383,-0.16,0.06,0.25,0.10,0.04,0.09,
2.386,-0.16,0.06,0.25,0.10,0.03,0.09,
2.386,-0.22,-0.05,0.18,0.10,0.03,0.09,
2.387,-0.22,-0.05,0.18,0.09,0.01,0.09,
2.389,-0.22,-0.05,0.18,0.09,-0.01,0.09,
2.39,-0.40,-0.36,0.25,0.09,-0.01,0.09,
2.392,-0.40,-0.36,0.25,0.08,-0.03,0.09,
2.394,-0.40,-0.36,0.25,0.08,-0.04,0.09,
2.395,-0.23,-0.35,0.31,0.08,-0.04,0.09,
2.397,-0.23,-0.35,0.31,0.09,-0.03,0.09,
2.4,0.01,0.16,0.46,0.09,-0.03,0.09,
2.4,0.01,0.16,0.46,0.10,-0.04,0.09,
2.405,0.01,0.16,0.46,0.10,-0.05,0.08,
2.405,0.01,0.16,0.46,0.11,-0.04,0.09,
2.405,0.09,0.22,0.15,0.11,-0.04,0.09,
2.407,0.09,0.22,0.15,0.11,-0.02,0.09,
2.409,0.09,0.22,0.15,0.11,-0.02,0.08,
2.41,0.01,0.08,-0.04,0.11,-0.02,0.08,
2.412,0.01,0.08,-0.04,0.10,-0.02,0.08,
2.415,0.01,0.08,-0.04,0.10,-0.03,0.08,
2.416,-0.23,0.08,-0.03,0.10,-0.03,0.08,
2.419,-0.23,0.08,-0.03,0.09,-0.04,0.09,
2.423,-0.23,0.08,-0.03,0.09,-0.04,0.09,
2.423,-0.38,0.10,-0.14,0.09,-0.04,0.09,
2.423,-0.38,0.10,-0.14,0.08,-0.03,0.10,
2.426,-0.38,0.10,-0.14,0.08,-0.02,0.10,
2.427,0.25,-0.27,-0.19,0.08,-0.02,0.10,
2.427,0.25,-0.27,-0.19,0.08,0.01,0.09,
2.43,1.35,-0.75,0.08,0.08,0.01,0.09,
2.43,1.35,-0.75,0.08,0.08,0.07,0.07,
2.433,1.35,-0.75,0.08,0.08,0.09,0.04,
2.438,1.35,-0.75,0.08,0.07,0.07,0.01,
2.438,0.84,-0.44,0.06,0.07,0.07,0.01,
2.439,0.84,-0.44,0.06,0.06,0.07,0.00,
2.439,-0.97,0.23,0.51,0.06,0.07,0.00,
2.44,-0.97,0.23,0.51,0.08,0.10,0.02,
2.442,-0.97,0.23,0.51,0.09,0.13,0.05,
2.444,-0.97,0.23,0.51,0.09,0.13,0.08,
2.444,-1.46,0.33,0.40,0.09,0.13,0.08,
2.446,-1.46,0.33,0.40,0.09,0.12,0.10,
2.449,-1.46,0.33,0.40,0.09,0.09,0.11,
2.45,-1.27,0.49,0.40,0.09,0.09,0.11,
2.453,-1.27,0.49,0.40,0.09,0.06,0.12,
2.454,-1.27,0.49,0.40,0.09,0.03,0.14,
2.454,-1.20,0.62,0.56,0.09,0.03,0.14,
2.456,-1.20,0.62,0.56,0.10,0.01,0.15,
2.459,-0.85,0.40,0.62,0.10,0.01,0.15,
2.459,-0.85,0.40,0.62,0.11,-0.00,0.15,
2.461,-0.85,0.40,0.62,0.12,-0.01,0.16,
2.464,-0.85,0.40,0.62,0.12,-0.02,0.17,
2.464,-0.48,0.10,0.52,0.12,-0.02,0.17,
2.466,-0.48,0.10,0.52,0.13,-0.03,0.17,
2.469,-0.48,-0.11,0.27,0.13,-0.03,0.17,
2.469,-0.48,-0.11,0.27,0.13,-0.04,0.18,
2.471,-0.48,-0.11,0.27,0.12,-0.06,0.19,
2.474,-0.48,-0.11,0.27,0.11,-0.07,0.19,
2.474,-0.49,-0.21,0.18,0.11,-0.07,0.19,
2.477,-0.49,-0.21,0.18,0.11,-0.09,0.19,
2.479,-0.31,-0.25,0.27,0.11,-0.09,0.19,
2.479,-0.31,-0.25,0.27,0.11,-0.11,0.19,
2.481,-0.31,-0.25,0.27,0.10,-0.12,0.19,
2.486,-0.06,-0.24,0.36,0.10,-0.12,0.19,
2.487,-0.06,-0.24,0.36,0.10,-0.13,0.19,
2.487,-0.06,-0.24,0.36,0.10,-0.14,0.18,
2.49,-0.06,-0.24,0.36,0.10,-0.14,0.17,
2.49,0.17,-0.18,0.33,0.10,-0.14,0.17,
2.491,0.17,-0.18,0.33,0.10,-0.13,0.17,
2.494,0.32,-0.08,0.38,0.10,-0.13,0.17,
2.517,0.32,-0.08,0.38,0.10,-0.13,0.16,
2.518,0.32,-0.08,0.38,0.10,-0.13,0.16,
2.518,0.41,-0.04,0.46,0.10,-0.13,0.16,
2.518,0.41,-0.04,0.46,0.10,-0.12,0.15,
2.518,0.41,-0.04,0.46,0.11,-0.11,0.14,
2.518,0.41,-0.04,0.46,0.12,-0.09,0.13,
2.518,0.42,-0.02,0.45,0.12,-0.09,0.13,
2.519,0.42,-0.02,0.45,0.13,-0.07,0.12,
2.519,0.42,-0.02,0.45,0.13,-0.05,0.12,
2.519,0.37,-0.02,0.29,0.13,-0.05,0.12,
2.519,0.37,-0.02,0.29,0.13,-0.04,0.11,
2.519,0.37,-0.02,0.29,0.13,-0.03,0.10,
2.519,0.36,0.06,0.11,0.13,-0.03,0.10,
2.52,0.36,0.06,0.11,0.13,-0.03,0.10,
2.52,0.36,0.06,0.11,0.13,-0.02,0.09,
2.52,0.21,0.08,0.05,0.13,-0.02,0.09,
2.521,0.21,0.08,0.05,0.13,-0.01,0.09,
2.526,0.12,0.11,0.09,0.13,-0.01,0.09,
2.526,0.12,0.11,0.09,0.13,-0.01,0.08,
2.526,0.12,0.11,0.09,0.13,-0.01,0.08,
2.53,-0.08,0.00,0.10,0.13,-0.01,0.08,
2.53,-0.08,0.00,0.10,0.13,-0.01,0.08,
2.532,-0.08,0.00,0.10,0.13,-0.02,0.08,
2.535,-0.08,0.00,0.10,0.13,-0.02,0.08,
2.537,-0.26,-0.08,0.07,0.13,-0.02,0.08,
2.538,-0.26,-0.08,0.07,0.13,-0.02,0.08,
2.539,-0.26,-0.08,0.07,0.13,-0.02,0.09,
2.539,-0.36,-0.07,0.14,0.13,-0.02,0.09,
2.54,-0.36,-0.07,0.14,0.13,-0.04,0.09,
2.543,-0.36,-0.07,0.14,0.12,-0.06,0.08,
2.544,-0.32,-0.03,0.18,0.12,-0.06,0.08,
2.546,-0.32,-0.03,0.18,0.12,-0.08,0.08,
2.548,-0.32,-0.03,0.18,0.11,-0.10,0.09,
2.549,-0.29,-0.02,0.24,0.11,-0.10,0.09,
2.559,-0.29,-0.02,0.24,0.11,-0.12,0.09,
2.561,-0.29,-0.02,0.24,0.11,-0.13,0.09,
2.561,-0.19,-0.03,0.25,0.11,-0.13,0.09,
2.562,-0.19,-0.03,0.25,0.11,-0.15,0.09,
2.562,-0.19,-0.03,0.25,0.10,-0.16,0.09,
2.563,-0.01,-0.04,0.15,0.10,-0.16,0.09,
2.563,-0.01,-0.04,0.15,0.10,-0.17,0.08,
2.563,-0.01,-0.04,0.15,0.10,-0.16,0.08,
2.564,0.05,-0.11,-0.07,0.10,-0.16,0.08,
2.566,0.05,-0.11,-0.07,0.10,-0.13,0.07,
2.572,0.05,-0.11,-0.07,0.10,-0.11,0.06,
2.573,0.13,-0.17,0.01,0.10,-0.11,0.06,
2.573,0.13,-0.17,0.01,0.10,-0.10,0.06,
2.573,0.13,-0.17,0.01,0.10,-0.11,0.06,
2.574,0.07,-0.05,0.30,0.10,-0.11,0.06,
2.575,0.07,-0.05,0.30,0.10,-0.10,0.06,
2.578,0.07,-0.05,0.30,0.11,-0.08,0.06,
2.578,-0.02,0.04,0.17,0.11,-0.08,0.06,
2.58,-0.02,0.04,0.17,0.11,-0.05,0.06,
2.583,-0.02,0.04,0.17,0.12,-0.03,0.06,
2.583,0.03,0.06,0.10,0.12,-0.03,0.06,
2.587,0.03,0.06,0.10,0.11,-0.02,0.05,
2.588,0.03,0.06,0.10,0.11,-0.03,0.05,
2.588,-0.10,0.10,0.18,0.11,-0.03,0.05,
2.59,-0.10,0.10,0.18,0.11,-0.06,0.06,
2.593,-0.10,0.10,0.18,0.11,-0.07,0.06,
2.593,-0.22,0.03,0.29,0.11,-0.07,0.06,
2.596,-0.22,0.03,0.29,0.11,-0.08,0.06,
2.599,-0.22,0.03,0.29,0.11,-0.09,0.05,
2.599,-0.40,-0.00,0.22,0.11,-0.09,0.05,
2.602,-0.40,-0.00,0.22,0.11,-0.10,0.06,
2.605,-0.40,-0.00,0.22,0.10,-0.12,0.06,
2.605,-0.64,0.13,0.07,0.10,-0.12,0.06,
2.607,-0.64,0.13,0.07,0.10,-0.14,0.07,
2.608,-0.64,0.13,0.07,0.09,-0.14,0.08,
2.608,-0.71,0.24,-0.02,0.09,-0.14,0.08,
2.61,-0.71,0.24,-0.02,0.09,-0.15,0.09,
2.613,-0.71,0.24,-0.02,0.08,-0.15,0.10,
2.613,-0.58,0.24,0.10,0.08,-0.15,0.10,
2.622,-0.58,0.24,0.10,0.08,-0.15,0.11,
2.623,-0.58,0.24,0.10,0.08,-0.16,0.11,
2.623,-0.35,0.14,0.25,0.08,-0.16,0.11,
2.624,-0.35,0.14,0.25,0.08,-0.16,0.12,
2.625,-0.35,0.14,0.25,0.08,-0.16,0.12,
2.625,-0.19,-0.00,0.30,0.08,-0.16,0.12,
2.629,-0.19,-0.00,0.30,0.08,-0.15,0.13,
2.63,-0.19,-0.00,0.30,0.08,-0.15,0.13,
2.63,-0.16,0.03,0.23,0.08,-0.15,0.13,
2.631,-0.16,0.03,0.23,0.08,-0.14,0.13,
2.643,-0.16,0.03,0.23,0.08,-0.13,0.13,
2.643,-0.20,0.04,0.09,0.08,-0.13,0.13,
2.644,-0.20,0.04,0.09,0.08,-0.12,0.14,
2.644,-0.20,0.04,0.09,0.07,-0.12,0.14,
2.644,-0.16,0.11,-0.03,0.07,-0.12,0.14,
2.644,-0.16,0.11,-0.03,0.06,-0.12,0.15,
2.645,-0.16,0.11,-0.03,0.05,-0.12,0.15,
2.645,-0.11,0.19,-0.11,0.05,-0.12,0.15,
2.645,-0.11,0.19,-0.11,0.04,-0.12,0.15,
2.647,-0.11,0.19,-0.11,0.03,-0.12,0.15,
2.647,-0.02,0.22,-0.02,0.03,-0.12,0.15,
2.65,-0.02,0.22,-0.02,0.03,-0.11,0.16,
2.654,-0.02,0.22,-0.02,0.02,-0.10,0.16,
2.655,0.01,0.19,0.04,0.02,-0.10,0.16,
2.655,0.01,0.19,0.04,0.02,-0.08,0.16,
2.657,0.01,0.19,0.04,0.01,-0.07,0.17,
2.658,-0.07,0.19,0.07,0.01,-0.07,0.17,
2.678,-0.07,0.19,0.07,0.01,-0.06,0.18,
2.678,-0.07,0.19,0.07,0.00,-0.06,0.18,
2.678,-0.19,0.25,0.10,0.00,-0.06,0.18,
2.678,-0.19,0.25,0.10,-0.01,-0.05,0.19,
2.679,-0.39,0.42,0.09,-0.01,-0.05,0.19,
2.679,-0.39,0.42,0.09,-0.02,-0.04,0.20,
2.679,-0.39,0.42,0.09,-0.02,-0.05,0.21,
2.679,-0.58,0.57,0.17,-0.02,-0.05,0.21,
2.68,-0.58,0.57,0.17,-0.03,-0.05,0.22,
2.68,-0.58,0.57,0.17,-0.04,-0.05,0.23,
2.68,-0.58,0.57,0.17,-0.05,-0.05,0.24,
2.68,-0.63,0.59,0.33,-0.05,-0.05,0.24,
2.681,-0.63,0.59,0.33,-0.05,-0.06,0.26,
2.683,-0.63,0.59,0.33,-0.05,-0.06,0.27,
2.684,-0.59,0.52,0.52,-0.05,-0.06,0.27,
2.686,-0.59,0.52,0.52,-0.05,-0.06,0.29,
2.688,-0.59,0.52,0.52,-0.04,-0.06,0.30,
2.688,-0.54,0.34,0.60,-0.04,-0.06,0.30,
2.689,-0.54,0.34,0.60,-0.05,-0.05,0.31,
2.692,-0.54,0.34,0.60,-0.05,-0.04,0.33,
2.692,-0.43,0.26,0.54,-0.05,-0.04,0.33,
2.695,-0.43,0.26,0.54,-0.05,-0.02,0.34,
2.697,-0.43,0.26,0.54,-0.05,-0.01,0.35,
2.697,-0.41,0.14,0.54,-0.05,-0.01,0.35,
2.699,-0.41,0.14,0.54,-0.05,0.02,0.37,
2.702,-0.41,0.14,0.54,-0.05,0.04,0.39,
2.702,-0.51,0.04,0.62,-0.05,0.04,0.39,
2.704,-0.51,0.04,0.62,-0.05,0.06,0.41,
2.707,-0.51,0.04,0.62,-0.05,0.08,0.42,
2.707,-0.63,0.08,0.65,-0.05,0.08,0.42,
2.709,-0.63,0.08,0.65,-0.05,0.10,0.44,
2.711,-0.63,0.08,0.65,-0.06,0.11,0.47,
2.712,-0.81,0.28,0.63,-0.06,0.11,0.47,
2.714,-0.81,0.28,0.63,-0.06,0.12,0.49,
2.72,-0.81,0.28,0.63,-0.07,0.11,0.52,
2.72,-0.99,0.63,0.61,-0.07,0.11,0.52,
2.722,-0.99,0.63,0.61,-0.08,0.10,0.55,
2.723,-0.99,0.63,0.61,-0.09,0.08,0.59,
2.724,-1.14,0.96,0.57,-0.09,0.08,0.59,
2.724,-1.14,0.96,0.57,-0.10,0.08,0.63,
2.727,-1.16,1.26,0.61,-0.10,0.08,0.63,
2.729,-1.16,1.26,0.61,-0.11,0.08,0.68,
2.729,-1.16,1.26,0.61,-0.11,0.09,0.72,
2.732,-1.16,1.26,0.61,-0.11,0.12,0.77,
2.732,-1.03,1.45,0.70,-0.11,0.12,0.77,
2.741,-1.03,1.45,0.70,-0.11,0.15,0.81,
2.741,-1.03,1.45,0.70,-0.10,0.19,0.84,
2.741,-0.90,1.45,0.74,-0.10,0.19,0.84,
2.742,-0.90,1.45,0.74,-0.10,0.23,0.87,
2.742,-0.90,1.45,0.74,-0.09,0.27,0.90,
2.742,-0.89,1.38,0.78,-0.09,0.27,0.90,
2.744,-0.89,1.38,0.78,-0.09,0.31,0.93,
2.746,-0.89,1.38,0.78,-0.09,0.35,0.96,
2.747,-0.97,1.22,0.89,-0.09,0.35,0.96,
2.749,-0.97,1.22,0.89,-0.09,0.39,1.00,
2.752,-0.93,1.08,0.95,-0.09,0.39,1.00,
2.752,-0.93,1.08,0.95,-0.08,0.44,1.04,
2.754,-0.93,1.08,0.95,-0.08,0.48,1.08,
2.757,-0.93,1.08,0.95,-0.07,0.52,1.12,
2.757,-0.75,1.01,0.99,-0.07,0.52,1.12,
2.759,-0.75,1.01,0.99,-0.07,0.55,1.15,
2.761,-0.75,1.01,0.99,-0.06,0.58,1.17,
2.761,-0.67,1.06,0.98,-0.06,0.58,1.17,
2.764,-0.67,1.06,0.98,-0.05,0.62,1.19,
2.767,-0.71,1.09,0.77,-0.05,0.62,1.19,
2.767,-0.71,1.09,0.77,-0.03,0.67,1.21,
2.769,-0.71,1.09,0.77,-0.02,0.72,1.22,
2.771,-0.71,1.09,0.77,-0.01,0.77,1.22,
2.772,-0.89,1.05,0.49,-0.01,0.77,1.22,
2.774,-0.89,1.05,0.49,-0.01,0.82,1.22,
2.776,-0.89,1.05,0.49,-0.01,0.85,1.22,
2.777,-1.26,0.92,0.25,-0.01,0.85,1.22,
2.779,-1.26,0.92,0.25,-0.02,0.88,1.23,
2.781,-1.26,0.92,0.25,-0.02,0.91,1.24,
2.781,-1.70,0.77,0.13,-0.02,0.91,1.24,
2.785,-1.70,0.77,0.13,-0.03,0.94,1.24,
2.787,-1.70,0.77,0.13,-0.03,0.98,1.25,
2.787,-2.10,0.53,0.04,-0.03,0.98,1.25,
2.788,-2.10,0.53,0.04,-0.04,1.04,1.25,
2.791,-2.10,0.53,0.04,-0.06,1.10,1.25,
2.791,-2.52,0.48,-0.03,-0.06,1.10,1.25,
2.793,-2.52,0.48,-0.03,-0.06,1.18,1.24,
2.797,-2.52,0.48,-0.03,-0.07,1.25,1.24,
2.797,-2.79,0.47,0.23,-0.07,1.25,1.24,
2.799,-2.79,0.47,0.23,-0.07,1.32,1.23,
2.802,-2.79,0.47,0.23,-0.06,1.40,1.22,
2.803,-2.68,0.48,0.69,-0.06,1.40,1.22,
2.805,-2.68,0.48,0.69,-0.05,1.48,1.22,
2.807,-2.68,0.48,0.69,-0.02,1.56,1.21,
2.808,-2.15,0.42,1.00,-0.02,1.56,1.21,
2.809,-2.15,0.42,1.00,0.01,1.65,1.20,
2.811,-2.15,0.42,1.00,0.04,1.73,1.19,
2.812,-1.48,0.30,0.72,0.04,1.73,1.19,
2.814,-1.48,0.30,0.72,0.07,1.81,1.16,
2.82,-1.48,0.30,0.72,0.08,1.89,1.14,
2.82,-0.82,0.15,0.18,0.08,1.89,1.14,
2.821,-0.82,0.15,0.18,0.09,1.97,1.12,
2.823,-0.82,0.15,0.18,0.10,2.05,1.09,
2.824,-0.33,-0.03,-0.13,0.10,2.05,1.09,
2.824,-0.33,-0.03,-0.13,0.11,2.10,1.06,
2.855,0.23,-0.19,-0.26,0.11,2.10,1.06,
2.856,0.23,-0.19,-0.26,0.12,2.14,1.03,
2.856,0.39,-0.09,-0.80,0.12,2.14,1.03,
2.856,0.39,-0.09,-0.80,0.13,2.23,0.98,
2.856,0.39,-0.09,-0.80,0.13,2.36,0.91,
2.856,0.39,-0.09,-0.80,0.12,2.49,0.83,
2.857,0.39,-0.09,-0.80,0.10,2.59,0.75,
2.857,0.39,-0.09,-0.80,0.09,2.66,0.67,
2.857,-0.26,0.34,-0.42,0.09,2.66,0.67,
2.857,-0.26,0.34,-0.42,0.07,2.70,0.61,
2.857,-1.40,0.64,0.49,0.07,2.70,0.61,
2.857,-1.40,0.64,0.49,0.06,2.73,0.55,
2.858,-1.40,0.64,0.49,0.06,2.76,0.51,
2.858,-2.31,0.37,1.49,0.06,2.76,0.51,
2.858,-2.31,0.37,1.49,0.07,2.80,0.47,
2.858,-2.71,-0.31,2.32,0.07,2.80,0.47,
2.858,-2.71,-0.31,2.32,0.09,2.85,0.43,
2.859,-2.71,-0.31,2.32,0.12,2.89,0.38,
2.859,-2.71,-0.31,2.32,0.17,2.92,0.33,
2.859,-2.84,-0.89,2.69,0.17,2.92,0.33,
2.859,-2.84,-0.89,2.69,0.21,2.93,0.28,
2.86,-2.84,-0.89,2.69,0.25,2.94,0.23,
2.863,-3.11,-1.34,2.39,0.25,2.94,0.23,
2.863,-3.11,-1.34,2.39,0.29,2.94,0.17,
2.865,-3.11,-1.34,2.39,0.32,2.94,0.12,
2.866,-3.40,-1.55,1.79,0.32,2.94,0.12,
2.868,-3.40,-1.55,1.79,0.35,2.95,0.06,
2.87,-3.40,-1.55,1.79,0.37,2.94,0.01,
2.87,-3.80,-1.62,1.41,0.37,2.94,0.01,
2.873,-3.80,-1.62,1.41,0.39,2.92,-0.04,
2.875,-3.80,-1.62,1.41,0.41,2.88,-0.09,
2.875,-4.40,-1.63,1.26,0.41,2.88,-0.09,
2.877,-4.40,-1.63,1.26,0.42,2.84,-0.13,
2.88,-4.40,-1.63,1.26,0.43,2.79,-0.16,
2.88,-4.92,-1.60,1.39,0.43,2.79,-0.16,
2.882,-4.92,-1.60,1.39,0.45,2.74,-0.19,
2.885,-5.29,-1.62,1.69,0.45,2.74,-0.19,
2.886,-5.29,-1.62,1.69,0.46,2.69,-0.21,
2.887,-5.29,-1.62,1.69,0.48,2.62,-0.23,
2.89,-5.29,-1.62,1.69,0.49,2.55,-0.26,
2.89,-4.98,-1.83,1.78,0.49,2.55,-0.26,
2.892,-4.98,-1.83,1.78,0.50,2.48,-0.29,
2.895,-4.98,-1.83,1.78,0.51,2.42,-0.32,
2.895,-4.57,-1.87,1.86,0.51,2.42,-0.32,
2.897,-4.57,-1.87,1.86,0.52,2.38,-0.35,
2.9,-4.57,-1.87,1.86,0.53,2.34,-0.38,
2.901,-4.08,-1.53,1.89,0.53,2.34,-0.38,
2.904,-4.08,-1.53,1.89,0.54,2.31,-0.41,
2.905,-4.08,-1.53,1.89,0.55,2.27,-0.44,
2.906,-3.64,-1.09,1.75,0.55,2.27,-0.44,
2.907,-3.64,-1.09,1.75,0.56,2.23,-0.48,
2.911,-3.64,-1.09,1.75,0.56,2.19,-0.52,
2.911,-3.50,-0.86,1.66,0.56,2.19,-0.52,
2.914,-3.50,-0.86,1.66,0.56,2.15,-0.55,
2.915,-3.50,-0.86,1.66,0.56,2.11,-0.59,
2.915,-3.53,-0.84,1.59,0.56,2.11,-0.59,
2.918,-3.53,-0.84,1.59,0.56,2.07,-0.62,
2.92,-3.53,-0.84,1.59,0.55,2.05,-0.66,
2.92,-3.44,-1.02,1.58,0.55,2.05,-0.66,
2.922,-3.44,-1.02,1.58,0.55,2.02,-0.69,
2.925,-3.44,-1.02,1.58,0.55,2.00,-0.72,
2.925,-3.19,-1.26,1.58,0.55,2.00,-0.72,
2.927,-3.19,-1.26,1.58,0.54,1.97,-0.75,
2.93,-3.03,-1.43,1.63,0.54,1.97,-0.75,
2.93,-3.03,-1.43,1.63,0.53,1.94,-0.78,
2.932,-3.03,-1.43,1.63,0.52,1.91,-0.81,
2.938,-3.03,-1.43,1.63,0.52,1.88,-0.84,
2.938,-2.92,-1.60,1.67,0.52,1.88,-0.84,
2.939,-2.92,-1.60,1.67,0.51,1.84,-0.86,
2.94,-2.92,-1.60,1.67,0.50,1.80,-0.89,
2.94,-2.69,-1.68,1.67,0.50,1.80,-0.89,
2.946,-2.36,-1.62,1.55,0.50,1.80,-0.89,
2.947,-2.36,-1.62,1.55,0.49,1.76,-0.91,
2.947,-2.36,-1.62,1.55,0.49,1.73,-0.93,
2.947,-2.36,-1.62,1.55,0.49,1.70,-0.96,
2.954,-2.36,-1.62,1.55,0.48,1.67,-0.98,
2.955,-2.01,-1.47,1.41,0.48,1.67,-0.98,
2.955,-2.01,-1.47,1.41,0.48,1.64,-1.00,
2.956,-2.01,-1.47,1.41,0.48,1.62,-1.01,
2.956,-1.71,-1.30,1.20,0.48,1.62,-1.01,
2.957,-1.71,-1.30,1.20,0.48,1.60,-1.03,
2.96,-1.71,-1.30,1.20,0.48,1.59,-1.05,
2.96,-1.47,-1.17,0.90,0.48,1.59,-1.05,
2.962,-1.47,-1.17,0.90,0.49,1.60,-1.06,
2.964,-1.47,-1.17,0.90,0.49,1.62,-1.08,
2.965,-1.27,-1.13,0.47,0.49,1.62,-1.08,
2.968,-1.27,-1.13,0.47,0.49,1.63,-1.09,
2.97,-1.13,-0.82,0.33,0.49,1.63,-1.09,
2.97,-1.13,-0.82,0.33,0.49,1.62,-1.10,
2.972,-1.13,-0.82,0.33,0.49,1.59,-1.10,
2.975,-1.13,-0.82,0.33,0.50,1.58,-1.10,
2.975,-1.02,-0.36,0.04,0.50,1.58,-1.10,
2.977,-1.02,-0.36,0.04,0.50,1.58,-1.10,
2.98,-1.02,-0.36,0.04,0.51,1.59,-1.10,
2.98,-1.00,-0.06,-0.21,0.51,1.59,-1.10,
2.982,-1.00,-0.06,-0.21,0.51,1.59,-1.09,
2.985,-1.00,-0.06,-0.21,0.52,1.59,-1.08,
2.986,-1.02,0.04,-0.22,0.52,1.59,-1.08,
2.987,-1.02,0.04,-0.22,0.52,1.58,-1.06,
2.991,-1.02,0.04,-0.22,0.53,1.56,-1.04,
3.02,-0.90,0.05,-0.38,0.53,1.56,-1.04,
3.02,-0.90,0.05,-0.38,0.53,1.56,-1.03,
3.02,-0.65,-0.03,-0.65,0.53,1.56,-1.03,
3.02,-0.65,-0.03,-0.65,0.53,1.57,-1.01,
3.021,-0.65,-0.03,-0.65,0.53,1.58,-1.00,
3.021,-0.65,-0.03,-0.65,0.53,1.60,-0.98,
3.021,-0.34,-0.26,-0.71,0.53,1.60,-0.98,
3.021,-0.34,-0.26,-0.71,0.54,1.63,-0.97,
3.021,-0.34,-0.26,-0.71,0.54,1.65,-0.96,
3.021,0.06,-0.49,-0.68,0.54,1.65,-0.96,
3.022,0.06,-0.49,-0.68,0.54,1.68,-0.96,
3.022,0.06,-0.49,-0.68,0.55,1.71,-0.96,
3.022,0.38,-0.75,-0.60,0.55,1.71,-0.96,
3.022,0.38,-0.75,-0.60,0.55,1.74,-0.97,
3.022,0.38,-0.75,-0.60,0.55,1.76,-0.97,
3.022,0.52,-0.90,-0.66,0.55,1.76,-0.97,
3.023,0.52,-0.90,-0.66,0.55,1.78,-0.98,
3.023,0.52,-0.90,-0.66,0.55,1.80,-0.98,
3.023,0.50,-0.95,-0.69,0.55,1.80,-0.98,
3.023,0.50,-0.95,-0.69,0.54,1.81,-0.98,
3.024,0.50,-0.95,-0.69,0.54,1.83,-0.98,
3.025,0.44,-0.88,-0.63,0.54,1.83,-0.98,
3.027,0.44,-0.88,-0.63,0.54,1.85,-0.97,
3.029,0.44,-0.88,-0.63,0.54,1.87,-0.97,
3.029,0.43,-0.82,-0.51,0.54,1.87,-0.97,
3.033,0.43,-0.82,-0.51,0.54,1.89,-0.97,
3.036,0.43,-0.82,-0.51,0.53,1.90,-0.97,
3.036,0.49,-0.75,-0.40,0.53,1.90,-0.97,
3.037,0.49,-0.75,-0.40,0.53,1.90,-0.96,
3.039,0.51,-0.67,-0.27,0.53,1.90,-0.96,
3.039,0.51,-0.67,-0.27,0.53,1.90,-0.95,
3.041,0.51,-0.67,-0.27,0.53,1.89,-0.94,
3.044,0.60,-0.67,-0.14,0.53,1.89,-0.94,
3.044,0.60,-0.67,-0.14,0.53,1.88,-0.92,
3.046,0.60,-0.67,-0.14,0.53,1.87,-0.91,
3.049,0.60,-0.67,-0.14,0.53,1.86,-0.89,
3.049,0.82,-0.66,-0.08,0.53,1.86,-0.89,
3.057,0.82,-0.66,-0.08,0.54,1.86,-0.88,
3.058,1.08,-0.64,-0.01,0.54,1.86,-0.88,
3.058,1.08,-0.64,-0.01,0.54,1.86,-0.86,
3.058,1.08,-0.64,-0.01,0.55,1.86,-0.85,
3.059,1.17,-0.56,0.30,0.55,1.86,-0.85,
3.06,1.17,-0.56,0.30,0.54,1.82,-0.83,
3.061,1.17,-0.56,0.30,0.54,1.75,-0.83,
3.064,1.21,-0.37,0.10,0.54,1.75,-0.83,
3.065,1.21,-0.37,0.10,0.54,1.73,-0.81,
3.066,1.21,-0.37,0.10,0.54,1.72,-0.78,
3.07,1.26,-0.10,0.15,0.54,1.72,-0.78,
3.07,1.26,-0.10,0.15,0.54,1.69,-0.75,
3.072,1.26,-0.10,0.15,0.53,1.64,-0.72,
3.074,1.26,-0.10,0.15,0.51,1.59,-0.70,
3.074,1.23,-0.03,0.04,0.51,1.59,-0.70,
3.076,1.23,-0.03,0.04,0.50,1.56,-0.67,
3.078,1.23,-0.03,0.04,0.49,1.54,-0.64,
3.079,1.65,0.22,-0.20,0.49,1.54,-0.64,
3.081,1.65,0.22,-0.20,0.48,1.56,-0.61,
3.084,2.57,0.39,-0.55,0.48,1.56,-0.61,
3.084,2.57,0.39,-0.55,0.48,1.62,-0.58,
3.087,2.57,0.39,-0.55,0.49,1.72,-0.55,
3.089,3.56,0.04,-0.63,0.49,1.72,-0.55,
3.089,3.56,0.04,-0.63,0.49,1.82,-0.53,
3.091,3.56,0.04,-0.63,0.49,1.89,-0.51,
3.094,4.28,-0.52,-0.12,0.49,1.89,-0.51,
3.094,4.28,-0.52,-0.12,0.48,1.92,-0.49,
3.096,4.28,-0.52,-0.12,0.48,1.94,-0.48,
3.099,4.28,-0.52,-0.12,0.47,1.97,-0.48,
3.099,4.57,-0.89,0.07,0.47,1.97,-0.48,
3.101,4.57,-0.89,0.07,0.46,2.01,-0.47,
3.104,4.29,-0.95,0.28,0.46,2.01,-0.47,
3.104,4.29,-0.95,0.28,0.46,2.06,-0.45,
3.107,4.29,-0.95,0.28,0.46,2.11,-0.42,
3.108,4.29,-0.95,0.28,0.45,2.15,-0.37,
3.108,3.82,-0.86,0.55,0.45,2.15,-0.37,
3.111,3.82,-0.86,0.55,0.45,2.19,-0.33,
3.113,3.82,-0.86,0.55,0.44,2.22,-0.28,
3.113,3.69,-0.93,0.65,0.44,2.22,-0.28,
3.116,3.69,-0.93,0.65,0.44,2.24,-0.23,
3.123,3.69,-0.93,0.65,0.43,2.25,-0.18,
3.124,3.88,-1.09,0.60,0.43,2.25,-0.18,
3.124,3.88,-1.09,0.60,0.47,2.24,-0.15,
3.125,3.88,-1.09,0.60,0.46,2.23,-0.13,
3.125,4.12,-0.48,-0.58,0.46,2.23,-0.13,
3.126,4.12,-0.48,-0.58,0.40,2.22,-0.08,
3.129,3.82,0.55,-1.47,0.40,2.22,-0.08,
3.132,3.82,0.55,-1.47,0.31,2.21,0.02,
3.132,3.82,0.55,-1.47,0.22,2.20,0.17,
3.133,4.17,1.19,-0.69,0.22,2.20,0.17,
3.134,4.17,1.19,-0.69,0.16,2.19,0.34,
3.145,4.17,1.19,-0.69,0.10,2.18,0.54,
3.146,4.17,1.19,-0.69,0.04,2.16,0.74,
3.147,5.56,1.34,0.53,0.04,2.16,0.74,
3.147,5.56,1.34,0.53,-0.03,2.16,0.92,
3.147,5.56,1.34,0.53,-0.10,2.16,1.10,
3.148,7.33,1.34,1.67,-0.10,2.16,1.10,
3.148,7.33,1.34,1.67,-0.15,2.18,1.26,
3.148,8.99,0.92,2.93,-0.15,2.18,1.26,
3.148,8.99,0.92,2.93,-0.12,2.17,1.37,
3.151,8.99,0.92,2.93,0.01,2.14,1.38,
3.154,8.99,0.92,2.93,0.12,2.10,1.25,
3.154,10.05,0.25,1.71,0.12,2.10,1.25,
3.18,5.82,1.52,-1.52,0.12,2.10,1.25,
3.18,-1.68,4.51,-4.81,0.12,2.10,1.25,
3.18,-1.68,4.51,-4.81,0.23,1.99,0.99,
3.18,-1.68,4.51,-4.81,0.31,1.84,0.69,
3.181,-1.68,4.51,-4.81,0.37,1.66,0.45,
3.181,-1.68,4.51,-4.81,0.39,1.47,0.33,
3.181,-6.00,8.21,-6.19,0.39,1.47,0.33,
3.181,-6.00,8.21,-6.19,0.28,1.27,0.31,
3.181,-6.00,8.21,-6.19,0.08,1.01,0.35,
3.181,-6.00,8.21,-6.19,-0.18,0.65,0.40,
3.182,-6.00,8.21,-6.19,-0.42,0.19,0.46,
3.182,-7.66,11.00,-4.18,-0.42,0.19,0.46,
3.182,-7.66,11.00,-4.18,-0.63,-0.37,0.53,
3.182,-9.78,11.96,-0.32,-0.63,-0.37,0.53,
3.182,-9.78,11.96,-0.32,-0.79,-0.97,0.59,
3.183,-9.78,11.96,-0.32,-0.87,-1.53,0.69,
3.183,-9.78,11.96,-0.32,-0.87,-1.94,0.84,
3.183,-12.91,10.00,4.94,-0.87,-1.94,0.84,
3.186,-12.91,10.00,4.94,-0.82,-2.13,1.10,
3.188,-12.91,10.00,4.94,-0.68,-2.16,1.47,
3.188,-16.71,6.34,11.07,-0.68,-2.16,1.47,
3.19,-16.71,6.34,11.07,-0.48,-2.09,1.94,
3.192,-16.71,6.34,11.07,-0.30,-2.00,2.43,
3.193,-15.11,1.27,12.40,-0.30,-2.00,2.43,
3.195,-15.11,1.27,12.40,-0.16,-1.98,2.79,
3.198,-15.11,1.27,12.40,-0.09,-2.09,2.95,
3.198,-1.96,-4.00,7.81,-0.09,-2.09,2.95,
3.2,-1.96,-4.00,7.81,-0.08,-2.29,2.93,
3.204,5.30,-6.13,1.11,-0.08,-2.29,2.93,
3.204,5.30,-6.13,1.11,-0.10,-2.51,2.82,
3.207,5.30,-6.13,1.11,-0.16,-2.69,2.64,
3.208,5.30,-6.13,1.11,-0.23,-2.76,2.44,
3.208,7.01,-6.25,-4.52,-0.23,-2.76,2.44,
3.21,7.01,-6.25,-4.52,-0.32,-2.69,2.24,
3.213,7.01,-6.25,-4.52,-0.40,-2.48,2.06,
3.213,7.15,-5.94,-6.75,-0.40,-2.48,2.06,
3.216,7.15,-5.94,-6.75,-0.47,-2.16,1.92,
3.224,7.15,-5.94,-6.75,-0.51,-1.73,1.81,
3.225,7.57,-5.32,-4.91,-0.51,-1.73,1.81,
3.226,7.57,-5.32,-4.91,-0.51,-1.21,1.72,
3.226,7.57,-5.32,-4.91,-0.46,-0.71,1.66,
3.227,8.44,-3.67,-0.29,-0.46,-0.71,1.66,
3.227,8.44,-3.67,-0.29,-0.37,-0.32,1.62,
3.228,8.44,-3.67,-0.29,-0.25,-0.08,1.60,
3.229,8.07,-0.67,3.42,-0.25,-0.08,1.60,
3.23,8.07,-0.67,3.42,-0.14,0.09,1.56,
3.235,8.07,-0.67,3.42,-0.04,0.24,1.50,
3.235,7.48,1.24,2.20,-0.04,0.24,1.50,
3.245,7.48,1.24,2.20,0.02,0.39,1.41,
3.246,7.48,1.24,2.20,0.04,0.52,1.31,
3.247,6.06,2.05,-0.72,0.04,0.52,1.31,
3.247,6.06,2.05,-0.72,0.02,0.61,1.23,
3.247,6.06,2.05,-0.72,-0.03,0.65,1.18,
3.247,3.75,2.17,-1.70,-0.03,0.65,1.18,
3.248,3.75,2.17,-1.70,-0.07,0.66,1.16,
3.248,3.75,2.17,-1.70,-0.10,0.65,1.15,
3.248,1.70,1.59,-0.67,-0.10,0.65,1.15,
3.249,1.70,1.59,-0.67,-0.11,0.64,1.15,
3.252,1.70,1.59,-0.67,-0.11,0.63,1.14,
3.253,0.56,0.63,0.67,-0.11,0.63,1.14,
3.255,0.56,0.63,0.67,-0.09,0.61,1.14,
3.257,0.56,0.63,0.67,-0.08,0.60,1.12,
3.257,0.16,-0.24,1.07,-0.08,0.60,1.12,
3.259,0.16,-0.24,1.07,-0.08,0.58,1.11,
3.262,0.16,-0.24,1.07,-0.08,0.56,1.10,
3.262,0.05,-0.78,0.89,-0.08,0.56,1.10,
3.264,0.05,-0.78,0.89,-0.09,0.54,1.09,
3.267,0.05,-0.78,0.89,-0.10,0.50,1.09,
3.267,0.07,-0.96,0.95,-0.10,0.50,1.09,
3.27,0.07,-0.96,0.95,-0.10,0.47,1.08,
3.272,0.07,-0.96,0.95,-0.10,0.44,1.08,
3.272,0.17,-0.86,1.39,-0.10,0.44,1.08,
3.274,0.17,-0.86,1.39,-0.09,0.42,1.07,
3.277,0.17,-0.86,1.39,-0.08,0.39,1.06,
3.278,0.17,-0.63,1.87,-0.08,0.39,1.06,
3.28,0.17,-0.63,1.87,-0.06,0.36,1.05,
3.282,-0.05,-0.33,1.99,-0.06,0.36,1.05,
3.283,-0.05,-0.33,1.99,-0.04,0.32,1.04,
3.285,-0.05,-0.33,1.99,-0.02,0.28,1.03,
3.288,-0.05,-0.33,1.99,-0.01,0.23,1.03,
3.288,-0.44,-0.03,1.77,-0.01,0.23,1.03,
3.29,-0.44,-0.03,1.77,-0.00,0.16,1.04,
3.292,-0.44,-0.03,1.77,0.00,0.10,1.04,
3.292,-0.86,0.08,1.25,0.00,0.10,1.04,
3.294,-0.86,0.08,1.25,-0.00,0.03,1.06,
3.297,-0.86,0.08,1.25,-0.01,-0.04,1.07,
3.297,-1.21,0.08,0.71,-0.01,-0.04,1.07,
3.299,-1.21,0.08,0.71,-0.02,-0.10,1.08,
3.302,-1.30,0.01,0.12,-0.02,-0.10,1.08,
3.303,-1.30,0.01,0.12,-0.04,-0.15,1.10,
3.305,-1.30,0.01,0.12,-0.05,-0.18,1.11,
3.307,-1.30,0.01,0.12,-0.06,-0.20,1.13,
3.307,-1.10,-0.02,-0.32,-0.06,-0.20,1.13,
3.309,-1.10,-0.02,-0.32,-0.08,-0.21,1.14,
3.312,-1.10,-0.02,-0.32,-0.09,-0.22,1.15,
3.312,-0.55,-0.05,-0.60,-0.09,-0.22,1.15,
3.314,-0.55,-0.05,-0.60,-0.11,-0.21,1.15,
3.317,-0.55,-0.05,-0.60,-0.12,-0.20,1.15,
3.317,0.16,-0.06,-0.80,-0.12,-0.20,1.15,
3.324,0.16,-0.06,-0.80,-0.13,-0.18,1.14,
3.354,0.16,-0.06,-0.80,-0.14,-0.14,1.12,
3.355,0.91,-0.04,-0.88,-0.14,-0.14,1.12,
3.355,0.91,-0.04,-0.88,-0.14,-0.09,1.10,
3.355,0.91,-0.04,-0.88,-0.15,-0.02,1.07,
3.355,1.56,-0.03,-0.82,-0.15,-0.02,1.07,
3.355,1.56,-0.03,-0.82,-0.15,0.05,1.05,
3.355,2.15,-0.02,-0.73,-0.15,0.05,1.05,
3.356,2.15,-0.02,-0.73,-0.15,0.14,1.02,
3.356,2.15,-0.02,-0.73,-0.14,0.22,0.99,
3.356,2.15,-0.02,-0.73,-0.13,0.32,0.96,
3.356,2.42,-0.00,-0.67,-0.13,0.32,0.96,
3.356,2.42,-0.00,-0.67,-0.12,0.42,0.92,
3.356,2.42,-0.00,-0.67,-0.11,0.52,0.89,
3.356,2.27,-0.01,-0.67,-0.11,0.52,0.89,
3.356,2.27,-0.01,-0.67,-0.10,0.61,0.86,
3.357,1.58,-0.02,-0.57,-0.10,0.61,0.86,
3.357,1.58,-0.02,-0.57,-0.10,0.68,0.83,
3.357,1.58,-0.02,-0.57,-0.10,0.73,0.82,
3.357,0.50,-0.01,-0.29,-0.10,0.73,0.82,
3.357,0.50,-0.01,-0.29,-0.10,0.75,0.80,
3.357,0.50,-0.01,-0.29,-0.10,0.76,0.80,
3.357,-0.67,0.05,0.07,-0.10,0.76,0.80,
3.358,-0.67,0.05,0.07,-0.10,0.75,0.81,
3.359,-0.67,0.05,0.07,-0.11,0.73,0.81,
3.361,-0.67,0.05,0.07,-0.11,0.68,0.83,
3.361,-1.73,0.12,0.11,-0.11,0.68,0.83,
3.364,-1.73,0.12,0.11,-0.13,0.62,0.84,
3.367,-1.73,0.12,0.11,-0.15,0.55,0.87,
3.367,-2.34,0.15,-0.15,-0.15,0.55,0.87,
3.369,-2.34,0.15,-0.15,-0.17,0.47,0.90,
3.372,-2.34,0.15,-0.15,-0.20,0.39,0.93,
3.372,-2.43,0.19,-0.30,-0.20,0.39,0.93,
3.374,-2.43,0.19,-0.30,-0.22,0.31,0.95,
3.376,-2.43,0.19,-0.30,-0.24,0.23,0.98,
3.376,-2.03,0.18,-0.20,-0.24,0.23,0.98,
3.378,-2.03,0.18,-0.20,-0.26,0.17,1.00,
3.381,-2.03,0.18,-0.20,-0.27,0.12,1.02,
3.381,-1.49,0.09,-0.07,-0.27,0.12,1.02,
3.383,-1.49,0.09,-0.07,-0.28,0.09,1.03,
3.387,-1.49,0.09,-0.07,-0.28,0.07,1.03,
3.388,-1.02,-0.00,-0.16,-0.28,0.07,1.03,
3.388,-1.02,-0.00,-0.16,-0.29,0.06,1.04,
3.391,-1.02,-0.00,-0.16,-0.29,0.07,1.04,
3.391,-0.64,-0.10,-0.38,-0.29,0.07,1.04,
3.393,-0.64,-0.10,-0.38,-0.30,0.09,1.04,
3.396,-0.64,-0.10,-0.38,-0.30,0.12,1.04,
3.396,-0.28,-0.09,-0.43,-0.30,0.12,1.04,
3.398,-0.28,-0.09,-0.43,-0.30,0.14,1.04,
3.401,0.06,-0.08,-0.38,-0.30,0.14,1.04,
3.402,0.06,-0.08,-0.38,-0.30,0.18,1.04,
3.404,0.06,-0.08,-0.38,-0.30,0.21,1.04,
3.406,0.06,-0.08,-0.38,-0.31,0.24,1.03,
3.406,0.29,-0.08,-0.20,-0.31,0.24,1.03,
3.408,0.29,-0.08,-0.20,-0.30,0.26,1.03,
3.41,0.29,-0.08,-0.20,-0.30,0.28,1.02,
3.411,0.39,-0.08,-0.06,-0.30,0.28,1.02,
3.413,0.39,-0.08,-0.06,-0.30,0.30,1.01,
3.415,0.39,-0.08,-0.06,-0.30,0.32,1.00,
3.416,0.25,-0.02,-0.00,-0.30,0.32,1.00,
3.42,0.25,-0.02,-0.00,-0.30,0.35,0.99,
3.423,0.25,-0.02,-0.00,-0.29,0.37,0.99,
3.424,-0.01,0.04,-0.08,-0.29,0.37,0.99,
3.424,-0.01,0.04,-0.08,-0.30,0.39,0.99,
3.428,-0.01,0.04,-0.08,-0.30,0.40,0.99,
3.428,-0.29,0.07,-0.13,-0.30,0.40,0.99,
3.428,-0.29,0.07,-0.13,-0.30,0.40,1.00,
3.431,-0.29,0.07,-0.13,-0.30,0.40,1.01,
3.431,-0.52,0.09,-0.00,-0.30,0.40,1.01,
3.433,-0.52,0.09,-0.00,-0.31,0.40,1.01,
3.436,-0.52,0.09,-0.00,-0.31,0.39,1.02,
3.436,-0.66,0.04,0.13,-0.31,0.39,1.02,
3.438,-0.66,0.04,0.13,-0.31,0.38,1.03,
3.441,-0.66,0.04,0.13,-0.32,0.36,1.04,
3.442,-0.76,-0.02,0.25,-0.32,0.36,1.04,
3.444,-0.76,-0.02,0.25,-0.32,0.35,1.04,
3.445,-0.76,-0.02,0.25,-0.32,0.33,1.05,
3.445,-0.79,-0.12,0.32,-0.32,0.33,1.05,
3.448,-0.79,-0.12,0.32,-0.33,0.31,1.06,
3.45,-0.79,-0.12,0.32,-0.33,0.30,1.07,
3.45,-0.82,-0.08,0.26,-0.33,0.30,1.07,
3.453,-0.82,-0.08,0.26,-0.34,0.29,1.08,
3.456,-0.87,0.03,0.05,-0.34,0.29,1.08,
3.456,-0.87,0.03,0.05,-0.34,0.29,1.09,
3.458,-0.87,0.03,0.05,-0.34,0.29,1.10,
3.46,-0.87,0.03,0.05,-0.34,0.30,1.11,
3.46,-0.88,0.19,-0.12,-0.34,0.30,1.11,
3.463,-0.88,0.19,-0.12,-0.35,0.31,1.12,
3.465,-0.88,0.19,-0.12,-0.35,0.32,1.13,
3.465,-0.87,0.27,-0.21,-0.35,0.32,1.13,
3.468,-0.87,0.27,-0.21,-0.35,0.33,1.14,
3.471,-0.87,0.27,-0.21,-0.34,0.34,1.15,
3.471,-0.92,0.31,-0.27,-0.34,0.34,1.15,
3.472,-0.92,0.31,-0.27,-0.34,0.34,1.16,
3.475,-0.92,0.31,-0.27,-0.35,0.35,1.17,
3.476,-1.01,0.27,-0.48,-0.35,0.35,1.17,
3.478,-1.01,0.27,-0.48,-0.36,0.34,1.18,
3.481,-1.02,0.25,-0.68,-0.36,0.34,1.18,
3.481,-1.02,0.25,-0.68,-0.37,0.33,1.19,
3.483,-1.02,0.25,-0.68,-0.38,0.32,1.20,
3.486,-1.02,0.25,-0.68,-0.39,0.32,1.21,
3.518,-0.98,0.23,-0.64,-0.39,0.32,1.21,
3.519,-0.98,0.23,-0.64,-0.40,0.32,1.22,
3.519,-1.00,0.11,-0.55,-0.40,0.32,1.22,
3.519,-1.00,0.11,-0.55,-0.40,0.31,1.23,
3.519,-1.00,0.11,-0.55,-0.41,0.30,1.24,
3.52,-1.09,0.09,-0.44,-0.41,0.30,1.24,
3.52,-1.09,0.09,-0.44,-0.42,0.29,1.25,
3.52,-1.09,0.09,-0.44,-0.42,0.30,1.26,
3.52,-1.09,0.09,-0.44,-0.43,0.32,1.28,
3.521,-1.15,0.23,-0.60,-0.43,0.32,1.28,
3.521,-1.15,0.23,-0.60,-0.44,0.35,1.29,
3.521,-1.02,0.30,-0.48,-0.44,0.35,1.29,
3.521,-1.02,0.30,-0.48,-0.45,0.37,1.31,
3.522,-1.02,0.30,-0.48,-0.45,0.39,1.32,
3.522,-1.02,0.30,-0.48,-0.46,0.40,1.33,
3.522,-0.90,0.42,-0.33,-0.46,0.40,1.33,
3.522,-0.90,0.42,-0.33,-0.47,0.41,1.34,
3.523,-0.90,0.42,-0.33,-0.47,0.41,1.36,
3.523,-0.81,0.43,-0.20,-0.47,0.41,1.36,
3.523,-0.81,0.43,-0.20,-0.48,0.42,1.37,
3.523,-0.79,0.47,-0.27,-0.48,0.42,1.37,
3.524,-0.79,0.47,-0.27,-0.48,0.44,1.38,
3.524,-0.79,0.47,-0.27,-0.48,0.46,1.39,
3.525,-0.81,0.42,-0.33,-0.48,0.46,1.39,
3.525,-0.81,0.42,-0.33,-0.48,0.47,1.40,
3.528,-0.81,0.42,-0.33,-0.48,0.48,1.41,
3.531,-0.89,0.39,-0.41,-0.48,0.48,1.41,
3.531,-0.89,0.39,-0.41,-0.49,0.49,1.43,
3.533,-0.89,0.39,-0.41,-0.49,0.50,1.44,
3.535,-0.89,0.39,-0.41,-0.50,0.51,1.45,
3.536,-0.93,0.45,-0.52,-0.50,0.51,1.45,
3.539,-0.93,0.45,-0.52,-0.50,0.52,1.45,
3.541,-0.85,0.44,-0.52,-0.50,0.52,1.45,
3.542,-0.85,0.44,-0.52,-0.51,0.52,1.46,
3.542,-0.85,0.44,-0.52,-0.53,0.51,1.47,
3.544,-0.85,0.44,-0.52,-0.54,0.50,1.47,
3.545,-0.83,0.59,-0.55,-0.54,0.50,1.47,
3.547,-0.83,0.59,-0.55,-0.55,0.48,1.48,
3.549,-0.83,0.59,-0.55,-0.56,0.47,1.49,
3.55,-0.94,0.83,-0.72,-0.56,0.47,1.49,
3.559,-0.94,0.83,-0.72,-0.58,0.47,1.51,
3.56,-1.14,0.99,-0.72,-0.58,0.47,1.51,
3.561,-1.14,0.99,-0.72,-0.58,0.48,1.52,
3.561,-1.14,0.99,-0.72,-0.58,0.49,1.54,
3.561,-1.14,0.99,-0.72,-0.58,0.50,1.56,
3.565,-1.05,0.91,-0.31,-0.58,0.50,1.56,
3.566,-1.05,0.91,-0.31,-0.58,0.52,1.57,
3.567,-1.05,0.91,-0.31,-0.58,0.55,1.58,
3.567,-0.74,0.84,-0.42,-0.58,0.55,1.58,
3.573,-0.74,0.84,-0.42,-0.58,0.59,1.59,
3.573,-0.74,0.84,-0.42,-0.59,0.63,1.60,
3.574,-0.61,1.00,-0.54,-0.59,0.63,1.60,
3.574,-0.61,1.00,-0.54,-0.60,0.67,1.61,
3.575,-0.61,1.00,-0.54,-0.63,0.69,1.63,
3.575,-0.55,1.46,-0.42,-0.63,0.69,1.63,
3.577,-0.55,1.46,-0.42,-0.66,0.69,1.64,
3.58,-0.55,1.46,-0.42,-0.69,0.66,1.65,
3.58,-0.83,2.10,0.60,-0.69,0.66,1.65,
3.581,-0.83,2.10,0.60,-0.70,0.66,1.67,
3.584,-0.83,2.10,0.60,-0.70,0.69,1.68,
3.584,-1.43,2.53,0.65,-0.70,0.69,1.68,
3.587,-1.43,2.53,0.65,-0.70,0.73,1.70,
3.589,-1.43,2.53,0.65,-0.70,0.77,1.72,
3.589,-2.09,2.51,0.28,-0.70,0.77,1.72,
3.592,-2.09,2.51,0.28,-0.71,0.78,1.75,
3.594,-2.09,2.51,0.28,-0.71,0.76,1.78,
3.594,-2.32,1.91,0.15,-0.71,0.76,1.78,
3.596,-2.32,1.91,0.15,-0.72,0.74,1.80,
3.599,-2.32,1.91,0.15,-0.73,0.70,1.83,
3.599,-1.97,1.33,0.20,-0.73,0.70,1.83,
3.602,-1.97,1.33,0.20,-0.74,0.65,1.85,
3.605,-1.36,0.85,0.02,-0.74,0.65,1.85,
3.605,-1.36,0.85,0.02,-0.75,0.62,1.87,
3.606,-1.36,0.85,0.02,-0.75,0.59,1.89,
3.609,-1.36,0.85,0.02,-0.76,0.58,1.90,
3.609,-0.78,0.48,-0.01,-0.76,0.58,1.90,
3.611,-0.78,0.48,-0.01,-0.77,0.57,1.90,
3.614,-0.78,0.48,-0.01,-0.77,0.57,1.90,
3.614,-0.24,0.21,0.17,-0.77,0.57,1.90,
3.616,-0.24,0.21,0.17,-0.78,0.58,1.89,
3.624,-0.02,0.39,-0.08,-0.78,0.58,1.89,
3.624,-0.02,0.39,-0.08,-0.78,0.59,1.89,
3.625,-0.02,0.39,-0.08,-0.80,0.61,1.88,
3.625,-0.02,0.39,-0.08,-0.81,0.62,1.88,
3.625,-0.25,0.90,-0.23,-0.81,0.62,1.88,
3.631,-0.70,1.11,0.13,-0.81,0.62,1.88,
3.632,-0.70,1.11,0.13,-0.83,0.64,1.88,
3.632,-0.70,1.11,0.13,-0.84,0.64,1.89,
3.632,-0.70,1.11,0.13,-0.85,0.65,1.90,
3.634,-1.03,0.99,0.37,-0.85,0.65,1.90,
3.635,-1.03,0.99,0.37,-0.85,0.65,1.91,
3.641,-1.03,0.99,0.37,-0.86,0.65,1.92,
3.641,-1.03,0.99,0.37,-0.87,0.65,1.93,
3.642,-1.01,0.64,0.42,-0.87,0.65,1.93,
3.642,-1.01,0.64,0.42,-0.87,0.64,1.94,
3.644,-1.01,0.64,0.42,-0.87,0.63,1.95,
3.645,-0.90,0.49,0.30,-0.87,0.63,1.95,
3.646,-0.90,0.49,0.30,-0.87,0.63,1.95,
3.648,-0.90,0.49,0.30,-0.89,0.62,1.96,
3.649,-0.69,0.11,0.10,-0.89,0.62,1.96,
3.666,-0.69,0.11,0.10,-0.90,0.61,1.96,
3.666,-0.69,0.11,0.10,-0.90,0.59,1.96,
3.667,-0.47,-0.22,0.17,-0.90,0.59,1.96,
3.667,-0.47,-0.22,0.17,-0.92,0.59,1.96,
3.667,-0.47,-0.22,0.17,-0.94,0.58,1.95,
3.668,-0.47,-0.28,0.06,-0.94,0.58,1.95,
3.668,-0.47,-0.28,0.06,-0.94,0.56,1.95,
3.669,-0.47,-0.28,0.06,-0.95,0.55,1.95,
3.669,-0.75,-0.08,-0.02,-0.95,0.55,1.95,
3.67,-0.75,-0.08,-0.02,-0.95,0.54,1.94,
3.67,-0.75,-0.08,-0.02,-0.94,0.55,1.94,
3.671,-0.89,-0.13,-0.00,-0.94,0.55,1.94,
3.674,-0.89,-0.13,-0.00,-0.93,0.56,1.94,
3.675,-0.89,-0.13,-0.00,-0.92,0.57,1.94,
3.676,-0.76,-0.32,-0.13,-0.92,0.57,1.94,
3.676,-0.76,-0.32,-0.13,-0.91,0.57,1.94,
3.681,-0.76,-0.32,-0.13,-0.90,0.58,1.94,
3.681,-0.33,-0.62,-0.50,-0.90,0.58,1.94,
3.681,-0.33,-0.62,-0.50,-0.90,0.59,1.94,
3.685,-0.33,-0.62,-0.50,-0.91,0.60,1.93,
3.685,0.18,-0.76,-0.32,-0.91,0.60,1.93,
3.687,0.18,-0.76,-0.32,-0.91,0.61,1.93,
3.689,0.18,-0.76,-0.32,-0.90,0.62,1.92,
3.69,0.77,-0.54,-0.06,-0.90,0.62,1.92,
3.692,0.77,-0.54,-0.06,-0.91,0.64,1.90,
3.694,1.01,0.25,-0.47,-0.91,0.64,1.90,
3.694,1.01,0.25,-0.47,-0.93,0.67,1.88,
3.696,1.01,0.25,-0.47,-0.95,0.69,1.85,
3.698,0.57,1.36,-0.38,-0.95,0.69,1.85,
3.699,0.57,1.36,-0.38,-0.97,0.72,1.84,
3.7,0.57,1.36,-0.38,-0.98,0.75,1.84,
3.703,0.57,1.36,-0.38,-0.99,0.78,1.86,
3.704,-0.45,2.79,-0.01,-0.99,0.78,1.86,
3.706,-0.45,2.79,-0.01,-1.00,0.80,1.88,
3.708,-0.45,2.79,-0.01,-1.01,0.81,1.91,
3.708,-1.27,3.71,-0.18,-1.01,0.81,1.91,
3.71,-1.27,3.71,-0.18,-1.03,0.82,1.94,
3.713,-1.27,3.71,-0.18,-1.05,0.81,1.97,
3.713,-1.80,4.00,-0.32,-1.05,0.81,1.97,
3.715,-1.80,4.00,-0.32,-1.07,0.80,2.00,
3.721,-1.80,4.00,-0.32,-1.09,0.78,2.04,
3.722,-2.13,4.05,-0.13,-1.09,0.78,2.04,
3.722,-2.13,4.05,-0.13,-1.12,0.75,2.08,
3.723,-2.13,4.05,-0.13,-1.14,0.73,2.11,
3.726,-2.13,4.05,-0.13,-1.16,0.72,2.15,
3.726,-2.39,4.30,0.08,-1.16,0.72,2.15,
3.728,-2.39,4.30,0.08,-1.18,0.72,2.19,
3.728,-2.60,4.80,-0.01,-1.18,0.72,2.19,
3.73,-2.60,4.80,-0.01,-1.20,0.72,2.23,
3.733,-2.60,4.80,-0.01,-1.21,0.73,2.27,
3.733,-2.61,5.60,-0.35,-1.21,0.73,2.27,
3.735,-2.61,5.60,-0.35,-1.23,0.74,2.32,
3.741,-2.61,5.60,-0.35,-1.26,0.76,2.36,
3.741,-2.61,5.60,-0.35,-1.29,0.77,2.40,
3.742,-2.63,6.79,-0.77,-1.29,0.77,2.40,
3.743,-2.63,6.79,-0.77,-1.31,0.80,2.45,
3.743,-3.00,8.14,-0.95,-1.31,0.80,2.45,
3.745,-3.00,8.14,-0.95,-1.34,0.83,2.51,
3.747,-3.53,9.52,-0.97,-1.34,0.83,2.51,
3.748,-3.53,9.52,-0.97,-1.36,0.86,2.57,
3.75,-3.53,9.52,-0.97,-1.39,0.89,2.64,
3.754,-3.53,9.52,-0.97,-1.41,0.92,2.71,
3.754,-4.20,10.90,-1.44,-1.41,0.92,2.71,
3.755,-4.20,10.90,-1.44,-1.44,0.95,2.80,
3.758,-4.20,10.90,-1.44,-1.46,0.97,2.88,
3.758,-4.84,12.17,-1.97,-1.46,0.97,2.88,
3.76,-4.84,12.17,-1.97,-1.47,0.98,2.97,
3.763,-4.84,12.17,-1.97,-1.49,0.98,3.05,
3.763,-5.23,12.94,-2.76,-1.49,0.98,3.05,
3.765,-5.23,12.94,-2.76,-1.51,0.98,3.13,
3.768,-5.50,13.56,-3.78,-1.51,0.98,3.13,
3.768,-5.50,13.56,-3.78,-1.54,0.97,3.21,
3.77,-5.50,13.56,-3.78,-1.57,0.96,3.28,
3.773,-5.50,13.56,-3.78,-1.59,0.95,3.36,
3.773,-6.00,14.02,-3.92,-1.59,0.95,3.36,
3.775,-6.00,14.02,-3.92,-1.60,0.94,3.43,
3.778,-6.00,14.02,-3.92,-1.60,0.94,3.51,
3.778,-6.39,14.12,-3.86,-1.60,0.94,3.51,
3.78,-6.39,14.12,-3.86,-1.60,0.96,3.58,
3.782,-6.39,14.12,-3.86,-1.59,1.00,3.66,
3.783,-6.49,13.95,-4.55,-1.59,1.00,3.66,
3.786,-6.49,13.95,-4.55,-1.59,1.07,3.74,
3.788,-6.49,13.95,-4.55,-1.58,1.12,3.81,
3.789,-5.96,13.38,-5.08,-1.58,1.12,3.81,
3.79,-5.96,13.38,-5.08,-1.58,1.15,3.87,
3.792,-5.22,12.69,-5.20,-1.58,1.15,3.87,
3.793,-5.22,12.69,-5.20,-1.57,1.17,3.92,
3.795,-5.22,12.69,-5.20,-1.57,1.18,3.96,
3.797,-5.22,12.69,-5.20,-1.58,1.17,3.99,
3.798,-5.03,12.52,-5.15,-1.58,1.17,3.99,
3.8,-5.03,12.52,-5.15,-1.59,1.17,4.02,
3.804,-5.03,12.52,-5.15,-1.58,1.18,4.04,
3.804,-5.33,12.30,-5.02,-1.58,1.18,4.04,
3.805,-5.33,12.30,-5.02,-1.57,1.19,4.06,
3.807,-5.33,12.30,-5.02,-1.57,1.21,4.07,
3.808,-5.98,12.07,-5.45,-1.57,1.21,4.07,
3.809,-5.98,12.07,-5.45,-1.57,1.24,4.10,
3.812,-5.98,12.07,-5.45,-1.57,1.26,4.13,
3.813,-6.63,11.68,-5.76,-1.57,1.26,4.13,
3.815,-6.63,11.68,-5.76,-1.55,1.28,4.17,
3.839,-6.63,11.68,-5.76,-1.53,1.28,4.19,
3.84,-7.03,10.86,-5.83,-1.53,1.28,4.19,
3.84,-7.03,10.86,-5.83,-1.50,1.27,4.20,
3.84,-7.67,10.10,-6.57,-1.50,1.27,4.20,
3.84,-7.67,10.10,-6.57,-1.48,1.26,4.20,
3.84,-7.67,10.10,-6.57,-1.47,1.26,4.19,
3.841,-7.67,10.10,-6.57,-1.47,1.27,4.18,
3.841,-8.65,9.64,-7.42,-1.47,1.27,4.18,
3.841,-8.65,9.64,-7.42,-1.47,1.28,4.16,
3.841,-9.73,9.26,-7.60,-1.47,1.28,4.16,
3.841,-9.73,9.26,-7.60,-1.49,1.27,4.14,
3.841,-9.73,9.26,-7.60,-1.52,1.26,4.12,
3.842,-10.59,8.52,-7.03,-1.52,1.26,4.12,
3.842,-10.59,8.52,-7.03,-1.54,1.23,4.10,
3.842,-10.59,8.52,-7.03,-1.54,1.18,4.09,
3.843,-10.59,8.52,-7.03,-1.52,1.12,4.05,
3.843,-10.84,7.44,-6.47,-1.52,1.12,4.05,
3.851,-10.84,7.44,-6.47,-1.50,1.07,4.01,
3.853,-10.84,7.44,-6.47,-1.48,1.05,3.96,
3.853,-11.05,6.48,-6.52,-1.48,1.05,3.96,
3.854,-11.05,6.48,-6.52,-1.45,1.06,3.90,
3.855,-11.40,5.53,-6.79,-1.45,1.06,3.90,
3.856,-11.40,5.53,-6.79,-1.43,1.10,3.84,
3.856,-11.40,5.53,-6.79,-1.40,1.13,3.77,
3.857,-11.68,4.48,-6.67,-1.40,1.13,3.77,
3.859,-11.68,4.48,-6.67,-1.38,1.17,3.70,
3.859,-11.68,4.48,-6.67,-1.36,1.18,3.62,
3.863,-11.68,4.48,-6.67,-1.36,1.13,3.52,
3.863,-11.69,3.74,-6.05,-1.36,1.13,3.52,
3.865,-11.69,3.74,-6.05,-1.36,1.01,3.41,
3.867,-11.69,3.74,-6.05,-1.37,0.84,3.28,
3.868,-11.80,3.27,-5.16,-1.37,0.84,3.28,
3.869,-11.80,3.27,-5.16,-1.37,0.68,3.16,
3.872,-11.80,3.27,-5.16,-1.34,0.60,3.05,
3.873,-12.69,2.23,-4.07,-1.34,0.60,3.05,
3.875,-12.69,2.23,-4.07,-1.28,0.62,2.99,
3.876,-12.69,2.23,-4.07,-1.19,0.70,2.99,
3.877,-14.13,0.66,-2.07,-1.19,0.70,2.99,
3.879,-14.13,0.66,-2.07,-1.09,0.80,3.07,
3.881,-14.13,0.66,-2.07,-1.01,0.87,3.19,
3.882,-14.47,-1.14,-0.83,-1.01,0.87,3.19,
3.884,-14.47,-1.14,-0.83,-0.98,0.89,3.36,
3.887,-12.69,-3.65,-0.31,-0.98,0.89,3.36,
3.888,-12.69,-3.65,-0.31,-0.98,0.86,3.52,
3.889,-12.69,-3.65,-0.31,-1.00,0.78,3.67,
3.891,-12.69,-3.65,-0.31,-1.04,0.66,3.79,
3.892,-9.43,-6.07,-0.18,-1.04,0.66,3.79,
3.894,-9.43,-6.07,-0.18,-1.07,0.53,3.88,
3.897,-9.43,-6.07,-0.18,-1.07,0.41,3.90,
3.897,-6.07,-7.22,-0.70,-1.07,0.41,3.90,
3.9,-6.07,-7.22,-0.70,-1.05,0.36,3.84,
3.902,-6.07,-7.22,-0.70,-1.00,0.40,3.69,
3.904,-3.54,-6.95,-2.52,-1.00,0.40,3.69,
3.906,-3.54,-6.95,-2.52,-0.92,0.48,3.49,
3.907,-2.62,-5.32,-4.36,-0.92,0.48,3.49,
3.907,-2.62,-5.32,-4.36,-0.83,0.60,3.25,
3.908,-2.62,-5.32,-4.36,-0.79,0.69,3.01,
3.912,-2.62,-5.32,-4.36,-0.80,0.72,2.77,
3.912,-3.56,-0.91,-6.04,-0.80,0.72,2.77,
3.914,-3.56,-0.91,-6.04,-0.86,0.74,2.57,
3.917,-3.56,-0.91,-6.04,-0.96,0.75,2.39,
3.917,-6.07,4.07,-7.82,-0.96,0.75,2.39,
3.92,-6.07,4.07,-7.82,-1.07,0.76,2.24,
3.922,-8.64,7.46,-8.93,-1.07,0.76,2.24,
3.922,-8.64,7.46,-8.93,-1.19,0.77,2.12,
3.923,-8.64,7.46,-8.93,-1.30,0.79,2.01,
3.926,-10.75,9.92,-8.29,-1.30,0.79,2.01,
3.927,-10.75,9.92,-8.29,-1.40,0.81,1.91,
3.929,-10.75,9.92,-8.29,-1.47,0.84,1.84,
3.931,-12.00,11.01,-6.04,-1.47,0.84,1.84,
3.931,-12.00,11.01,-6.04,-1.51,0.87,1.80,
3.933,-12.00,11.01,-6.04,-1.51,0.89,1.77,
3.944,-11.52,10.05,-3.11,-1.51,0.89,1.77,
3.945,-11.52,10.05,-3.11,-1.45,0.85,1.75,
3.946,-11.52,10.05,-3.11,-1.37,0.75,1.73,
3.947,-9.36,7.54,-1.54,-1.37,0.75,1.73,
3.948,-9.36,7.54,-1.54,-1.29,0.61,1.70,
3.949,-9.36,7.54,-1.54,-1.21,0.45,1.65,
3.949,-6.02,3.80,-1.77,-1.21,0.45,1.65,
3.949,-6.02,3.80,-1.77,-1.13,0.30,1.55,
3.95,-6.02,3.80,-1.77,-1.08,0.15,1.41,
3.952,-2.83,0.98,-2.73,-1.08,0.15,1.41,
3.952,-2.83,0.98,-2.73,-1.04,-0.00,1.23,
3.961,-2.83,0.98,-2.73,-1.02,-0.14,1.02,
3.962,-0.70,-0.45,-3.95,-1.02,-0.14,1.02,
3.963,-0.70,-0.45,-3.95,-1.01,-0.28,0.79,
3.963,-0.70,-0.45,-3.95,-1.01,-0.39,0.55,
3.963,0.54,-0.95,-4.86,-1.01,-0.39,0.55,
3.963,0.54,-0.95,-4.86,-1.02,-0.48,0.31,
3.964,0.54,-0.95,-4.86,-1.03,-0.56,0.07,
3.966,1.42,-1.19,-4.88,-1.03,-0.56,0.07,
3.966,1.42,-1.19,-4.88,-1.01,-0.63,-0.18,
3.968,1.42,-1.19,-4.88,-0.99,-0.67,-0.44,
3.971,2.57,-1.47,-4.54,-0.99,-0.67,-0.44,
3.972,2.57,-1.47,-4.54,-0.98,-0.67,-0.73,
3.974,2.57,-1.47,-4.54,-0.98,-0.66,-1.05,
3.976,3.94,-2.13,-4.77,-0.98,-0.66,-1.05,
3.976,3.94,-2.13,-4.77,-0.97,-0.64,-1.40,
3.978,3.94,-2.13,-4.77,-0.98,-0.62,-1.77,
3.981,4.90,-2.87,-5.85,-0.98,-0.62,-1.77,
4.004,4.90,-2.87,-5.85,-1.01,-0.62,-2.13,
4.004,4.90,-2.87,-5.85,-1.06,-0.65,-2.49,
4.005,5.33,-3.75,-6.60,-1.06,-0.65,-2.49,
4.005,5.33,-3.75,-6.60,-1.13,-0.71,-2.83,
4.006,5.33,-3.75,-6.60,-1.18,-0.81,-3.14,
4.006,5.33,-3.75,-6.60,-1.23,-0.92,-3.42,
4.007,4.69,-4.01,-5.88,-1.23,-0.92,-3.42,
4.007,4.69,-4.01,-5.88,-1.25,-0.99,-3.67,
4.007,4.51,-4.69,-4.14,-1.25,-0.99,-3.67,
4.008,4.51,-4.69,-4.14,-1.24,-1.03,-3.91,
4.008,4.51,-4.69,-4.14,-1.20,-1.04,-4.15,
4.009,4.51,-4.69,-4.14,-1.10,-0.99,-4.38,
4.009,3.28,-4.14,-1.51,-1.10,-0.99,-4.38,
4.01,3.28,-4.14,-1.51,-0.95,-0.88,-4.59,
4.01,3.28,-4.14,-1.51,-0.77,-0.72,-4.78,
4.01,1.10,-2.60,0.55,-0.77,-0.72,-4.78,
4.011,1.10,-2.60,0.55,-0.55,-0.52,-4.95,
4.011,1.10,-2.60,0.55,-0.32,-0.32,-5.13,
4.012,0.21,-2.44,1.53,-0.32,-0.32,-5.13,
4.015,0.21,-2.44,1.53,-0.09,-0.15,-5.29,
4.017,0.21,-2.44,1.53,0.13,-0.04,-5.45,
4.017,-0.77,-3.15,1.29,0.13,-0.04,-5.45,
4.018,-0.77,-3.15,1.29,0.32,0.01,-5.58,
4.023,-1.61,-4.13,0.10,0.32,0.01,-5.58,
4.023,-1.61,-4.13,0.10,0.49,0.01,-5.71,
4.024,-1.61,-4.13,0.10,0.62,-0.02,-5.82,
4.027,-1.61,-4.13,0.10,0.73,-0.08,-5.95,
4.027,-1.76,-5.70,-0.82,0.73,-0.08,-5.95,
4.027,-1.76,-5.70,-0.82,0.82,-0.17,-6.09,
4.031,-1.76,-5.70,-0.82,0.89,-0.29,-6.23,
4.032,-1.68,-6.82,-0.97,0.89,-0.29,-6.23,
4.033,-1.68,-6.82,-0.97,0.96,-0.42,-6.38,
4.044,-1.68,-6.82,-0.97,1.01,-0.54,-6.52,
4.045,-1.71,-7.44,-0.85,1.01,-0.54,-6.52,
4.045,-1.71,-7.44,-0.85,1.07,-0.64,-6.66,
4.046,-1.71,-7.44,-0.85,1.13,-0.73,-6.79,
4.046,-2.05,-7.50,-0.41,1.13,-0.73,-6.79,
4.046,-2.05,-7.50,-0.41,1.18,-0.80,-6.91,
4.047,-2.45,-7.22,0.00,1.18,-0.80,-6.91,
4.047,-2.45,-7.22,0.00,1.24,-0.86,-7.02,
4.047,-2.45,-7.22,0.00,1.31,-0.91,-7.13,
4.051,-2.45,-7.22,0.00,1.37,-0.93,-7.22,
4.051,-2.87,-6.41,-0.09,1.37,-0.93,-7.22,
4.061,-2.87,-6.41,-0.09,1.44,-0.95,-7.30,
4.062,-2.87,-6.41,-0.09,1.49,-0.95,-7.36,
4.063,-3.43,-5.12,-0.55,1.49,-0.95,-7.36,
4.063,-3.43,-5.12,-0.55,1.55,-0.95,-7.41,
4.063,-3.43,-5.12,-0.55,1.60,-0.96,-7.45,
4.064,-4.03,-3.77,-1.06,1.60,-0.96,-7.45,
4.064,-4.03,-3.77,-1.06,1.64,-0.97,-7.46,
4.065,-4.03,-3.77,-1.06,1.68,-1.00,-7.47,
4.065,-4.50,-2.63,-1.27,1.68,-1.00,-7.47,
4.068,-4.50,-2.63,-1.27,1.72,-1.02,-7.46,
4.07,-4.46,-1.98,-1.26,1.72,-1.02,-7.46,
4.071,-4.46,-1.98,-1.26,1.76,-1.05,-7.44,
4.074,-4.46,-1.98,-1.26,1.80,-1.07,-7.42,
4.075,-4.46,-1.98,-1.26,1.83,-1.10,-7.40,
4.075,-3.92,-1.76,-1.11,1.83,-1.10,-7.40,
4.077,-3.92,-1.76,-1.11,1.87,-1.11,-7.37,
4.08,-3.92,-1.76,-1.11,1.91,-1.12,-7.36,
4.08,-3.15,-1.76,-0.94,1.91,-1.12,-7.36,
4.082,-3.15,-1.76,-0.94,1.95,-1.10,-7.35,
4.085,-3.15,-1.76,-0.94,1.99,-1.09,-7.34,
4.085,-2.39,-1.78,-0.60,1.99,-1.09,-7.34,
4.088,-2.39,-1.78,-0.60,2.05,-1.07,-7.33,
4.09,-2.39,-1.78,-0.60,2.10,-1.06,-7.32,
4.09,-1.67,-1.92,-0.02,2.10,-1.06,-7.32,
4.092,-1.67,-1.92,-0.02,2.16,-1.04,-7.31,
4.095,-1.67,-1.92,-0.02,2.22,-1.02,-7.30,
4.095,-0.80,-2.12,0.54,2.22,-1.02,-7.30,
4.097,-0.80,-2.12,0.54,2.29,-1.01,-7.30,
4.1,-0.80,-2.12,0.54,2.36,-0.99,-7.29,
4.1,0.03,-2.17,0.74,2.36,-0.99,-7.29,
4.102,0.03,-2.17,0.74,2.42,-0.96,-7.29,
4.105,0.03,-2.17,0.74,2.49,-0.91,-7.29,
4.106,0.68,-2.02,0.59,2.49,-0.91,-7.29,
4.107,0.68,-2.02,0.59,2.56,-0.84,-7.28,
4.11,0.68,-2.02,0.59,2.63,-0.75,-7.28,
4.11,0.97,-1.82,0.49,2.63,-0.75,-7.28,
4.112,0.97,-1.82,0.49,2.70,-0.66,-7.27,
4.115,0.97,-1.82,0.49,2.76,-0.58,-7.26,
4.115,0.92,-1.56,0.66,2.76,-0.58,-7.26,
4.117,0.92,-1.56,0.66,2.82,-0.51,-7.24,
4.12,0.63,-1.29,1.13,2.82,-0.51,-7.24,
4.121,0.63,-1.29,1.13,2.88,-0.46,-7.22,
4.123,0.63,-1.29,1.13,2.93,-0.42,-7.20,
4.125,0.63,-1.29,1.13,2.99,-0.40,-7.17,
4.125,0.20,-1.09,1.77,2.99,-0.40,-7.17,
4.127,0.20,-1.09,1.77,3.04,-0.40,-7.14,
4.13,0.20,-1.09,1.77,3.09,-0.41,-7.10,
4.13,-0.14,-0.97,2.43,3.09,-0.41,-7.10,
4.132,-0.14,-0.97,2.43,3.13,-0.42,-7.06,
4.134,-0.14,-0.97,2.43,3.17,-0.44,-7.01,
4.135,0.08,-0.85,2.78,3.17,-0.44,-7.01,
4.142,0.08,-0.85,2.78,3.20,-0.45,-6.96,
4.142,0.08,-0.85,2.78,3.23,-0.46,-6.90,
4.143,0.89,-0.59,2.76,3.23,-0.46,-6.90,
4.143,0.89,-0.59,2.76,3.25,-0.47,-6.83,
4.145,0.89,-0.59,2.76,3.26,-0.48,-6.77,
4.145,1.91,0.03,2.47,3.26,-0.48,-6.77,
4.174,1.91,0.03,2.47,3.26,-0.51,-6.70,
4.175,1.91,0.03,2.47,3.26,-0.56,-6.64,
4.175,2.91,0.90,2.06,3.26,-0.56,-6.64,
4.175,2.91,0.90,2.06,3.25,-0.61,-6.57,
4.176,3.64,1.99,1.66,3.25,-0.61,-6.57,
4.176,3.64,1.99,1.66,3.23,-0.67,-6.50,
4.176,4.06,2.95,1.29,3.23,-0.67,-6.50,
4.177,4.06,2.95,1.29,3.21,-0.73,-6.42,
4.177,4.06,2.95,1.29,3.18,-0.77,-6.35,
4.177,4.06,2.95,1.29,3.16,-0.79,-6.27,
4.177,4.29,3.88,1.20,3.16,-0.79,-6.27,
4.178,4.29,3.88,1.20,3.14,-0.78,-6.19,
4.178,4.29,3.88,1.20,3.12,-0.76,-6.11,
4.178,4.29,3.88,1.20,3.11,-0.74,-6.02,
4.179,4.40,4.64,1.75,3.11,-0.74,-6.02,
4.179,4.40,4.64,1.75,3.10,-0.73,-5.92,
4.179,4.59,4.90,2.74,3.10,-0.73,-5.92,
4.179,4.59,4.90,2.74,3.09,-0.73,-5.83,
4.18,4.59,4.90,2.74,3.09,-0.75,-5.74,
4.18,4.90,4.65,3.81,3.09,-0.75,-5.74,
4.18,4.90,4.65,3.81,3.08,-0.79,-5.66,
4.182,4.90,4.65,3.81,3.07,-0.84,-5.57,
4.184,5.45,3.96,4.38,3.07,-0.84,-5.57,
4.184,5.45,3.96,4.38,3.06,-0.91,-5.48,
4.186,5.45,3.96,4.38,3.04,-0.98,-5.40,
4.19,5.45,3.96,4.38,3.00,-1.05,-5.33,
4.191,6.14,3.24,4.56,3.00,-1.05,-5.33,
4.191,6.14,3.24,4.56,2.96,-1.12,-5.26,
4.194,6.14,3.24,4.56,2.91,-1.19,-5.19,
4.194,6.75,2.61,4.35,2.91,-1.19,-5.19,
4.196,6.75,2.61,4.35,2.85,-1.24,-5.13,
4.2,6.75,2.61,4.35,2.78,-1.28,-5.06,
4.2,7.19,2.30,3.97,2.78,-1.28,-5.06,
4.202,7.19,2.30,3.97,2.70,-1.32,-4.98,
4.207,7.19,2.30,3.97,2.62,-1.36,-4.90,
4.207,7.52,2.19,3.79,2.62,-1.36,-4.90,
4.208,7.52,2.19,3.79,2.53,-1.41,-4.81,
4.209,7.98,2.29,3.64,2.53,-1.41,-4.81,
4.211,7.98,2.29,3.64,2.44,-1.45,-4.72,
4.211,7.98,2.29,3.64,2.35,-1.49,-4.63,
4.214,7.98,2.29,3.64,2.26,-1.53,-4.54,
4.214,8.58,2.51,3.50,2.26,-1.53,-4.54,
4.216,8.58,2.51,3.50,2.16,-1.55,-4.47,
4.219,9.37,2.49,3.39,2.16,-1.55,-4.47,
4.219,9.37,2.49,3.39,2.07,-1.54,-4.41,
4.223,9.37,2.49,3.39,1.97,-1.53,-4.37,
4.224,9.93,2.43,3.73,1.97,-1.53,-4.37,
4.224,9.93,2.43,3.73,1.89,-1.51,-4.34,
4.226,9.93,2.43,3.73,1.80,-1.50,-4.31,
4.23,9.93,2.43,3.73,1.72,-1.50,-4.30,
4.23,10.46,2.24,4.45,1.72,-1.50,-4.30,
4.231,10.46,2.24,4.45,1.65,-1.50,-4.30,
4.234,10.46,2.24,4.45,1.57,-1.50,-4.30,
4.234,10.69,1.94,5.00,1.57,-1.50,-4.30,
4.237,10.69,1.94,5.00,1.50,-1.50,-4.29,
4.239,10.69,1.94,5.00,1.44,-1.48,-4.29,
4.239,10.69,1.86,5.28,1.44,-1.48,-4.29,
4.241,10.69,1.86,5.28,1.38,-1.42,-4.28,
4.243,10.69,1.86,5.28,1.32,-1.33,-4.28,
4.244,10.58,1.82,5.30,1.32,-1.33,-4.28,
4.246,10.58,1.82,5.30,1.28,-1.21,-4.26,
4.248,10.58,1.82,5.30,1.23,-1.05,-4.23,
4.248,10.14,1.88,5.01,1.23,-1.05,-4.23,
4.251,10.14,1.88,5.01,1.18,-0.87,-4.19,
4.253,10.14,1.88,5.01,1.13,-0.68,-4.14,
4.254,9.57,1.94,4.50,1.13,-0.68,-4.14,
4.257,9.57,1.94,4.50,1.08,-0.49,-4.08,
4.259,9.57,1.94,4.50,1.03,-0.31,-4.01,
4.259,8.89,2.17,4.09,1.03,-0.31,-4.01,
4.261,8.89,2.17,4.09,0.98,-0.14,-3.93,
4.263,8.89,2.17,4.09,0.94,0.01,-3.85,
4.263,8.21,2.54,3.68,0.94,0.01,-3.85,
4.266,8.21,2.54,3.68,0.90,0.15,-3.76,
4.268,8.21,2.54,3.68,0.86,0.26,-3.66,
4.268,7.43,3.00,3.25,0.86,0.26,-3.66,
4.271,7.43,3.00,3.25,0.82,0.35,-3.55,
4.273,7.43,3.00,3.25,0.79,0.40,-3.42,
4.273,6.59,3.65,2.99,0.79,0.40,-3.42,
4.276,6.59,3.65,2.99,0.76,0.40,-3.28,
4.278,6.59,3.65,2.99,0.73,0.39,-3.13,
4.278,5.94,4.35,2.77,0.73,0.39,-3.13,
4.281,5.94,4.35,2.77,0.69,0.35,-2.97,
4.283,5.94,4.35,2.77,0.66,0.28,-2.81,
4.283,5.36,4.93,2.65,0.66,0.28,-2.81,
4.285,5.36,4.93,2.65,0.64,0.21,-2.64,
4.289,5.36,4.93,2.65,0.61,0.12,-2.46,
4.289,4.90,5.21,2.64,0.61,0.12,-2.46,
4.291,4.90,5.21,2.64,0.59,0.02,-2.28,
4.293,4.90,5.21,2.64,0.57,-0.07,-2.09,
4.293,4.62,5.10,2.78,0.57,-0.07,-2.09,
4.296,4.62,5.10,2.78,0.56,-0.16,-1.90,
4.298,4.62,5.10,2.78,0.54,-0.23,-1.71,
4.298,4.66,4.48,2.91,0.54,-0.23,-1.71,
4.3,4.66,4.48,2.91,0.54,-0.28,-1.52,
4.304,4.66,4.48,2.91,0.54,-0.32,-1.34,
4.305,5.25,3.52,2.85,0.54,-0.32,-1.34,
4.307,5.25,3.52,2.85,0.54,-0.32,-1.16,
4.308,5.25,3.52,2.85,0.53,-0.32,-1.00,
4.308,6.22,2.41,2.75,0.53,-0.32,-1.00,
4.31,6.22,2.41,2.75,0.53,-0.30,-0.85,
4.33,6.22,2.41,2.75,0.52,-0.27,-0.72,
4.33,7.23,1.25,2.59,0.52,-0.27,-0.72,
4.33,7.23,1.25,2.59,0.50,-0.23,-0.62,
4.33,7.23,1.25,2.59,0.48,-0.16,-0.54,
4.331,7.80,0.23,2.39,0.48,-0.16,-0.54,
4.331,7.80,0.23,2.39,0.45,-0.07,-0.46,
4.331,7.80,0.23,2.39,0.42,0.03,-0.39,
4.332,7.47,-0.49,2.35,0.42,0.03,-0.39,
4.332,7.47,-0.49,2.35,0.39,0.15,-0.33,
4.332,7.47,-0.49,2.35,0.35,0.26,-0.26,
4.332,6.64,-0.78,2.25,0.35,0.26,-0.26,
4.333,6.64,-0.78,2.25,0.30,0.37,-0.20,
4.338,5.58,-0.61,2.19,0.30,0.37,-0.20,
4.342,5.58,-0.61,2.19,0.25,0.45,-0.14,
4.342,5.58,-0.61,2.19,0.20,0.51,-0.07,
4.342,4.45,-0.07,2.30,0.20,0.51,-0.07,
4.343,4.45,-0.07,2.30,0.15,0.53,-0.01,
4.343,4.45,-0.07,2.30,0.09,0.52,0.05,
4.343,3.41,0.61,2.54,0.09,0.52,0.05,
4.349,1.89,0.96,2.82,0.09,0.52,0.05,
4.354,0.15,0.89,3.16,0.09,0.52,0.05,
4.354,0.15,0.89,3.16,0.04,0.48,0.11,
4.354,0.15,0.89,3.16,-0.00,0.44,0.17,
4.354,0.15,0.89,3.16,-0.04,0.41,0.24,
4.355,0.15,0.89,3.16,-0.08,0.37,0.32,
4.355,0.15,0.89,3.16,-0.11,0.33,0.42,
4.365,0.15,0.89,3.16,-0.15,0.28,0.53,
4.366,-1.05,0.60,3.35,-0.15,0.28,0.53,
4.366,-1.05,0.60,3.35,-0.18,0.23,0.64,
4.366,-1.05,0.60,3.35,-0.22,0.16,0.76,
4.367,-1.05,0.60,3.35,-0.25,0.09,0.87,
4.367,-1.53,0.13,3.36,-0.25,0.09,0.87,
4.367,-1.53,0.13,3.36,-0.29,0.00,0.98,
4.375,-1.53,0.13,3.36,-0.33,-0.09,1.09,
4.376,-1.54,-0.45,3.18,-0.33,-0.09,1.09,
4.376,-1.54,-0.45,3.18,-0.37,-0.20,1.18,
4.377,-1.30,-1.04,2.87,-0.37,-0.20,1.18,
4.377,-1.30,-1.04,2.87,-0.41,-0.33,1.27,
4.378,-1.30,-1.04,2.87,-0.45,-0.45,1.36,
4.378,-1.30,-1.04,2.87,-0.49,-0.57,1.44,
4.378,-0.84,-1.55,2.53,-0.49,-0.57,1.44,
4.38,-0.84,-1.55,2.53,-0.53,-0.67,1.52,
4.382,-0.84,-1.55,2.53,-0.56,-0.75,1.60,
4.383,-0.36,-1.88,2.19,-0.56,-0.75,1.60,
4.385,-0.36,-1.88,2.19,-0.58,-0.80,1.67,
4.388,-0.36,-1.88,2.19,-0.60,-0.83,1.74,
4.388,-0.07,-2.01,1.87,-0.60,-0.83,1.74,
4.39,-0.07,-2.01,1.87,-0.61,-0.84,1.81,
4.392,0.15,-1.98,1.50,-0.61,-0.84,1.81,
4.393,0.15,-1.98,1.50,-0.62,-0.83,1.87,
4.395,0.15,-1.98,1.50,-0.62,-0.80,1.93,
4.397,0.15,-1.98,1.50,-0.62,-0.75,1.97,
4.398,0.34,-1.76,1.09,-0.62,-0.75,1.97,
4.4,0.34,-1.76,1.09,-0.61,-0.70,2.02,
4.402,0.34,-1.76,1.09,-0.60,-0.65,2.05,
4.403,0.41,-1.47,0.58,-0.60,-0.65,2.05,
4.407,0.41,-1.47,0.58,-0.59,-0.60,2.09,
4.408,0.41,-1.47,0.58,-0.59,-0.53,2.12,
4.408,0.40,-1.24,-0.03,-0.59,-0.53,2.12,
4.409,0.40,-1.24,-0.03,-0.57,-0.46,2.16,
4.412,0.40,-1.24,-0.03,-0.57,-0.37,2.19,
4.413,0.50,-1.19,-0.60,-0.57,-0.37,2.19,
4.414,0.50,-1.19,-0.60,-0.55,-0.28,2.23,
4.417,0.50,-1.19,-0.60,-0.54,-0.20,2.26,
4.417,0.82,-1.15,-0.86,-0.54,-0.20,2.26,
4.419,0.82,-1.15,-0.86,-0.52,-0.12,2.29,
4.429,1.21,-1.06,-0.93,-0.52,-0.12,2.29,
4.43,1.21,-1.06,-0.93,-0.50,-0.04,2.33,
4.43,1.21,-1.06,-0.93,-0.47,0.04,2.35,
4.43,1.21,-1.06,-0.93,-0.43,0.14,2.38,
4.431,1.59,-1.04,-1.17,-0.43,0.14,2.38,
4.431,1.59,-1.04,-1.17,-0.40,0.28,2.40,
4.436,2.02,-1.11,-1.70,-0.40,0.28,2.40,
4.437,2.02,-1.11,-1.70,-0.36,0.44,2.41,
4.437,2.02,-1.11,-1.70,-0.32,0.62,2.42,
4.446,2.31,-1.40,-2.01,-0.32,0.62,2.42,
4.447,2.31,-1.40,-2.01,-0.28,0.82,2.42,
4.447,2.31,-1.40,-2.01,-0.24,1.01,2.41,
4.448,2.31,-1.40,-2.01,-0.20,1.21,2.41,
4.448,2.36,-1.71,-2.18,-0.20,1.21,2.41,
4.448,2.36,-1.71,-2.18,-0.16,1.39,2.42,
4.448,2.36,-1.71,-2.18,-0.12,1.57,2.43,
4.449,2.29,-1.93,-2.26,-0.12,1.57,2.43,
4.449,2.29,-1.93,-2.26,-0.08,1.74,2.46,
4.452,2.29,-1.93,-2.26,-0.04,1.93,2.50,
4.452,2.47,-2.18,-2.32,-0.04,1.93,2.50,
4.455,2.47,-2.18,-2.32,0.01,2.13,2.53,
4.458,2.47,-2.18,-2.32,0.05,2.35,2.56,
4.459,2.95,-2.44,-2.17,0.05,2.35,2.56,
4.459,2.95,-2.44,-2.17,0.09,2.59,2.59,
4.462,2.95,-2.44,-2.17,0.12,2.82,2.61,
4.462,3.56,-2.59,-1.88,0.12,2.82,2.61,
4.464,3.56,-2.59,-1.88,0.14,3.02,2.61,
4.466,3.56,-2.59,-1.88,0.15,3.20,2.61,
4.467,3.94,-2.78,-1.24,0.15,3.20,2.61,
4.469,3.94,-2.78,-1.24,0.14,3.33,2.60,
4.473,3.67,-3.12,-0.52,0.14,3.33,2.60,
4.473,3.67,-3.12,-0.52,0.12,3.43,2.58,
4.474,3.67,-3.12,-0.52,0.08,3.51,2.56,
4.477,2.54,-3.75,0.58,0.08,3.51,2.56,
4.493,2.54,-3.75,0.58,0.04,3.56,2.52,
4.494,2.54,-3.75,0.58,-0.01,3.58,2.47,
4.494,2.54,-3.75,0.58,-0.06,3.55,2.41,
4.494,0.75,-4.61,1.83,-0.06,3.55,2.41,
4.494,0.75,-4.61,1.83,-0.10,3.46,2.34,
4.495,-2.27,-5.20,5.30,-0.10,3.46,2.34,
4.495,-2.27,-5.20,5.30,-0.02,3.22,2.36,
4.495,-2.27,-5.20,5.30,0.26,2.75,2.64,
4.496,-2.27,-5.20,5.30,0.74,1.85,3.19,
4.496,-1.05,-5.36,16.02,0.74,1.85,3.19,
4.496,-1.05,-5.36,16.02,1.88,0.10,3.85,
4.497,5.42,-2.29,23.85,1.88,0.10,3.85,
4.497,5.42,-2.29,23.85,2.87,-2.03,4.68,
4.498,5.42,-2.29,23.85,1.45,-3.86,5.97,
4.501,5.42,-2.29,23.85,0.43,-5.80,7.27,
4.501,5.46,5.77,-9.82,0.43,-5.80,7.27,
4.504,5.46,5.77,-9.82,0.14,-6.86,8.52,
4.507,5.46,5.77,-9.82,-0.25,-7.15,9.62,
4.507,1.04,5.26,-35.04,-0.25,-7.15,9.62,
4.508,1.04,5.26,-35.04,-0.49,-6.82,10.13,
4.511,1.04,5.26,-35.04,-0.84,-5.75,9.93,
4.511,9.18,5.22,-37.59,-0.84,-5.75,9.93,
4.513,9.18,5.22,-37.59,-1.47,-4.25,9.16,
4.516,9.18,5.22,-37.59,-1.90,-2.80,8.05,
4.516,16.30,7.32,-37.59,-1.90,-2.80,8.05,
4.518,16.30,7.32,-37.59,-2.25,-1.48,6.73,
4.523,19.63,15.08,-37.64,-2.25,-1.48,6.73,
4.524,19.63,15.08,-37.64,-2.80,-0.17,5.33,
4.525,19.63,15.08,-37.64,-3.57,0.98,4.03,
4.528,19.63,15.08,-37.64,-5.06,1.90,3.01,
4.529,14.57,30.09,-26.28,-5.06,1.90,3.01,
4.53,14.57,30.09,-26.28,-5.81,1.22,2.71,
4.531,14.57,30.09,-26.28,-5.62,-1.20,3.32,
4.531,5.62,30.06,40.32,-5.62,-1.20,3.32,
4.533,5.62,30.06,40.32,-5.07,-4.62,4.22,
4.536,5.62,30.06,40.32,-3.56,-7.02,4.44,
4.536,8.49,30.06,40.16,-3.56,-7.02,4.44,
4.539,8.49,30.06,40.16,-2.54,-6.69,3.84,
4.541,8.49,30.06,40.16,-1.31,-4.29,3.27,
4.541,-2.89,30.06,24.40,-1.31,-4.29,3.27,
4.543,-2.89,30.06,24.40,-0.20,-0.94,2.90,
4.546,-2.89,30.06,24.40,0.86,1.76,2.70,
4.546,-9.70,17.45,7.73,0.86,1.76,2.70,
4.548,-9.70,17.45,7.73,1.62,3.28,2.62,
4.551,-9.70,17.45,7.73,1.76,4.05,2.64,
4.552,-5.82,0.63,-3.29,1.76,4.05,2.64,
4.555,-5.82,0.63,-3.29,1.49,4.24,2.71,
4.559,-5.82,0.63,-3.29,1.58,3.76,2.82,
4.56,-5.82,0.63,-3.29,1.16,3.30,3.05,
4.56,-0.88,-8.19,-9.11,1.16,3.30,3.05,
4.562,-0.88,-8.19,-9.11,0.60,2.70,3.28,
4.562,-0.81,-14.29,-12.30,0.60,2.70,3.28,
4.564,-0.81,-14.29,-12.30,0.56,1.80,3.45,
4.565,-0.81,-14.29,-12.30,0.51,0.87,3.54,
4.566,-0.62,-21.22,-4.27,0.51,0.87,3.54,
4.568,-0.62,-21.22,-4.27,0.04,0.09,3.64,
4.572,-0.81,-25.62,-1.62,0.04,0.09,3.64,
4.574,-0.81,-25.62,-1.62,-0.47,-0.57,3.71,
4.574,-0.81,-25.62,-1.62,-0.61,-1.00,3.71,
4.576,-0.81,-25.62,-1.62,-0.54,-1.05,3.68,
4.577,0.38,-25.98,-0.48,-0.54,-1.05,3.68,
4.578,0.38,-25.98,-0.48,-0.63,-0.70,3.58,
4.581,0.38,-25.98,-0.48,-0.84,-0.18,3.44,
4.581,3.98,-25.87,3.42,-0.84,-0.18,3.44,
4.583,3.98,-25.87,3.42,-0.88,0.26,3.21,
4.586,9.17,-21.80,11.75,-0.88,0.26,3.21,
4.586,9.17,-21.80,11.75,-0.76,0.53,2.92,
4.59,9.17,-21.80,11.75,-0.68,0.72,2.61,
4.593,9.17,-21.80,11.75,-0.66,0.88,2.31,
4.596,11.28,-12.03,5.44,-0.66,0.88,2.31,
4.596,11.18,-2.90,-0.05,-0.66,0.88,2.31,
4.598,11.18,-2.90,-0.05,-0.67,0.97,2.06,
4.598,11.18,-2.90,-0.05,-0.71,0.99,1.84,
4.599,11.18,-2.90,-0.05,-0.74,0.91,1.67,
4.602,10.90,3.44,1.81,-0.74,0.91,1.67,
4.602,10.90,3.44,1.81,-0.73,0.72,1.52,
4.603,10.90,3.44,1.81,-0.67,0.47,1.41,
4.609,10.90,3.44,1.81,-0.59,0.29,1.34,
4.609,10.29,6.82,3.46,-0.59,0.29,1.34,
4.61,10.29,6.82,3.46,-0.52,0.22,1.27,
4.61,8.91,6.62,2.63,-0.52,0.22,1.27,
4.611,8.91,6.62,2.63,-0.44,0.26,1.21,
4.612,8.91,6.62,2.63,-0.37,0.34,1.13,
4.615,8.91,6.62,2.63,-0.31,0.39,1.05,
4.616,6.75,2.55,2.69,-0.31,0.39,1.05,
4.618,6.75,2.55,2.69,-0.26,0.40,0.96,
4.632,6.75,2.55,2.69,-0.23,0.37,0.89,
4.633,3.96,-1.83,2.40,-0.23,0.37,0.89,
4.634,3.96,-1.83,2.40,-0.22,0.33,0.83,
4.634,3.96,-1.83,2.40,-0.21,0.31,0.76,
4.634,1.71,-3.68,1.30,-0.21,0.31,0.76,
4.635,1.71,-3.68,1.30,-0.21,0.31,0.70,
4.636,0.03,-2.55,1.27,-0.21,0.31,0.70,
4.638,0.03,-2.55,1.27,-0.20,0.31,0.63,
4.638,0.03,-2.55,1.27,-0.19,0.32,0.59,
4.638,-1.57,0.49,1.52,-0.19,0.32,0.59,
4.639,-1.57,0.49,1.52,-0.18,0.33,0.58,
4.64,-1.57,0.49,1.52,-0.18,0.36,0.62,
4.64,-1.57,0.49,1.52,-0.16,0.40,0.68,
4.641,-2.44,2.99,1.50,-0.16,0.40,0.68,
4.662,-2.44,2.99,1.50,-0.14,0.42,0.74,
4.663,-2.44,2.99,1.50,-0.13,0.41,0.79,
4.663,-2.51,4.91,1.75,-0.13,0.41,0.79,
4.663,-2.34,6.07,1.87,-0.13,0.41,0.79,
4.663,-2.34,6.07,1.87,-0.14,0.37,0.84,
4.664,-2.34,6.07,1.87,-0.14,0.32,0.87,
4.664,-2.34,6.07,1.87,-0.15,0.25,0.90,
4.664,-2.34,6.07,1.87,-0.15,0.17,0.93,
4.664,-2.34,6.07,1.87,-0.15,0.11,0.96,
4.665,-2.31,6.39,2.15,-0.15,0.11,0.96,
4.665,-2.31,6.39,2.15,-0.15,0.07,1.01,
4.665,-2.53,5.92,1.71,-0.15,0.07,1.01,
4.665,-2.53,5.92,1.71,-0.14,0.04,1.06,
4.666,-2.53,5.92,1.71,-0.12,0.07,1.12,
4.666,-2.53,4.56,0.90,-0.12,0.07,1.12,
4.667,-2.53,4.56,0.90,-0.09,0.11,1.17,
4.67,-2.53,4.56,0.90,-0.06,0.14,1.21,
4.671,-1.65,2.43,0.39,-0.06,0.14,1.21,
4.672,-1.65,2.43,0.39,-0.04,0.18,1.23,
4.675,-1.65,2.43,0.39,-0.03,0.21,1.22,
4.675,-0.16,0.46,0.07,-0.03,0.21,1.22,
4.677,-0.16,0.46,0.07,-0.03,0.22,1.21,
4.679,-0.16,0.46,0.07,-0.03,0.21,1.18,
4.68,1.15,-0.32,0.31,-0.03,0.21,1.18,
4.682,1.15,-0.32,0.31,-0.02,0.25,1.16,
4.684,1.15,-0.32,0.31,-0.02,0.29,1.12,
4.684,1.93,0.19,0.06,-0.02,0.29,1.12,
4.687,1.93,0.19,0.06,-0.02,0.33,1.09,
4.69,1.93,1.18,-0.16,-0.02,0.33,1.09,
4.69,1.93,1.18,-0.16,-0.03,0.37,1.05,
4.692,1.93,1.18,-0.16,-0.03,0.41,1.02,
4.694,1.93,1.18,-0.16,-0.03,0.47,1.00,
4.694,1.30,1.93,-0.28,-0.03,0.47,1.00,
4.697,1.30,1.93,-0.28,-0.04,0.50,0.98,
4.699,1.30,1.93,-0.28,-0.03,0.52,0.98,
4.7,0.40,2.19,-0.14,-0.03,0.52,0.98,
4.702,0.40,2.19,-0.14,-0.04,0.55,0.98,
4.705,0.40,2.19,-0.14,-0.05,0.60,1.00,
4.706,-0.56,2.15,-0.51,-0.05,0.60,1.00,
4.708,-0.56,2.15,-0.51,-0.06,0.60,1.02,
4.71,-1.39,2.01,-0.61,-0.06,0.60,1.02,
4.711,-1.39,2.01,-0.61,-0.07,0.61,1.04,
4.712,-1.39,2.01,-0.61,-0.09,0.62,1.07,
4.714,-1.39,2.01,-0.61,-0.10,0.63,1.11,
4.714,-2.16,2.01,-0.67,-0.10,0.63,1.11,
4.717,-2.16,2.01,-0.67,-0.12,0.62,1.14,
4.719,-2.16,2.01,-0.67,-0.13,0.61,1.18,
4.719,-2.67,2.11,-0.78,-0.13,0.61,1.18,
4.722,-2.67,2.11,-0.78,-0.15,0.61,1.22,
4.724,-2.80,2.25,-1.00,-0.15,0.61,1.22,
4.725,-2.80,2.25,-1.00,-0.17,0.61,1.26,
4.727,-2.80,2.25,-1.00,-0.19,0.60,1.29,
4.729,-2.76,2.19,-1.08,-0.19,0.60,1.29,
4.73,-2.76,2.19,-1.08,-0.21,0.57,1.33,
4.731,-2.76,2.19,-1.08,-0.22,0.54,1.36,
4.734,-2.76,2.19,-1.08,-0.24,0.56,1.40,
4.734,-2.44,2.00,-1.54,-0.24,0.56,1.40,
4.736,-2.44,2.00,-1.54,-0.24,0.60,1.44,
4.74,-2.44,2.00,-1.54,-0.25,0.64,1.48,
4.742,-1.91,1.55,-1.06,-0.25,0.64,1.48,
4.742,-1.91,1.55,-1.06,-0.25,0.64,1.50,
4.745,-1.91,1.55,-1.06,-0.26,0.61,1.52,
4.747,-1.91,1.55,-1.06,-0.28,0.60,1.52,
4.748,-1.45,0.79,-0.71,-0.28,0.60,1.52,
4.75,-1.45,0.79,-0.71,-0.31,0.60,1.53,
4.75,-1.43,0.50,-1.19,-0.31,0.60,1.53,
4.752,-1.43,0.50,-1.19,-0.33,0.60,1.53,
4.759,-1.43,0.50,-1.19,-0.35,0.60,1.54,
4.759,-1.92,0.76,-0.96,-0.35,0.60,1.54,
4.76,-1.92,0.76,-0.96,-0.36,0.60,1.56,
4.76,-1.92,0.76,-0.96,-0.36,0.59,1.58,
4.761,-2.42,0.79,-0.44,-0.36,0.59,1.58,
4.761,-2.42,0.79,-0.44,-0.36,0.59,1.61,
4.764,-2.60,0.38,-0.47,-0.36,0.59,1.61,
4.764,-2.60,0.38,-0.47,-0.36,0.58,1.63,
4.766,-2.60,0.38,-0.47,-0.36,0.56,1.66,
4.769,-2.60,0.38,-0.47,-0.37,0.55,1.69,
4.769,-2.49,-0.26,-0.70,-0.37,0.55,1.69,
4.771,-2.49,-0.26,-0.70,-0.38,0.53,1.72,
4.774,-2.18,-0.77,-0.58,-0.38,0.53,1.72,
4.775,-2.18,-0.77,-0.58,-0.39,0.51,1.74,
4.776,-2.18,-0.77,-0.58,-0.39,0.49,1.76,
4.779,-2.18,-0.77,-0.58,-0.39,0.48,1.78,
4.779,-1.67,-1.09,-0.34,-0.39,0.48,1.78,
4.781,-1.67,-1.09,-0.34,-0.39,0.48,1.79,
4.784,-1.67,-1.09,-0.34,-0.40,0.50,1.80,
4.784,-1.25,-1.05,-0.44,-0.40,0.50,1.80,
4.786,-1.25,-1.05,-0.44,-0.40,0.53,1.81,
4.79,-1.25,-1.05,-0.44,-0.40,0.55,1.82,
4.79,-1.08,-0.57,-0.33,-0.40,0.55,1.82,
4.791,-1.08,-0.57,-0.33,-0.40,0.56,1.82,
4.794,-1.23,0.12,-0.25,-0.40,0.56,1.82,
4.794,-1.23,0.12,-0.25,-0.40,0.56,1.84,
4.796,-1.23,0.12,-0.25,-0.40,0.57,1.85,
4.799,-1.23,0.12,-0.25,-0.40,0.58,1.86,
4.799,-1.48,0.69,-0.35,-0.40,0.58,1.86,
4.801,-1.48,0.69,-0.35,-0.40,0.59,1.88,
4.804,-1.77,1.23,-0.51,-0.40,0.59,1.88,
4.805,-1.77,1.23,-0.51,-0.41,0.61,1.90,
4.806,-1.77,1.23,-0.51,-0.41,0.62,1.93,
4.836,-2.04,1.60,-0.47,-0.41,0.62,1.93,
4.836,-2.04,1.60,-0.47,-0.41,0.64,1.96,
4.836,-2.04,1.60,-0.47,-0.41,0.65,1.99,
4.837,-2.19,1.79,-0.59,-0.41,0.65,1.99,
4.837,-2.19,1.79,-0.59,-0.42,0.66,2.03,
4.837,-2.19,1.79,-0.59,-0.42,0.68,2.06,
4.837,-2.19,1.79,-0.59,-0.43,0.68,2.10,
4.838,-2.27,1.96,-0.57,-0.43,0.68,2.10,
4.838,-2.27,1.96,-0.57,-0.44,0.68,2.13,
4.838,-2.26,1.93,-0.61,-0.44,0.68,2.13,
4.838,-2.26,1.93,-0.61,-0.45,0.68,2.16,
4.839,-2.26,1.93,-0.61,-0.46,0.69,2.18,
4.839,-2.26,1.93,-0.61,-0.46,0.70,2.21,
4.839,-2.30,1.81,-0.62,-0.46,0.70,2.21,
4.839,-2.30,1.81,-0.62,-0.47,0.71,2.23,
4.84,-2.30,1.81,-0.62,-0.48,0.72,2.26,
4.84,-2.23,1.19,-0.40,-0.48,0.72,2.26,
4.84,-2.23,1.19,-0.40,-0.48,0.72,2.27,
4.84,-2.23,1.19,-0.40,-0.49,0.71,2.29,
4.841,-1.97,0.07,0.06,-0.49,0.71,2.29,
4.842,-1.97,0.07,0.06,-0.49,0.70,2.30,
4.844,-1.97,0.07,0.06,-0.50,0.69,2.32,
4.845,-1.46,-1.19,0.32,-0.50,0.69,2.32,
4.847,-1.46,-1.19,0.32,-0.51,0.68,2.32,
4.849,-1.46,-1.19,0.32,-0.52,0.68,2.32,
4.85,-0.77,-2.07,0.54,-0.52,0.68,2.32,
4.851,-0.77,-2.07,0.54,-0.54,0.68,2.31,
4.853,-0.77,-2.07,0.54,-0.55,0.69,2.30,
4.853,-0.38,-1.98,0.69,-0.55,0.69,2.30,
4.86,-0.38,-1.98,0.69,-0.56,0.71,2.28,
4.87,-0.38,-1.98,0.69,-0.57,0.74,2.28,
4.87,-0.42,-1.04,0.44,-0.57,0.74,2.28,
4.87,-0.42,-1.04,0.44,-0.59,0.78,2.27,
4.871,-0.42,-1.04,0.44,-0.60,0.82,2.27,
4.871,-0.87,0.11,0.01,-0.60,0.82,2.27,
4.871,-1.38,1.24,-0.13,-0.60,0.82,2.27,
4.872,-1.38,1.24,-0.13,-0.61,0.85,2.27,
4.872,-1.38,1.24,-0.13,-0.62,0.88,2.28,
4.872,-1.38,1.24,-0.13,-0.63,0.89,2.30,
4.879,-1.86,2.08,-0.25,-0.63,0.89,2.30,
4.88,-1.86,2.08,-0.25,-0.64,0.90,2.32,
4.88,-1.86,2.08,-0.25,-0.65,0.89,2.35,
4.88,-2.16,2.77,-0.64,-0.65,0.89,2.35,
4.88,-2.16,2.77,-0.64,-0.67,0.89,2.38,
4.881,-2.16,2.77,-0.64,-0.69,0.90,2.41,
4.884,-2.23,3.43,-0.95,-0.69,0.90,2.41,
4.885,-2.23,3.43,-0.95,-0.71,0.90,2.44,
4.887,-2.23,3.43,-0.95,-0.73,0.89,2.47,
4.888,-2.23,3.43,-0.95,-0.75,0.88,2.50,
4.889,-2.26,4.21,-0.88,-0.75,0.88,2.50,
4.893,-2.26,4.21,-0.88,-0.77,0.88,2.53,
4.893,-2.26,4.21,-0.88,-0.79,0.88,2.56,
4.894,-2.29,5.01,-0.93,-0.79,0.88,2.56,
4.895,-2.29,5.01,-0.93,-0.81,0.90,2.60,
4.898,-2.29,5.01,-0.93,-0.83,0.91,2.63,
4.898,-2.34,6.08,-0.95,-0.83,0.91,2.63,
4.9,-2.34,6.08,-0.95,-0.84,0.93,2.66,
4.903,-2.34,6.08,-0.95,-0.85,0.96,2.69,
4.903,-2.65,7.20,-1.04,-0.85,0.96,2.69,
4.905,-2.65,7.20,-1.04,-0.85,1.00,2.73,
4.908,-2.65,7.20,-1.04,-0.86,1.04,2.77,
4.908,-3.07,8.23,-1.42,-0.86,1.04,2.77,
4.91,-3.07,8.23,-1.42,-0.87,1.08,2.81,
4.913,-3.23,8.57,-1.53,-0.87,1.08,2.81,
4.913,-3.23,8.57,-1.53,-0.88,1.10,2.86,
4.915,-3.23,8.57,-1.53,-0.88,1.10,2.90,
4.918,-3.23,8.57,-1.53,-0.89,1.08,2.95,
4.918,-3.08,8.29,-1.16,-0.89,1.08,2.95,
4.92,-3.08,8.29,-1.16,-0.89,1.06,2.99,
4.923,-3.08,8.29,-1.16,-0.89,1.05,3.03,
4.924,-2.97,7.82,-0.89,-0.89,1.05,3.03,
4.925,-2.97,7.82,-0.89,-0.89,1.03,3.06,
4.928,-2.97,7.82,-0.89,-0.89,1.02,3.09,
4.928,-3.17,7.51,-0.67,-0.89,1.02,3.09,
4.933,-3.17,7.51,-0.67,-0.90,1.03,3.11,
4.933,-3.17,7.51,-0.67,-0.90,1.04,3.13,
4.933,-3.54,7.37,-0.33,-0.90,1.04,3.13,
4.935,-3.54,7.37,-0.33,-0.90,1.05,3.16,
4.94,-3.54,7.37,-0.33,-0.90,1.05,3.20,
4.94,-3.90,7.48,0.15,-0.90,1.05,3.20,
4.94,-3.90,7.48,0.15,-0.90,1.05,3.24,
4.942,-3.90,7.48,0.15,-0.89,1.05,3.27,
4.942,-3.89,7.63,0.27,-0.89,1.05,3.27,
4.945,-3.89,7.63,0.27,-0.90,1.06,3.30,
4.947,-3.89,7.63,0.27,-0.89,1.08,3.32,
4.948,-3.92,8.22,-0.15,-0.89,1.08,3.32,
4.95,-3.92,8.22,-0.15,-0.90,1.11,3.34,
4.952,-3.92,8.22,-0.15,-0.92,1.15,3.36,
4.952,-4.28,9.54,-0.66,-0.92,1.15,3.36,
4.955,-4.28,9.54,-0.66,-0.94,1.19,3.39,
4.957,-4.28,9.54,-0.66,-0.96,1.23,3.42,
4.958,-4.83,11.22,-0.86,-0.96,1.23,3.42,
4.96,-4.83,11.22,-0.86,-0.98,1.27,3.45,
4.963,-4.83,11.22,-0.86,-1.00,1.30,3.50,
4.963,-5.46,12.95,-0.55,-1.00,1.30,3.50,
4.965,-5.46,12.95,-0.55,-1.01,1.33,3.56,
4.968,-5.46,12.95,-0.55,-1.00,1.34,3.62,
4.968,-6.13,14.56,-0.20,-1.00,1.34,3.62,
4.97,-6.13,14.56,-0.20,-0.99,1.36,3.70,
4.973,-6.55,15.78,-0.70,-0.99,1.36,3.70,
5.005,-6.55,15.78,-0.70,-0.96,1.38,3.79,
5.005,-6.55,15.78,-0.70,-0.94,1.41,3.87,
5.006,-6.75,16.55,-2.54,-0.94,1.41,3.87,
5.006,-6.75,16.55,-2.54,-0.92,1.44,3.93,
5.007,-6.75,16.55,-2.54,-0.94,1.47,3.99,
5.007,-6.75,16.55,-2.54,-0.98,1.47,4.04,
5.008,-6.75,16.55,-2.54,-1.01,1.44,4.10,
5.008,-7.23,17.13,-4.22,-1.01,1.44,4.10,
5.009,-7.55,16.63,-4.52,-1.01,1.44,4.10,
5.009,-7.55,16.63,-4.52,-1.03,1.38,4.15,
5.009,-7.55,16.63,-4.52,-1.03,1.31,4.19,
5.01,-7.55,16.63,-4.52,-1.02,1.23,4.23,
5.01,-7.72,15.38,-4.78,-1.02,1.23,4.23,
5.011,-7.72,15.38,-4.78,-1.00,1.14,4.26,
