
time,ax,ay,az,wx,wy,wz,
0.003,0.19,-0.12,-0.02,0.06,-0.10,0.06,
0.003,0.19,-0.12,-0.02,0.05,-0.10,0.05,
0.003,0.19,-0.12,-0.02,0.04,-0.11,0.04,
0.003,0.35,-0.06,-0.11,0.04,-0.11,0.04,
0.004,0.35,-0.06,-0.11,0.04,-0.11,0.03,
0.004,0.35,-0.06,-0.11,0.03,-0.10,0.03,
0.004,0.35,-0.06,-0.11,0.03,-0.08,0.02,
0.005,0.43,0.00,-0.00,0.03,-0.08,0.02,
0.006,0.43,0.00,-0.00,0.03,-0.07,0.02,
0.009,0.43,0.00,-0.00,0.04,-0.06,0.01,
0.009,0.44,-0.02,-0.06,0.04,-0.06,0.01,
0.012,0.44,-0.02,-0.06,0.04,-0.06,0.01,
0.014,0.44,-0.02,-0.06,0.03,-0.04,0.00,
0.014,0.27,-0.07,-0.49,0.03,-0.04,0.00,
0.016,0.27,-0.07,-0.49,0.01,-0.01,-0.00,
0.019,0.27,-0.07,-0.49,0.00,0.00,-0.01,
0.019,0.22,-0.12,-0.51,0.00,0.00,-0.01,
0.021,0.22,-0.12,-0.51,-0.00,0.01,-0.02,
0.024,0.22,-0.12,-0.51,-0.01,-0.00,-0.02,
0.024,0.06,-0.06,-0.30,-0.01,-0.00,-0.02,
0.036,0.06,-0.06,-0.30,-0.01,-0.01,-0.02,
0.036,0.06,-0.06,-0.30,-0.02,-0.01,-0.02,
0.036,-0.11,-0.03,-0.21,-0.02,-0.01,-0.02,
0.037,-0.11,-0.03,-0.21,-0.02,-0.01,-0.02,
0.037,-0.11,-0.03,-0.21,-0.02,0.00,-0.02,
0.037,-0.12,-0.03,-0.06,-0.02,0.00,-0.02,
0.038,-0.12,-0.03,-0.06,-0.02,0.01,-0.02,
0.039,-0.12,-0.03,-0.06,-0.02,0.01,-0.02,
0.039,-0.12,-0.06,0.09,-0.02,0.01,-0.02,
0.042,-0.12,-0.06,0.09,-0.01,0.00,-0.02,
0.044,-0.22,-0.11,-0.02,-0.01,0.00,-0.02,
0.045,-0.22,-0.11,-0.02,-0.02,-0.00,-0.02,
0.046,-0.22,-0.11,-0.02,-0.03,-0.00,-0.02,
0.049,-0.34,-0.17,0.07,-0.03,-0.00,-0.02,
0.049,-0.34,-0.17,0.07,-0.03,-0.01,-0.02,
0.052,-0.34,-0.17,0.07,-0.03,-0.01,-0.02,
0.054,-0.29,-0.15,0.28,-0.03,-0.01,-0.02,
0.055,-0.29,-0.15,0.28,-0.03,-0.01,-0.02,
0.056,-0.29,-0.15,0.28,-0.03,-0.00,-0.02,
0.059,-0.16,-0.06,0.50,-0.03,-0.00,-0.02,
0.059,-0.16,-0.06,0.50,-0.03,-0.01,-0.02,
0.062,-0.16,-0.06,0.50,-0.03,-0.01,-0.02,
0.063,-0.07,-0.10,0.63,-0.03,-0.01,-0.02,
0.063,-0.07,-0.10,0.63,-0.03,-0.01,-0.02,
0.066,-0.07,-0.10,0.63,-0.02,0.01,-0.02,
0.069,0.04,-0.12,0.68,-0.02,0.01,-0.02,
0.069,0.04,-0.12,0.68,-0.01,0.03,-0.02,
0.071,0.04,-0.12,0.68,-0.00,0.04,-0.02,
0.073,0.04,-0.12,0.68,-0.00,0.05,-0.02,
0.073,-0.01,-0.05,0.58,-0.00,0.05,-0.02,
0.076,-0.01,-0.05,0.58,0.00,0.04,-0.02,
0.079,-0.16,-0.02,0.65,0.00,0.04,-0.02,
0.079,-0.16,-0.02,0.65,0.01,0.04,-0.02,
0.081,-0.16,-0.02,0.65,0.02,0.04,-0.02,
0.083,-0.16,-0.02,0.65,0.02,0.03,-0.02,
0.083,-0.48,-0.04,0.67,0.02,0.03,-0.02,
0.086,-0.48,-0.04,0.67,0.03,0.02,-0.01,
0.088,-0.48,-0.04,0.67,0.03,0.01,-0.00,
0.088,-0.62,-0.12,0.67,0.03,0.01,-0.00,
0.091,-0.62,-0.12,0.67,0.03,-0.01,0.00,
0.093,-0.52,-0.14,0.51,0.03,-0.01,0.00,
0.095,-0.52,-0.14,0.51,0.03,-0.02,0.01,
0.096,-0.52,-0.14,0.51,0.04,-0.03,0.01,
0.099,-0.52,-0.14,0.51,0.04,-0.04,0.01,
0.099,-0.28,-0.13,0.33,0.04,-0.04,0.01,
0.1,-0.28,-0.13,0.33,0.04,-0.05,0.01,
0.103,-0.28,-0.13,0.33,0.04,-0.05,0.01,
0.103,-0.02,-0.06,-0.03,0.04,-0.05,0.01,
0.105,-0.02,-0.06,-0.03,0.04,-0.04,0.01,
0.108,-0.02,-0.06,-0.03,0.04,-0.02,0.01,
0.109,0.23,-0.02,-0.16,0.04,-0.02,0.01,
0.113,0.23,-0.02,-0.16,0.03,-0.00,0.01,
0.113,0.23,-0.02,-0.16,0.03,0.01,0.00,
0.113,0.22,-0.02,-0.16,0.03,0.01,0.00,
0.116,0.22,-0.02,-0.16,0.03,0.03,-0.00,
0.118,0.06,-0.13,-0.18,0.03,0.03,-0.00,
0.119,0.06,-0.13,-0.18,0.03,0.06,-0.00,
0.12,0.06,-0.13,-0.18,0.03,0.06,-0.00,
0.123,0.06,-0.13,-0.18,0.02,0.07,-0.00,
0.123,-0.18,-0.18,-0.21,0.02,0.07,-0.00,
0.125,-0.18,-0.18,-0.21,0.02,0.08,-0.00,
0.128,-0.18,-0.18,-0.21,0.01,0.09,-0.01,
0.129,-0.25,-0.19,-0.12,0.01,0.09,-0.01,
0.13,-0.25,-0.19,-0.12,0.00,0.08,-0.01,
0.133,-0.25,-0.19,-0.12,-0.01,0.07,-0.01,
0.133,-0.23,-0.06,-0.11,-0.01,0.07,-0.01,
0.135,-0.23,-0.06,-0.11,-0.01,0.06,-0.01,
0.138,-0.23,-0.06,-0.11,-0.02,0.06,-0.00,
0.15,-0.14,-0.02,0.06,-0.02,0.06,-0.00,
0.15,-0.14,-0.02,0.06,-0.02,0.06,-0.01,
0.15,-0.14,-0.02,0.06,-0.01,0.07,-0.01,
0.151,0.03,-0.06,0.27,-0.01,0.07,-0.01,
0.151,0.03,-0.06,0.27,-0.01,0.07,-0.02,
0.151,0.03,-0.06,0.27,-0.00,0.08,-0.02,
0.151,0.01,-0.12,0.30,-0.00,0.08,-0.02,
0.152,0.01,-0.12,0.30,-0.00,0.08,-0.02,
0.154,0.01,-0.12,0.30,-0.00,0.08,-0.02,
0.155,-0.09,-0.13,0.19,-0.00,0.08,-0.02,
0.155,-0.09,-0.13,0.19,-0.00,0.09,-0.01,
0.158,-0.09,-0.13,0.19,-0.00,0.09,-0.01,
0.158,-0.25,-0.07,0.17,-0.00,0.09,-0.01,
0.161,-0.25,-0.07,0.17,0.00,0.09,-0.00,
0.165,-0.25,-0.07,0.17,0.00,0.08,-0.00,
0.165,-0.39,-0.00,0.37,0.00,0.08,-0.00,
0.165,-0.39,-0.00,0.37,0.00,0.07,0.00,
0.167,-0.39,-0.00,0.37,0.01,0.06,0.01,
0.168,-0.48,-0.07,0.40,0.01,0.06,0.01,
0.17,-0.48,-0.07,0.40,0.01,0.04,0.01,
0.172,-0.48,-0.07,0.40,0.01,0.03,0.01,
0.172,-0.47,-0.13,0.30,0.01,0.03,0.01,
0.176,-0.47,-0.13,0.30,0.01,0.02,0.01,
0.177,-0.47,-0.13,0.30,0.01,0.01,0.02,
0.177,-0.42,-0.06,0.27,0.01,0.01,0.02,
0.18,-0.42,-0.06,0.27,0.01,0.01,0.02,
0.182,-0.42,-0.06,0.27,0.01,0.01,0.03,
0.182,-0.32,0.00,0.22,0.01,0.01,0.03,
0.185,-0.32,0.00,0.22,0.01,0.00,0.03,
0.187,-0.32,0.00,0.22,0.01,-0.00,0.04,
0.187,-0.24,-0.00,0.14,0.01,-0.00,0.04,
0.189,-0.24,-0.00,0.14,0.01,-0.00,0.04,
0.193,-0.24,-0.00,0.14,0.01,-0.01,0.04,
0.193,-0.13,-0.04,0.12,0.01,-0.01,0.04,
0.195,-0.13,-0.04,0.12,0.01,-0.02,0.04,
0.197,-0.13,-0.04,0.12,0.01,-0.02,0.04,
0.197,-0.12,-0.04,0.06,0.01,-0.02,0.04,
0.199,-0.12,-0.04,0.06,0.00,-0.02,0.04,
0.203,-0.12,-0.04,0.06,0.00,-0.02,0.04,
0.204,-0.10,-0.02,0.05,0.00,-0.02,0.04,
0.205,-0.10,-0.02,0.05,0.00,-0.02,0.04,
0.207,-0.10,-0.02,0.05,-0.00,-0.01,0.04,
0.207,-0.03,-0.08,0.10,-0.00,-0.01,0.04,
0.213,-0.03,-0.08,0.10,-0.00,-0.01,0.04,
0.213,-0.03,-0.08,0.10,0.00,0.00,0.04,
0.213,0.04,-0.13,0.18,0.00,0.00,0.04,
0.214,0.04,-0.13,0.18,0.00,0.01,0.03,
0.219,0.12,-0.15,0.20,0.00,0.01,0.03,
0.219,0.12,-0.15,0.20,0.00,0.01,0.03,
0.22,0.12,-0.15,0.20,-0.00,0.01,0.02,
0.222,0.12,-0.15,0.20,-0.00,0.02,0.02,
0.223,0.03,-0.15,0.22,-0.00,0.02,0.02,
0.224,0.03,-0.15,0.22,-0.00,0.02,0.01,
0.229,0.03,-0.15,0.22,-0.00,0.03,0.01,
0.23,0.00,-0.10,0.29,-0.00,0.03,0.01,
0.23,0.00,-0.10,0.29,-0.01,0.03,0.01,
0.232,0.04,-0.06,0.33,-0.01,0.03,0.01,
0.232,0.04,-0.06,0.33,-0.01,0.03,0.01,
0.234,0.04,-0.06,0.33,-0.00,0.02,0.01,
0.237,0.04,-0.06,0.33,0.00,0.02,0.00,
0.237,0.09,-0.05,0.31,0.00,0.02,0.00,
0.239,0.09,-0.05,0.31,0.00,0.02,0.00,
0.242,0.09,-0.05,0.31,0.01,0.02,-0.00,
0.242,0.08,-0.06,0.25,0.01,0.02,-0.00,
0.245,0.08,-0.06,0.25,0.01,0.01,-0.01,
0.247,0.08,-0.06,0.25,0.01,0.01,-0.01,
0.247,-0.01,-0.08,0.19,0.01,0.01,-0.01,
0.249,-0.01,-0.08,0.19,0.01,0.01,-0.01,
0.252,-0.01,-0.08,0.19,0.01,0.01,-0.01,
0.252,-0.11,-0.06,0.15,0.01,0.01,-0.01,
0.254,-0.11,-0.06,0.15,0.01,0.00,-0.01,
0.257,-0.11,-0.06,0.15,0.01,0.01,-0.01,
0.257,-0.15,-0.05,0.15,0.01,0.01,-0.01,
0.259,-0.15,-0.05,0.15,0.01,0.01,-0.01,
0.262,-0.20,-0.02,0.23,0.01,0.01,-0.01,
0.263,-0.20,-0.02,0.23,0.01,0.01,-0.01,
0.264,-0.20,-0.02,0.23,0.01,0.01,-0.00,
0.267,-0.20,-0.02,0.23,0.01,0.01,-0.00,
0.267,-0.17,-0.07,0.35,0.01,0.01,-0.00,
0.269,-0.17,-0.07,0.35,0.01,0.01,-0.00,
0.272,-0.17,-0.07,0.35,0.01,0.02,-0.00,
0.272,-0.08,-0.12,0.28,0.01,0.02,-0.00,
0.274,-0.08,-0.12,0.28,0.01,0.02,-0.01,
0.279,-0.06,-0.11,0.18,0.01,0.02,-0.01,
0.28,-0.06,-0.11,0.18,0.01,0.02,-0.01,
0.28,-0.06,-0.11,0.18,0.01,0.02,-0.01,
0.283,-0.10,-0.08,0.17,0.01,0.02,-0.01,
0.284,-0.10,-0.08,0.17,0.01,0.02,-0.01,
0.284,-0.10,-0.08,0.17,0.01,0.02,-0.01,
0.287,-0.10,-0.08,0.17,0.01,0.03,-0.01,
0.287,-0.20,-0.04,0.22,0.01,0.03,-0.01,
0.289,-0.20,-0.04,0.22,0.01,0.03,-0.00,
0.291,-0.20,-0.04,0.22,0.01,0.03,-0.00,
0.292,-0.32,-0.05,0.25,0.01,0.03,-0.00,
0.294,-0.32,-0.05,0.25,0.01,0.03,0.00,
0.297,-0.31,-0.07,0.31,0.01,0.03,0.00,
0.297,-0.31,-0.07,0.31,0.01,0.02,0.00,
0.299,-0.31,-0.07,0.31,0.02,0.02,0.01,
0.301,-0.31,-0.07,0.31,0.02,0.02,0.01,
0.302,-0.28,-0.10,0.35,0.02,0.02,0.01,
0.319,-0.28,-0.10,0.35,0.02,0.02,0.01,
0.319,-0.28,-0.10,0.35,0.02,0.03,0.01,
0.32,-0.23,-0.12,0.35,0.02,0.03,0.01,
0.32,-0.23,-0.12,0.35,0.02,0.03,0.01,
0.32,-0.20,-0.13,0.34,0.02,0.03,0.01,
0.32,-0.20,-0.13,0.34,0.03,0.03,0.01,
0.32,-0.20,-0.13,0.34,0.03,0.02,0.01,
0.321,-0.17,-0.12,0.30,0.03,0.02,0.01,
0.321,-0.17,-0.12,0.30,0.03,0.03,0.01,
0.321,-0.17,-0.12,0.30,0.03,0.03,0.01,
0.321,-0.17,-0.12,0.30,0.03,0.03,0.01,
0.321,-0.14,-0.10,0.24,0.03,0.03,0.01,
0.326,-0.14,-0.10,0.24,0.03,0.03,0.01,
0.326,-0.14,-0.10,0.24,0.04,0.03,0.02,
0.326,-0.15,-0.11,0.19,0.04,0.03,0.02,
0.329,-0.15,-0.11,0.19,0.03,0.02,0.02,
0.336,-0.15,-0.11,0.19,0.03,0.02,0.02,
0.337,-0.19,-0.10,0.09,0.03,0.02,0.02,
0.337,-0.19,-0.10,0.09,0.03,0.01,0.02,
0.337,-0.19,-0.10,0.09,0.03,0.01,0.02,
0.337,-0.21,-0.11,0.06,0.03,0.01,0.02,
0.34,-0.21,-0.11,0.06,0.03,0.01,0.02,
0.341,-0.21,-0.11,0.06,0.02,0.00,0.02,
0.341,-0.17,-0.11,0.05,0.02,0.00,0.02,
0.345,-0.17,-0.11,0.05,0.02,-0.00,0.02,
0.348,-0.16,-0.08,0.09,0.02,-0.00,0.02,
0.348,-0.16,-0.08,0.09,0.02,-0.01,0.02,
0.349,-0.16,-0.08,0.09,0.01,-0.01,0.02,
0.352,-0.11,-0.09,0.19,0.01,-0.01,0.02,
0.352,-0.11,-0.09,0.19,0.01,-0.01,0.02,
0.353,-0.11,-0.09,0.19,0.01,-0.02,0.02,
0.356,-0.06,-0.08,0.24,0.01,-0.02,0.02,
0.356,-0.06,-0.08,0.24,0.01,-0.03,0.02,
0.358,-0.06,-0.08,0.24,0.01,-0.03,0.02,
0.361,-0.06,-0.08,0.24,0.01,-0.04,0.02,
0.361,-0.06,-0.07,0.20,0.01,-0.04,0.02,
0.363,-0.06,-0.07,0.20,0.01,-0.05,0.02,
0.366,-0.06,-0.07,0.20,0.01,-0.05,0.01,
0.366,-0.10,-0.08,0.12,0.01,-0.05,0.01,
0.368,-0.10,-0.08,0.12,0.01,-0.06,0.01,
0.371,-0.10,-0.08,0.12,0.01,-0.06,0.01,
0.371,-0.11,-0.08,0.11,0.01,-0.06,0.01,
0.374,-0.11,-0.08,0.11,0.01,-0.06,0.01,
0.376,-0.11,-0.08,0.11,0.01,-0.05,0.01,
0.377,-0.07,-0.07,0.11,0.01,-0.05,0.01,
0.38,-0.07,-0.07,0.11,0.00,-0.05,0.01,
0.381,-0.07,-0.07,0.11,0.00,-0.04,0.01,
0.381,-0.05,-0.09,0.10,0.00,-0.04,0.01,
0.383,-0.05,-0.09,0.10,0.00,-0.04,0.00,
0.386,-0.05,-0.09,0.10,0.00,-0.03,0.00,
0.387,-0.05,-0.13,0.10,0.00,-0.03,0.00,
0.388,-0.05,-0.13,0.10,-0.00,-0.02,0.00,
0.39,-0.05,-0.13,0.10,-0.00,-0.02,0.00,
0.391,-0.09,-0.16,0.20,-0.00,-0.02,0.00,
0.393,-0.09,-0.16,0.20,-0.00,-0.01,0.00,
0.396,-0.09,-0.16,0.20,0.00,-0.01,0.00,
0.396,-0.15,-0.10,0.30,0.00,-0.01,0.00,
0.398,-0.15,-0.10,0.30,0.00,0.00,0.00,
0.4,-0.15,-0.10,0.30,0.01,0.01,0.01,
0.401,-0.40,0.04,0.29,0.01,0.01,0.01,
0.403,-0.40,0.04,0.29,0.01,0.02,0.02,
0.405,-0.40,0.04,0.29,0.01,0.02,0.02,
0.406,-0.36,-0.00,0.33,0.01,0.02,0.02,
0.409,-0.36,-0.00,0.33,0.01,0.03,0.02,
0.413,-0.36,-0.00,0.33,0.01,0.03,0.02,
0.414,-0.21,-0.16,0.30,0.01,0.03,0.02,
0.414,-0.21,-0.16,0.30,0.01,0.03,0.02,
0.415,-0.21,-0.16,0.30,0.01,0.03,0.02,
0.416,-0.26,-0.19,0.29,0.01,0.03,0.02,
0.418,-0.26,-0.19,0.29,0.02,0.03,0.02,
0.42,-0.26,-0.19,0.29,0.02,0.03,0.02,
0.421,-0.08,-0.24,0.31,0.02,0.03,0.02,
0.423,-0.08,-0.24,0.31,0.02,0.04,0.02,
0.425,-0.08,-0.24,0.31,0.02,0.04,0.02,
0.425,-0.23,-0.09,0.40,0.02,0.04,0.02,
0.428,-0.23,-0.09,0.40,0.02,0.04,0.02,
0.43,-0.23,-0.09,0.40,0.02,0.04,0.02,
0.43,-0.21,-0.03,0.33,0.02,0.04,0.02,
0.432,-0.21,-0.03,0.33,0.03,0.04,0.03,
0.436,-0.21,-0.03,0.33,0.03,0.04,0.03,
0.436,-0.21,-0.01,0.33,0.03,0.04,0.03,
0.438,-0.21,-0.01,0.33,0.03,0.04,0.03,
0.441,-0.21,-0.01,0.33,0.03,0.04,0.03,
0.441,-0.25,-0.00,0.30,0.03,0.04,0.03,
0.442,-0.25,-0.00,0.30,0.03,0.04,0.04,
0.445,-0.16,0.01,0.27,0.03,0.04,0.04,
0.446,-0.16,0.01,0.27,0.03,0.03,0.04,
0.447,-0.16,0.01,0.27,0.04,0.03,0.04,
0.45,-0.16,0.01,0.27,0.03,0.02,0.04,
0.45,-0.15,0.07,0.12,0.03,0.02,0.04,
0.452,-0.15,0.07,0.12,0.04,0.03,0.05,
0.455,-0.15,0.07,0.12,0.04,0.03,0.05,
0.456,0.13,0.21,-0.08,0.04,0.03,0.05,
0.457,0.13,0.21,-0.08,0.03,0.03,0.04,
0.461,0.40,0.30,-0.19,0.03,0.03,0.04,
0.463,0.40,0.30,-0.19,0.03,0.02,0.03,
0.464,0.40,0.30,-0.19,0.02,0.01,0.03,
0.465,0.40,0.30,-0.19,0.02,0.02,0.02,
0.465,0.25,-0.05,-0.02,0.02,0.02,0.02,
0.467,0.25,-0.05,-0.02,0.02,0.02,0.01,
0.49,0.25,-0.05,-0.02,0.01,0.02,0.00,
0.49,0.13,-0.50,0.11,0.01,0.02,0.00,
0.491,0.13,-0.50,0.11,0.01,0.01,-0.01,
0.491,0.13,-0.50,0.11,0.01,0.00,-0.01,
0.491,0.01,-0.50,0.09,0.01,0.00,-0.01,
0.492,0.01,-0.50,0.09,0.01,0.01,-0.01,
0.492,0.01,-0.50,0.09,0.00,0.01,-0.02,
0.493,-0.02,-0.20,-0.10,0.00,0.01,-0.02,
0.493,-0.02,-0.20,-0.10,-0.00,0.02,-0.02,
0.494,0.02,0.15,-0.12,-0.00,0.02,-0.02,
0.495,0.02,0.15,-0.12,-0.01,0.02,-0.02,
0.495,0.02,0.15,-0.12,-0.01,0.02,-0.02,
0.496,0.02,0.15,-0.12,-0.02,0.01,-0.02,
0.496,-0.04,0.16,-0.08,-0.02,0.01,-0.02,
0.496,-0.04,0.16,-0.08,-0.02,0.01,-0.02,
0.497,-0.04,0.16,-0.08,-0.02,0.02,-0.02,
0.497,0.00,-0.04,0.00,-0.02,0.02,-0.02,
0.498,0.00,-0.04,0.00,-0.02,0.03,-0.03,
0.501,0.00,-0.04,0.00,-0.03,0.04,-0.03,
0.501,0.29,-0.19,0.01,-0.03,0.04,-0.03,
0.504,0.29,-0.19,0.01,-0.03,0.06,-0.05,
0.505,0.29,-0.19,0.01,-0.03,0.07,-0.05,
0.505,0.38,-0.23,-0.04,-0.03,0.07,-0.05,
0.507,0.38,-0.23,-0.04,-0.03,0.09,-0.06,
0.509,0.38,-0.23,-0.04,-0.02,0.10,-0.06,
0.51,0.22,-0.12,0.05,-0.02,0.10,-0.06,
0.513,0.22,-0.12,0.05,-0.02,0.12,-0.06,
0.515,0.22,-0.12,0.05,-0.01,0.13,-0.06,
0.515,-0.03,0.05,0.08,-0.01,0.13,-0.06,
0.517,-0.03,0.05,0.08,-0.01,0.14,-0.06,
0.519,-0.03,0.05,0.08,-0.01,0.14,-0.05,
0.52,-0.26,0.16,0.13,-0.01,0.14,-0.05,
0.522,-0.26,0.16,0.13,-0.01,0.15,-0.05,
0.524,-0.26,0.16,0.13,-0.00,0.16,-0.04,
0.524,-0.48,0.16,0.23,-0.00,0.16,-0.04,
0.529,-0.48,0.16,0.23,0.00,0.15,-0.04,
0.53,-0.48,0.16,0.23,0.00,0.14,-0.03,
0.53,-0.56,0.11,0.33,0.00,0.14,-0.03,
0.534,-0.56,0.11,0.33,0.01,0.12,-0.02,
0.535,-0.56,0.11,0.33,0.01,0.10,-0.01,
0.535,-0.61,0.08,0.36,0.01,0.10,-0.01,
0.537,-0.61,0.08,0.36,0.01,0.08,-0.01,
0.54,-0.61,0.08,0.36,0.01,0.06,-0.01,
0.54,-0.53,0.07,0.38,0.01,0.06,-0.01,
0.542,-0.53,0.07,0.38,0.01,0.04,-0.01,
0.548,-0.50,-0.09,0.34,0.01,0.04,-0.01,
0.548,-0.50,-0.09,0.34,0.01,0.01,0.00,
0.549,-0.50,-0.09,0.34,0.01,-0.00,0.01,
0.549,-0.50,-0.09,0.34,0.01,-0.02,0.02,
0.549,-0.42,-0.11,0.16,0.01,-0.02,0.02,
0.553,-0.42,-0.11,0.16,0.01,-0.02,0.02,
0.554,-0.42,-0.11,0.16,0.00,-0.02,0.03,
0.554,-0.24,-0.05,0.03,0.00,-0.02,0.03,
0.556,-0.24,-0.05,0.03,-0.00,-0.01,0.03,
0.559,-0.06,-0.16,0.11,-0.00,-0.01,0.03,
0.559,-0.06,-0.16,0.11,-0.01,0.00,0.03,
0.561,-0.06,-0.16,0.11,-0.01,0.01,0.02,
0.565,-0.06,-0.16,0.11,-0.01,0.01,0.02,
0.566,0.11,-0.27,0.39,-0.01,0.01,0.02,
0.566,0.11,-0.27,0.39,-0.01,-0.00,0.01,
0.569,0.11,-0.27,0.39,-0.01,-0.02,0.00,
0.569,0.06,-0.42,0.60,-0.01,-0.02,0.00,
0.571,0.06,-0.42,0.60,-0.01,-0.03,0.01,
0.574,0.06,-0.42,0.60,0.00,-0.01,0.03,
0.574,-0.39,0.03,0.46,0.00,-0.01,0.03,
0.576,-0.39,0.03,0.46,0.01,0.00,0.03,
0.579,0.14,0.01,1.24,0.01,0.00,0.03,
0.58,0.14,0.01,1.24,0.03,-0.00,0.01,
0.582,0.14,0.01,1.24,0.06,-0.00,-0.00,
0.584,0.14,0.01,1.24,0.09,0.01,-0.01,
0.584,-0.30,0.32,1.56,0.09,0.01,-0.01,
0.586,-0.30,0.32,1.56,0.12,0.04,0.01,
0.589,-0.30,0.32,1.56,0.13,0.08,0.03,
0.589,-0.88,0.16,0.30,0.13,0.08,0.03,
0.591,-0.88,0.16,0.30,0.12,0.09,0.04,
0.594,-0.88,0.16,0.30,0.09,0.06,0.04,
0.594,0.16,-0.01,-0.87,0.09,0.06,0.04,
0.597,0.16,-0.01,-0.87,0.06,0.00,0.03,
0.599,0.16,-0.01,-0.87,0.04,-0.05,0.02,
0.599,0.32,0.15,-0.32,0.04,-0.05,0.02,
0.601,0.32,0.15,-0.32,0.04,-0.08,0.02,
0.604,0.32,0.15,-0.32,0.05,-0.07,0.02,
0.604,-0.40,0.13,0.60,0.05,-0.07,0.02,
0.606,-0.40,0.13,0.60,0.07,-0.06,0.03,
0.609,-0.94,0.01,0.91,0.07,-0.06,0.03,
0.609,-0.94,0.01,0.91,0.09,-0.05,0.04,
0.612,-0.94,0.01,0.91,0.10,-0.05,0.06,
0.614,-1.03,-0.29,0.63,0.10,-0.05,0.06,
0.615,-1.03,-0.29,0.63,0.11,-0.07,0.08,
0.616,-1.03,-0.29,0.63,0.12,-0.09,0.10,
0.619,-1.03,-0.29,0.63,0.11,-0.11,0.09,
0.619,-0.01,-0.48,-0.01,0.11,-0.11,0.09,
0.622,-0.01,-0.48,-0.01,0.09,-0.12,0.07,
0.624,-0.01,-0.48,-0.01,0.07,-0.13,0.04,
0.624,0.77,-0.23,-0.55,0.07,-0.13,0.04,
0.626,0.77,-0.23,-0.55,0.05,-0.14,0.00,
0.634,0.83,0.32,-0.61,0.05,-0.14,0.00,
0.634,0.83,0.32,-0.61,0.04,-0.13,-0.02,
0.635,0.83,0.32,-0.61,0.04,-0.10,-0.03,
0.635,0.83,0.32,-0.61,0.04,-0.06,-0.03,
0.666,0.48,0.70,-0.29,0.04,-0.06,-0.03,
0.667,0.48,0.70,-0.29,0.05,-0.02,-0.01,
0.667,0.03,0.60,0.05,0.05,-0.02,-0.01,
0.668,0.03,0.60,0.05,0.05,0.01,0.00,
0.669,0.03,0.60,0.05,0.05,0.04,0.01,
0.669,-0.29,0.39,0.14,0.05,0.04,0.01,
0.67,-0.29,0.39,0.14,0.05,0.05,0.02,
0.67,-0.29,0.39,0.14,0.05,0.03,0.02,
0.673,-0.42,0.18,0.13,0.05,0.03,0.02,
0.674,-0.42,0.18,0.13,0.04,0.00,0.01,
0.675,-0.42,0.18,0.13,0.04,-0.02,0.01,
0.675,-0.42,0.18,0.13,0.03,-0.04,0.01,
0.675,-0.48,-0.20,0.06,0.03,-0.04,0.01,
0.676,-0.30,-0.32,0.14,0.03,-0.04,0.01,
0.676,-0.30,-0.32,0.14,0.02,-0.04,0.00,
0.676,-0.30,-0.32,0.14,0.02,-0.04,0.00,
0.677,-0.30,-0.32,0.14,0.02,-0.02,0.01,
0.677,-0.05,-0.33,0.36,0.02,-0.02,0.01,
0.678,-0.05,-0.33,0.36,0.02,0.00,0.02,
0.678,-0.05,-0.33,0.36,0.02,0.01,0.02,
0.678,-0.05,-0.33,0.36,0.03,0.01,0.01,
0.679,0.38,-0.28,0.61,0.03,0.01,0.01,
0.679,0.38,-0.28,0.61,0.04,0.01,0.00,
0.68,0.43,0.09,0.27,0.04,0.01,0.00,
0.68,0.43,0.09,0.27,0.05,0.03,-0.02,
0.68,0.43,0.09,0.27,0.05,0.04,-0.04,
0.685,0.02,0.84,-0.21,0.05,0.04,-0.04,
0.686,0.02,0.84,-0.21,0.06,0.09,-0.05,
0.686,0.02,0.84,-0.21,0.06,0.12,-0.05,
0.686,-0.46,1.17,0.06,0.06,0.12,-0.05,
0.686,-0.46,1.17,0.06,0.06,0.13,-0.04,
0.686,-0.46,1.17,0.06,0.06,0.11,-0.02,
0.688,-0.46,1.17,0.06,0.06,0.08,-0.02,
0.688,-0.12,0.74,0.41,0.06,0.08,-0.02,
0.69,-0.12,0.74,0.41,0.07,0.07,-0.02,
0.693,-0.12,0.74,0.41,0.08,0.07,-0.03,
0.693,0.57,-0.10,0.15,0.08,0.07,-0.03,
0.696,0.57,-0.10,0.15,0.09,0.09,-0.04,
0.698,0.66,-0.50,0.11,0.09,0.09,-0.04,
0.698,0.66,-0.50,0.11,0.10,0.12,-0.04,
0.701,0.66,-0.50,0.11,0.11,0.18,-0.03,
0.704,0.66,-0.50,0.11,0.12,0.25,-0.03,
0.704,0.30,-0.99,-0.23,0.12,0.25,-0.03,
0.706,0.30,-0.99,-0.23,0.12,0.31,-0.03,
0.708,0.30,-0.99,-0.23,0.13,0.34,-0.06,
0.709,1.01,-1.21,0.45,0.13,0.34,-0.06,
0.71,1.01,-1.21,0.45,0.14,0.37,-0.07,
0.716,1.01,-1.21,0.45,0.17,0.39,-0.07,
0.716,0.25,-0.90,1.12,0.17,0.39,-0.07,
0.717,0.25,-0.90,1.12,0.18,0.41,-0.08,
0.721,0.28,0.01,-0.26,0.18,0.41,-0.08,
0.721,0.28,0.01,-0.26,0.17,0.42,-0.10,
0.721,0.28,0.01,-0.26,0.16,0.42,-0.13,
0.723,0.28,0.01,-0.26,0.14,0.38,-0.14,
0.723,-0.01,0.64,-0.66,0.14,0.38,-0.14,
0.725,-0.01,0.64,-0.66,0.12,0.32,-0.14,
0.73,-0.01,0.64,-0.66,0.11,0.25,-0.12,
0.731,-0.84,0.91,0.08,0.11,0.25,-0.12,
0.731,-0.84,0.91,0.08,0.10,0.20,-0.10,
0.733,-0.96,0.81,0.58,0.10,0.20,-0.10,
0.733,-0.96,0.81,0.58,0.10,0.19,-0.08,
0.735,-0.96,0.81,0.58,0.10,0.20,-0.07,
0.738,-0.96,0.81,0.58,0.11,0.20,-0.07,
0.738,-0.47,0.26,0.41,0.11,0.20,-0.07,
0.74,-0.47,0.26,0.41,0.12,0.21,-0.07,
0.743,-0.47,0.26,0.41,0.12,0.21,-0.07,
0.743,-0.05,-0.22,-0.01,0.12,0.21,-0.07,
0.745,-0.05,-0.22,-0.01,0.11,0.23,-0.08,
0.749,-0.05,-0.22,-0.01,0.08,0.24,-0.09,
0.75,0.37,-0.70,-0.27,0.08,0.24,-0.09,
0.752,0.37,-0.70,-0.27,0.07,0.26,-0.10,
0.754,0.37,-0.70,-0.27,0.07,0.27,-0.10,
0.754,0.33,-0.99,0.25,0.07,0.27,-0.10,
0.756,0.33,-0.99,0.25,0.07,0.28,-0.10,
0.757,0.03,-1.13,0.82,0.07,0.28,-0.10,
0.758,0.03,-1.13,0.82,0.09,0.29,-0.10,
0.765,0.03,-1.13,0.82,0.10,0.29,-0.09,
0.765,-0.01,-1.15,0.56,0.10,0.29,-0.09,
0.765,-0.01,-1.15,0.56,0.10,0.30,-0.09,
0.765,-0.01,-1.15,0.56,0.09,0.31,-0.09,
0.768,-0.01,-1.15,0.56,0.08,0.31,-0.10,
0.768,-0.25,-0.92,0.60,0.08,0.31,-0.10,
0.77,-0.25,-0.92,0.60,0.09,0.29,-0.11,
0.772,-0.25,-0.92,0.60,0.09,0.26,-0.13,
0.772,0.15,-0.50,0.56,0.09,0.26,-0.13,
0.775,0.15,-0.50,0.56,0.08,0.22,-0.14,
0.779,0.15,-0.50,0.56,0.08,0.19,-0.15,
0.779,0.07,-0.21,0.75,0.08,0.19,-0.15,
0.78,0.07,-0.21,0.75,0.09,0.15,-0.16,
0.782,0.07,-0.21,0.75,0.10,0.12,-0.16,
0.783,-0.27,-0.33,0.54,0.10,0.12,-0.16,
0.785,-0.27,-0.33,0.54,0.09,0.10,-0.16,
0.788,-0.16,-0.65,-0.14,0.09,0.10,-0.16,
0.789,-0.16,-0.65,-0.14,0.08,0.08,-0.16,
0.789,-0.16,-0.65,-0.14,0.06,0.07,-0.17,
0.797,-0.46,0.21,0.66,0.06,0.07,-0.17,
0.797,-0.46,0.21,0.66,0.07,0.05,-0.17,
0.797,-0.46,0.21,0.66,0.11,0.03,-0.16,
0.797,-1.12,0.57,0.70,0.11,0.03,-0.16,
0.797,-1.12,0.57,0.70,0.12,0.01,-0.13,
0.812,-1.12,0.57,0.70,0.11,-0.01,-0.10,
0.812,-1.25,-0.62,-0.55,0.11,-0.01,-0.10,
0.812,-1.25,-0.62,-0.55,0.09,-0.03,-0.08,
0.813,-1.25,-0.62,-0.55,0.06,-0.05,-0.07,
0.813,-0.85,-1.43,-1.94,0.06,-0.05,-0.07,
0.813,-0.85,-1.43,-1.94,0.00,-0.07,-0.07,
0.813,-0.85,-1.43,-1.94,-0.08,-0.08,-0.07,
0.814,-0.06,-0.72,-1.87,-0.08,-0.08,-0.07,
0.814,-0.06,-0.72,-1.87,-0.14,-0.07,-0.08,
0.819,-0.06,-0.72,-1.87,-0.14,-0.04,-0.09,
0.82,-0.06,-0.72,-1.87,-0.11,0.03,-0.11,
0.82,0.95,0.97,0.67,-0.11,0.03,-0.11,
0.82,0.95,0.97,0.67,-0.05,0.09,-0.12,
0.822,0.95,0.97,0.67,0.01,0.14,-0.11,
0.823,0.92,1.59,1.94,0.01,0.14,-0.11,
0.827,0.76,0.82,1.30,0.01,0.14,-0.11,
0.83,0.76,0.82,1.30,0.06,0.15,-0.10,
0.83,0.76,0.82,1.30,0.09,0.15,-0.10,
0.831,0.76,0.82,1.30,0.11,0.13,-0.12,
0.832,0.76,0.82,1.30,0.11,0.11,-0.13,
0.832,0.25,-0.16,0.13,0.11,0.11,-0.13,
0.834,0.25,-0.16,0.13,0.10,0.10,-0.15,
0.837,0.25,-0.16,0.13,0.09,0.10,-0.16,
0.839,-0.16,-0.73,0.08,0.09,0.10,-0.16,
0.839,-0.16,-0.73,0.08,0.08,0.10,-0.16,
0.842,-0.70,-0.93,-0.07,0.08,0.10,-0.16,
0.842,-0.70,-0.93,-0.07,0.07,0.09,-0.16,
0.846,-0.70,-0.93,-0.07,0.07,0.07,-0.15,
0.849,-0.97,-0.54,-0.02,0.07,0.07,-0.15,
0.849,-0.97,-0.54,-0.02,0.06,0.05,-0.13,
0.85,-0.97,-0.54,-0.02,0.05,0.04,-0.11,
0.852,-0.96,-0.19,-0.05,0.05,0.04,-0.11,
0.852,-0.96,-0.19,-0.05,0.04,0.03,-0.10,
0.854,-0.96,-0.19,-0.05,0.02,0.02,-0.09,
0.857,-0.96,-0.19,-0.05,-0.00,-0.02,-0.08,
0.857,-0.48,-1.38,-0.02,-0.00,-0.02,-0.08,
0.859,-0.48,-1.38,-0.02,-0.01,-0.06,-0.07,
0.862,-0.27,-1.15,0.42,-0.01,-0.06,-0.07,
0.864,-0.27,-1.15,0.42,-0.00,-0.06,-0.07,
0.864,-0.27,-1.15,0.42,0.01,-0.02,-0.10,
0.867,0.27,0.41,0.64,0.01,-0.02,-0.10,
0.867,0.27,0.41,0.64,0.02,0.04,-0.14,
0.869,0.27,0.41,0.64,0.03,0.10,-0.16,
0.871,0.27,0.41,0.64,0.04,0.13,-0.16,
0.872,0.31,1.77,0.57,0.04,0.13,-0.16,
0.874,0.31,1.77,0.57,0.03,0.13,-0.12,
0.876,0.31,1.77,0.57,0.01,0.10,-0.08,
0.876,0.03,1.74,0.20,0.01,0.10,-0.08,
0.88,0.03,1.74,0.20,0.00,0.02,-0.04,
0.885,-0.32,0.53,-0.06,0.00,0.02,-0.04,
0.885,-0.32,0.53,-0.06,0.01,-0.04,-0.04,
0.885,-0.32,0.53,-0.06,0.01,-0.07,-0.06,
0.887,-0.32,0.53,-0.06,0.03,-0.11,-0.10,
0.887,-0.30,-0.53,0.56,0.03,-0.11,-0.10,
0.888,-0.30,-0.53,0.56,0.04,-0.14,-0.14,
0.891,-0.30,-0.53,0.56,0.06,-0.18,-0.15,
0.891,-0.37,-0.61,1.37,0.06,-0.18,-0.15,
0.894,-0.37,-0.61,1.37,0.08,-0.23,-0.15,
0.897,-0.37,-0.61,1.37,0.10,-0.27,-0.14,
0.897,-0.48,-0.47,1.14,0.10,-0.27,-0.14,
0.899,-0.48,-0.47,1.14,0.11,-0.30,-0.11,
0.901,-0.48,-0.47,1.14,0.12,-0.32,-0.09,
0.901,-0.74,-0.13,0.67,0.12,-0.32,-0.09,
0.903,-0.74,-0.13,0.67,0.12,-0.34,-0.07,
0.906,-0.97,-0.39,-0.14,0.12,-0.34,-0.07,
0.906,-0.97,-0.39,-0.14,0.10,-0.35,-0.06,
0.908,-0.97,-0.39,-0.14,0.09,-0.36,-0.03,
0.914,-0.97,-0.39,-0.14,0.09,-0.35,-0.02,
0.917,-1.13,-0.45,0.23,0.09,-0.35,-0.02,
0.917,-1.13,-0.45,0.23,0.10,-0.35,-0.03,
0.917,-0.79,0.25,0.20,0.10,-0.35,-0.03,
0.918,-0.79,0.25,0.20,0.09,-0.32,-0.04,
0.919,-0.79,0.25,0.20,0.09,-0.32,-0.03,
0.922,-0.86,0.78,0.06,0.09,-0.32,-0.03,
0.922,-0.86,0.78,0.06,0.08,-0.34,-0.00,
0.924,-0.86,0.78,0.06,0.08,-0.35,0.03,
0.926,-0.47,0.56,0.11,0.08,-0.35,0.03,
0.926,-0.47,0.56,0.11,0.08,-0.35,0.05,
0.933,-0.47,0.56,0.11,0.08,-0.33,0.07,
0.934,-0.47,0.56,0.11,0.07,-0.32,0.09,
0.934,-0.32,0.10,-0.07,0.07,-0.32,0.09,
0.934,-0.32,0.10,-0.07,0.06,-0.31,0.10,
0.936,-0.80,-0.40,-0.46,0.06,-0.31,0.10,
0.936,-0.80,-0.40,-0.46,0.04,-0.31,0.11,
0.938,-0.80,-0.40,-0.46,0.03,-0.31,0.12,
0.941,-0.80,-0.40,-0.46,0.02,-0.32,0.13,
0.941,-0.68,-0.71,-0.14,0.02,-0.32,0.13,
0.943,-0.68,-0.71,-0.14,0.00,-0.33,0.13,
0.946,-0.68,-0.71,-0.14,0.00,-0.34,0.12,
0.946,-0.40,-0.48,0.41,0.00,-0.34,0.12,
0.95,-0.40,-0.48,0.41,0.01,-0.36,0.12,
0.951,-0.40,-0.48,0.41,0.02,-0.37,0.12,
0.951,-0.52,-0.00,0.89,0.02,-0.37,0.12,
0.953,-0.52,-0.00,0.89,0.04,-0.40,0.13,
0.956,-0.52,-0.00,0.89,0.06,-0.43,0.12,
0.956,-0.02,0.18,1.20,0.06,-0.43,0.12,
0.958,-0.02,0.18,1.20,0.08,-0.46,0.12,
0.961,-0.02,0.18,1.20,0.09,-0.47,0.12,
0.961,-0.15,0.15,0.92,0.09,-0.47,0.12,
0.964,-0.15,0.15,0.92,0.11,-0.47,0.12,
0.992,-0.15,0.15,0.92,0.11,-0.45,0.13,
0.993,-0.47,-0.03,0.30,0.11,-0.45,0.13,
0.993,-0.47,-0.03,0.30,0.12,-0.43,0.14,
0.994,-0.47,-0.03,0.30,0.12,-0.41,0.15,
0.994,-0.41,-0.30,0.12,0.12,-0.41,0.15,
0.995,-0.41,-0.30,0.12,0.12,-0.39,0.15,
0.995,-0.41,-0.30,0.12,0.12,-0.38,0.15,
0.995,-0.44,-0.18,0.21,0.12,-0.38,0.15,
0.996,-0.44,-0.18,0.21,0.12,-0.35,0.16,
0.996,-0.44,-0.18,0.21,0.12,-0.34,0.16,
0.997,-0.45,-0.02,0.28,0.12,-0.34,0.16,
0.997,-0.45,-0.02,0.28,0.12,-0.32,0.17,
0.997,-0.45,-0.02,0.28,0.12,-0.30,0.18,
0.998,-0.63,-0.16,0.12,0.12,-0.30,0.18,
0.998,-0.63,-0.16,0.12,0.11,-0.29,0.20,
0.998,-0.63,-0.16,0.12,0.11,-0.28,0.20,
0.999,-0.66,-0.36,-0.19,0.11,-0.28,0.20,
0.999,-0.66,-0.36,-0.19,0.09,-0.26,0.21,
0.999,-0.66,-0.36,-0.19,0.08,-0.24,0.21,
0.999,-0.53,-0.48,-0.30,0.08,-0.24,0.21,
1.0,-0.53,-0.48,-0.30,0.07,-0.22,0.21,
1.001,-0.53,-0.48,-0.30,0.06,-0.20,0.21,
1.003,-0.49,-0.37,-0.16,0.06,-0.20,0.21,
1.005,-0.49,-0.37,-0.16,0.05,-0.18,0.21,
1.005,-0.49,-0.37,-0.16,0.05,-0.18,0.21,
1.005,-0.25,-0.02,0.04,0.05,-0.18,0.21,
1.007,-0.25,-0.02,0.04,0.05,-0.17,0.21,
1.01,-0.17,0.56,0.37,0.05,-0.17,0.21,
1.01,-0.17,0.56,0.37,0.05,-0.17,0.22,
1.013,-0.17,0.56,0.37,0.05,-0.18,0.23,
1.015,-0.17,0.56,0.37,0.06,-0.19,0.24,
1.015,-0.24,0.69,0.24,0.06,-0.19,0.24,
1.017,-0.24,0.69,0.24,0.06,-0.20,0.25,
1.02,-0.24,0.69,0.24,0.07,-0.21,0.26,
1.02,-0.31,0.53,0.02,0.07,-0.21,0.26,
1.022,-0.31,0.53,0.02,0.07,-0.20,0.27,
1.025,-0.31,0.53,0.02,0.07,-0.20,0.27,
1.025,-0.32,0.19,-0.30,0.07,-0.20,0.27,
1.027,-0.32,0.19,-0.30,0.06,-0.20,0.28,
1.04,-0.28,-0.13,-0.72,0.06,-0.20,0.28,
1.041,-0.28,-0.13,-0.72,0.06,-0.20,0.28,
1.041,-0.28,-0.13,-0.72,0.04,-0.20,0.28,
1.042,-0.28,-0.13,-0.72,0.02,-0.20,0.28,
1.042,-0.30,-0.23,-1.15,0.02,-0.20,0.28,
1.042,-0.30,-0.23,-1.15,0.00,-0.20,0.28,
1.042,-0.30,-0.23,-1.15,-0.01,-0.21,0.28,
1.042,-0.31,-0.08,-0.92,-0.01,-0.21,0.28,
1.042,-0.31,-0.08,-0.92,-0.02,-0.22,0.28,
1.055,-0.31,-0.08,-0.92,-0.03,-0.22,0.28,
1.055,-0.28,0.24,-0.67,-0.03,-0.22,0.28,
1.055,-0.28,0.24,-0.67,-0.05,-0.22,0.29,
1.056,-0.28,0.24,-0.67,-0.06,-0.22,0.30,
1.056,-0.31,0.29,-0.50,-0.06,-0.22,0.30,
1.056,-0.31,0.29,-0.50,-0.06,-0.21,0.31,
1.056,-0.31,0.29,-0.50,-0.07,-0.20,0.31,
1.056,-0.29,0.14,-0.29,-0.07,-0.20,0.31,
1.057,-0.29,0.14,-0.29,-0.07,-0.17,0.32,
1.061,-0.29,0.14,-0.29,-0.08,-0.14,0.32,
1.061,-0.36,-0.12,-0.18,-0.08,-0.14,0.32,
1.063,-0.36,-0.12,-0.18,-0.08,-0.11,0.33,
1.065,-0.36,-0.12,-0.18,-0.09,-0.09,0.33,
1.065,-0.34,-0.41,-0.05,-0.09,-0.09,0.33,
1.068,-0.34,-0.41,-0.05,-0.10,-0.08,0.34,
1.07,-0.34,-0.41,-0.05,-0.10,-0.07,0.34,
1.07,-0.43,-0.53,0.19,-0.10,-0.07,0.34,
1.072,-0.43,-0.53,0.19,-0.10,-0.08,0.35,
1.074,-0.43,-0.53,0.19,-0.10,-0.08,0.36,
1.075,-0.44,-0.28,0.36,-0.10,-0.08,0.36,
1.077,-0.44,-0.28,0.36,-0.10,-0.07,0.37,
1.08,-0.40,-0.18,-0.00,-0.10,-0.07,0.37,
1.08,-0.40,-0.18,-0.00,-0.11,-0.07,0.38,
1.082,-0.40,-0.18,-0.00,-0.12,-0.07,0.39,
1.085,-0.40,-0.18,-0.00,-0.14,-0.07,0.38,
1.085,-0.16,-0.33,-0.37,-0.14,-0.07,0.38,
1.087,-0.16,-0.33,-0.37,-0.16,-0.08,0.38,
1.09,-0.16,-0.33,-0.37,-0.19,-0.06,0.37,
1.09,0.13,-0.66,-1.18,-0.19,-0.06,0.37,
1.092,0.13,-0.66,-1.18,-0.24,-0.02,0.36,
1.095,0.13,-0.66,-1.18,-0.31,0.02,0.34,
1.095,0.86,-1.19,-2.60,-0.31,0.02,0.34,
1.097,0.86,-1.19,-2.60,-0.38,0.04,0.31,
1.099,0.86,-1.19,-2.60,-0.41,0.04,0.25,
1.1,2.47,-1.43,-1.17,-0.41,0.04,0.25,
1.102,2.47,-1.43,-1.17,-0.40,-0.01,0.17,
1.104,2.47,-1.43,-1.17,-0.39,-0.09,0.08,
1.105,3.74,-1.20,1.42,-0.39,-0.09,0.08,
1.107,3.74,-1.20,1.42,-0.39,-0.19,-0.01,
1.109,3.74,-1.20,1.42,-0.36,-0.27,-0.06,
1.11,2.16,-0.48,2.86,-0.36,-0.27,-0.06,
1.112,2.16,-0.48,2.86,-0.29,-0.32,-0.07,
1.114,2.16,-0.48,2.86,-0.22,-0.33,-0.08,
1.115,0.66,0.28,3.33,-0.22,-0.33,-0.08,
1.117,0.66,0.28,3.33,-0.15,-0.30,-0.07,
1.12,0.66,0.28,3.33,-0.08,-0.23,-0.06,
1.12,0.08,0.93,2.74,-0.08,-0.23,-0.06,
1.122,0.08,0.93,2.74,-0.02,-0.15,-0.05,
1.124,0.08,0.93,2.74,0.04,-0.06,-0.04,
1.124,-0.22,1.14,2.40,0.04,-0.06,-0.04,
1.127,-0.22,1.14,2.40,0.09,0.00,-0.03,
1.139,-0.22,1.14,2.40,0.13,0.04,-0.02,
1.16,-0.39,0.69,1.88,0.13,0.04,-0.02,
1.16,-0.39,0.69,1.88,0.15,0.04,-0.01,
1.161,-0.39,0.69,1.88,0.16,0.01,0.00,
1.161,-0.73,-0.12,0.89,0.16,0.01,0.00,
1.161,-0.73,-0.12,0.89,0.15,-0.03,0.01,
1.161,-0.73,-0.12,0.89,0.15,-0.07,0.01,
1.161,-0.68,-0.63,0.11,0.15,-0.07,0.01,
1.161,-0.68,-0.63,0.11,0.14,-0.11,0.01,
1.162,0.07,-0.87,-0.24,0.14,-0.11,0.01,
1.162,0.07,-0.87,-0.24,0.13,-0.14,-0.00,
1.162,0.07,-0.87,-0.24,0.12,-0.16,-0.02,
1.162,0.07,-0.87,-0.24,0.11,-0.15,-0.03,
1.162,0.58,-0.71,-0.14,0.11,-0.15,-0.03,
1.162,0.58,-0.71,-0.14,0.11,-0.12,-0.03,
1.163,0.58,-0.71,-0.14,0.11,-0.09,-0.04,
1.163,0.52,-0.34,0.23,0.11,-0.09,-0.04,
1.163,0.52,-0.34,0.23,0.12,-0.07,-0.04,
1.163,0.19,-0.08,0.63,0.12,-0.07,-0.04,
1.163,0.19,-0.08,0.63,0.13,-0.06,-0.04,
1.164,0.19,-0.08,0.63,0.14,-0.05,-0.04,
1.168,0.19,-0.08,0.63,0.15,-0.05,-0.04,
1.168,-0.29,0.01,0.86,0.15,-0.05,-0.04,
1.168,-0.29,0.01,0.86,0.16,-0.07,-0.03,
1.18,-0.65,-0.16,0.72,0.16,-0.07,-0.03,
1.181,-0.67,-0.35,0.44,0.16,-0.07,-0.03,
1.181,-0.56,-0.37,0.37,0.16,-0.07,-0.03,
1.181,-0.56,-0.37,0.37,0.16,-0.10,-0.03,
1.181,-0.56,-0.37,0.37,0.15,-0.14,-0.02,
1.182,-0.56,-0.37,0.37,0.14,-0.17,-0.02,
1.182,-0.56,-0.37,0.37,0.13,-0.20,-0.02,
1.182,-0.56,-0.37,0.37,0.13,-0.22,-0.02,
1.183,-0.56,-0.37,0.37,0.13,-0.22,-0.02,
1.185,-0.56,-0.37,0.37,0.13,-0.22,-0.02,
1.186,-0.43,-0.26,0.34,0.13,-0.22,-0.02,
1.186,-0.43,-0.26,0.34,0.14,-0.21,-0.01,
1.189,-0.39,-0.15,0.11,0.14,-0.21,-0.01,
1.19,-0.39,-0.15,0.11,0.14,-0.19,-0.01,
1.192,-0.39,-0.15,0.11,0.14,-0.16,-0.00,
1.194,-0.39,-0.15,0.11,0.14,-0.14,0.00,
1.194,-0.31,0.02,-0.21,0.14,-0.14,0.00,
1.197,-0.31,0.02,-0.21,0.14,-0.11,0.01,
1.2,-0.31,0.02,-0.21,0.14,-0.08,0.01,
1.2,-0.30,0.23,-0.43,0.14,-0.08,0.01,
1.202,-0.30,0.23,-0.43,0.13,-0.04,0.01,
1.204,-0.17,0.26,-0.53,0.13,-0.04,0.01,
1.204,-0.17,0.26,-0.53,0.13,0.00,0.02,
1.206,-0.17,0.26,-0.53,0.12,0.04,0.02,
1.209,-0.17,0.26,-0.53,0.11,0.06,0.02,
1.209,0.08,0.15,-0.52,0.11,0.06,0.02,
1.211,0.08,0.15,-0.52,0.10,0.08,0.01,
1.214,0.32,0.05,-0.32,0.10,0.08,0.01,
1.221,0.32,0.05,-0.32,0.10,0.10,0.01,
1.221,0.32,0.05,-0.32,0.10,0.11,0.01,
1.221,0.32,0.05,-0.32,0.10,0.12,0.01,
1.222,0.13,0.01,-0.09,0.10,0.12,0.01,
1.222,0.13,0.01,-0.09,0.09,0.12,0.00,
1.223,-0.20,0.01,0.16,0.09,0.12,0.00,
1.223,-0.20,0.01,0.16,0.09,0.11,0.01,
1.226,-0.20,0.01,0.16,0.10,0.10,0.01,
1.232,-0.63,0.08,0.45,0.10,0.10,0.01,
1.233,-0.63,0.08,0.45,0.10,0.09,0.01,
1.233,-0.63,0.08,0.45,0.11,0.07,0.02,
1.233,-0.63,0.08,0.45,0.12,0.05,0.03,
1.234,-0.87,0.08,0.73,0.12,0.05,0.03,
1.239,-0.87,0.08,0.73,0.13,0.03,0.03,
1.239,-0.87,0.08,0.73,0.13,0.01,0.04,
1.24,-0.80,0.07,0.79,0.13,0.01,0.04,
1.24,-0.80,0.07,0.79,0.14,-0.02,0.04,
1.243,-0.74,0.02,0.60,0.14,-0.02,0.04,
1.243,-0.74,0.02,0.60,0.14,-0.05,0.05,
1.25,-0.74,0.02,0.60,0.14,-0.08,0.06,
1.25,-0.74,0.02,0.60,0.14,-0.10,0.06,
1.25,-0.53,0.03,0.49,0.14,-0.10,0.06,
1.251,-0.53,0.03,0.49,0.14,-0.11,0.06,
1.253,-0.53,0.03,0.49,0.14,-0.12,0.06,
1.253,-0.08,-0.01,0.34,0.14,-0.12,0.06,
1.255,-0.08,-0.01,0.34,0.14,-0.12,0.06,
1.258,-0.08,-0.01,0.34,0.14,-0.11,0.05,
1.259,0.41,0.01,-0.07,0.14,-0.11,0.05,
1.264,0.41,0.01,-0.07,0.14,-0.10,0.04,
1.264,0.41,0.01,-0.07,0.13,-0.08,0.03,
1.265,0.66,0.04,-0.48,0.13,-0.08,0.03,
1.267,0.66,0.04,-0.48,0.12,-0.06,0.03,
1.268,0.79,0.03,-0.68,0.12,-0.06,0.03,
1.268,0.79,0.03,-0.68,0.11,-0.02,0.02,
1.27,0.79,0.03,-0.68,0.10,0.01,0.01,
1.273,0.79,0.03,-0.68,0.08,0.03,-0.01,
1.273,0.86,0.04,-0.86,0.08,0.03,-0.01,
1.277,0.86,0.04,-0.86,0.07,0.05,-0.02,
1.278,0.86,0.04,-0.86,0.06,0.09,-0.03,
1.278,0.78,0.01,-0.73,0.06,0.09,-0.03,
1.28,0.78,0.01,-0.73,0.05,0.13,-0.03,
1.283,0.78,0.01,-0.73,0.05,0.17,-0.04,
1.283,0.61,-0.05,-0.45,0.05,0.17,-0.04,
1.285,0.61,-0.05,-0.45,0.05,0.20,-0.05,
1.288,0.61,-0.05,-0.45,0.05,0.21,-0.05,
1.288,0.42,-0.04,-0.22,0.05,0.21,-0.05,
1.29,0.42,-0.04,-0.22,0.05,0.22,-0.06,
1.293,0.42,-0.04,-0.22,0.05,0.22,-0.07,
1.293,0.12,-0.12,0.03,0.05,0.22,-0.07,
1.313,0.12,-0.12,0.03,0.04,0.21,-0.07,
1.313,0.12,-0.12,0.03,0.04,0.20,-0.07,
1.314,-0.33,-0.16,0.32,0.04,0.20,-0.07,
1.314,-0.33,-0.16,0.32,0.05,0.18,-0.07,
1.314,-0.68,-0.14,0.63,0.05,0.18,-0.07,
1.315,-0.68,-0.14,0.63,0.05,0.15,-0.07,
1.315,-0.68,-0.14,0.63,0.05,0.11,-0.06,
1.315,-0.68,-0.14,0.63,0.06,0.08,-0.06,
1.316,-0.86,-0.07,0.90,0.06,0.08,-0.06,
1.316,-0.86,-0.07,0.90,0.07,0.04,-0.05,
1.317,-0.86,-0.07,0.90,0.08,0.00,-0.05,
1.317,-0.74,-0.03,1.01,0.08,0.00,-0.05,
1.318,-0.74,-0.03,1.01,0.09,-0.04,-0.04,
1.319,-0.74,-0.03,1.01,0.10,-0.07,-0.04,
1.319,-0.49,-0.05,0.88,0.10,-0.07,-0.04,
1.321,-0.49,-0.05,0.88,0.11,-0.10,-0.03,
1.324,-0.49,-0.05,0.88,0.11,-0.12,-0.03,
1.324,-0.29,-0.14,0.69,0.11,-0.12,-0.03,
1.325,-0.29,-0.14,0.69,0.12,-0.14,-0.03,
1.328,-0.29,-0.14,0.69,0.12,-0.15,-0.03,
1.328,-0.19,-0.18,0.47,0.12,-0.15,-0.03,
1.33,-0.19,-0.18,0.47,0.12,-0.16,-0.03,
1.333,-0.19,-0.18,0.47,0.12,-0.16,-0.03,
1.334,-0.25,-0.23,0.19,0.12,-0.16,-0.03,
1.336,-0.25,-0.23,0.19,0.12,-0.16,-0.03,
1.338,-0.29,-0.21,-0.10,0.12,-0.16,-0.03,
1.338,-0.29,-0.21,-0.10,0.12,-0.15,-0.02,
1.34,-0.29,-0.21,-0.10,0.11,-0.14,-0.02,
1.342,-0.29,-0.21,-0.10,0.10,-0.13,-0.02,
1.343,-0.16,-0.21,-0.31,0.10,-0.13,-0.02,
1.344,-0.16,-0.21,-0.31,0.08,-0.12,-0.02,
1.351,0.02,-0.18,-0.38,0.08,-0.12,-0.02,
1.351,0.02,-0.18,-0.38,0.08,-0.10,-0.02,
1.351,0.02,-0.18,-0.38,0.07,-0.08,-0.03,
1.357,0.02,-0.18,-0.38,0.06,-0.06,-0.03,
1.357,0.20,-0.15,-0.39,0.06,-0.06,-0.03,
1.358,0.20,-0.15,-0.39,0.06,-0.03,-0.04,
1.358,0.20,-0.15,-0.39,0.05,-0.01,-0.04,
1.359,0.33,-0.07,-0.36,0.05,-0.01,-0.04,
1.359,0.33,-0.07,-0.36,0.05,0.02,-0.04,
1.363,0.36,0.09,-0.23,0.05,0.02,-0.04,
1.363,0.36,0.09,-0.23,0.05,0.05,-0.04,
1.365,0.36,0.09,-0.23,0.04,0.07,-0.05,
1.367,0.36,0.09,-0.23,0.04,0.09,-0.05,
1.367,0.29,0.20,-0.10,0.04,0.09,-0.05,
1.37,0.29,0.20,-0.10,0.04,0.11,-0.05,
1.372,0.29,0.20,-0.10,0.03,0.12,-0.05,
1.372,0.18,0.12,0.04,0.03,0.12,-0.05,
1.375,0.18,0.12,0.04,0.03,0.14,-0.05,
1.377,0.18,0.12,0.04,0.04,0.15,-0.06,
1.377,0.03,-0.04,0.19,0.04,0.15,-0.06,
1.38,0.03,-0.04,0.19,0.04,0.16,-0.06,
1.384,0.03,-0.04,0.19,0.05,0.17,-0.06,
1.385,-0.16,-0.10,0.48,0.05,0.17,-0.06,
1.385,-0.16,-0.10,0.48,0.06,0.17,-0.06,
1.387,-0.16,-0.10,0.48,0.06,0.16,-0.06,
1.387,-0.02,-0.22,0.64,0.06,0.16,-0.06,
1.39,-0.02,-0.22,0.64,0.06,0.16,-0.06,
1.392,-0.02,-0.22,0.64,0.07,0.18,-0.07,
1.392,0.26,-0.40,0.68,0.07,0.18,-0.07,
1.396,0.26,-0.40,0.68,0.08,0.20,-0.08,
1.397,0.26,-0.40,0.68,0.10,0.19,-0.08,
1.397,-0.11,-0.20,0.85,0.10,0.19,-0.08,
1.4,-0.11,-0.20,0.85,0.12,0.18,-0.08,
1.403,-0.87,0.21,0.63,0.12,0.18,-0.08,
1.403,-0.87,0.21,0.63,0.13,0.16,-0.07,
1.404,-0.87,0.21,0.63,0.13,0.15,-0.06,
1.407,-0.87,0.21,0.63,0.13,0.12,-0.05,
1.407,-1.31,0.61,0.68,0.13,0.12,-0.05,
1.412,-1.31,0.61,0.68,0.14,0.08,-0.04,
1.415,-1.25,0.77,0.53,0.14,0.08,-0.04,
1.423,-1.25,0.77,0.53,0.14,0.03,-0.03,
1.423,-1.25,0.77,0.53,0.13,-0.01,-0.02,
1.423,-1.25,0.77,0.53,0.13,-0.04,-0.00,
1.423,-1.03,0.37,0.04,0.13,-0.04,-0.00,
1.423,-1.03,0.37,0.04,0.12,-0.04,0.01,
1.423,-1.03,0.37,0.04,0.10,-0.03,0.03,
1.424,-0.52,-0.25,-0.35,0.10,-0.03,0.03,
1.425,-0.52,-0.25,-0.35,0.09,-0.00,0.02,
1.427,-0.52,-0.25,-0.35,0.08,0.02,0.02,
1.427,0.21,-0.47,-0.49,0.08,0.02,0.02,
1.43,0.21,-0.47,-0.49,0.07,0.05,0.01,
1.434,0.21,-0.47,-0.49,0.06,0.08,-0.00,
1.434,0.56,-0.32,-0.60,0.06,0.08,-0.00,
1.434,0.56,-0.32,-0.60,0.06,0.11,-0.01,
1.436,0.52,0.01,-0.84,0.06,0.11,-0.01,
1.437,0.52,0.01,-0.84,0.05,0.14,-0.02,
1.439,0.52,0.01,-0.84,0.03,0.17,-0.03,
1.441,0.52,0.01,-0.84,0.02,0.20,-0.03,
1.442,0.25,0.24,-0.91,0.02,0.20,-0.03,
1.444,0.25,0.24,-0.91,0.01,0.23,-0.04,
1.447,0.13,0.29,-0.71,0.01,0.23,-0.04,
1.45,0.13,0.29,-0.71,-0.01,0.26,-0.04,
1.45,0.13,0.29,-0.71,-0.01,0.29,-0.04,
1.451,0.13,0.29,-0.71,-0.01,0.31,-0.04,
1.452,0.15,0.35,-0.33,-0.01,0.31,-0.04,
1.454,0.15,0.35,-0.33,-0.01,0.33,-0.05,
1.456,0.15,0.35,-0.33,-0.02,0.34,-0.05,
1.457,0.08,0.11,-0.10,-0.02,0.34,-0.05,
1.459,0.08,0.11,-0.10,-0.02,0.36,-0.04,
1.473,0.08,0.11,-0.10,-0.01,0.37,-0.03,
1.474,-0.08,-0.25,0.29,-0.01,0.37,-0.03,
1.474,-0.08,-0.25,0.29,-0.01,0.37,-0.03,
1.474,-0.25,-0.30,0.72,-0.01,0.37,-0.03,
1.475,-0.25,-0.30,0.72,0.00,0.36,-0.04,
1.475,-0.25,-0.30,0.72,0.01,0.34,-0.04,
1.475,-0.25,-0.30,0.72,0.03,0.32,-0.03,
1.476,-0.63,-0.22,1.05,0.03,0.32,-0.03,
1.476,-0.63,-0.22,1.05,0.04,0.28,-0.03,
1.478,-0.63,-0.22,1.05,0.05,0.24,-0.02,
1.479,-0.93,-0.09,1.03,0.05,0.24,-0.02,
1.48,-0.93,-0.09,1.03,0.06,0.20,-0.01,
1.481,-0.93,-0.09,1.03,0.06,0.15,0.01,
1.482,-1.10,-0.02,0.82,0.06,0.15,0.01,
1.483,-1.10,-0.02,0.82,0.06,0.10,0.02,
1.486,-1.10,-0.05,0.63,0.06,0.10,0.02,
1.487,-1.10,-0.05,0.63,0.06,0.05,0.03,
1.488,-1.10,-0.05,0.63,0.06,0.00,0.05,
1.491,-1.10,-0.05,0.63,0.06,-0.03,0.07,
1.491,-1.04,-0.34,0.29,0.06,-0.03,0.07,
1.493,-1.04,-0.34,0.29,0.06,-0.06,0.07,
1.496,-0.34,-0.14,0.17,0.06,-0.06,0.07,
1.497,-0.34,-0.14,0.17,0.05,-0.07,0.06,
1.498,-0.34,-0.14,0.17,0.05,-0.08,0.05,
1.501,-0.34,-0.14,0.17,0.04,-0.08,0.04,
1.501,0.32,-0.10,-0.19,0.04,-0.08,0.04,
1.503,0.32,-0.10,-0.19,0.03,-0.05,0.04,
1.506,0.32,-0.10,-0.19,0.03,-0.01,0.04,
1.506,0.62,-0.02,-0.37,0.03,-0.01,0.04,
1.508,0.62,-0.02,-0.37,0.03,0.04,0.03,
1.511,0.62,-0.02,-0.37,0.03,0.07,0.02,
1.511,0.74,0.01,-0.35,0.03,0.07,0.02,
1.515,0.74,0.01,-0.35,0.02,0.10,0.01,
1.516,0.79,-0.17,-0.36,0.02,0.10,0.01,
1.516,0.79,-0.17,-0.36,0.01,0.13,-0.00,
1.518,0.79,-0.17,-0.36,0.00,0.16,-0.02,
1.521,0.79,-0.17,-0.36,-0.01,0.19,-0.02,
1.521,0.69,-0.48,-0.30,-0.01,0.19,-0.02,
1.524,0.69,-0.48,-0.30,-0.01,0.23,-0.03,
1.527,0.69,-0.48,-0.30,-0.01,0.27,-0.04,
1.527,0.69,-0.70,-0.15,-0.01,0.27,-0.04,
1.533,0.69,-0.70,-0.15,-0.02,0.31,-0.06,
1.533,0.69,-0.70,-0.15,-0.02,0.34,-0.07,
1.534,0.69,-0.72,0.12,-0.02,0.34,-0.07,
1.534,0.69,-0.72,0.12,-0.02,0.37,-0.08,
1.535,0.69,-0.72,0.12,-0.01,0.39,-0.09,
1.536,0.60,-0.45,0.50,-0.01,0.39,-0.09,
1.539,0.60,-0.45,0.50,0.00,0.40,-0.10,
1.542,0.45,-0.14,0.88,0.00,0.40,-0.10,
1.542,0.45,-0.14,0.88,0.02,0.41,-0.11,
1.544,0.45,-0.14,0.88,0.03,0.43,-0.11,
1.546,0.23,-0.27,1.09,0.03,0.43,-0.11,
1.547,0.23,-0.27,1.09,0.05,0.43,-0.12,
1.549,0.23,-0.27,1.09,0.06,0.42,-0.13,
1.551,-0.18,-0.85,1.32,0.06,0.42,-0.13,
1.552,-0.18,-0.85,1.32,0.08,0.40,-0.15,
1.553,-0.18,-0.85,1.32,0.09,0.38,-0.15,
1.556,-0.81,-0.83,1.22,0.09,0.38,-0.15,
1.556,-0.81,-0.83,1.22,0.10,0.34,-0.15,
1.558,-0.81,-0.83,1.22,0.11,0.30,-0.14,
1.56,-0.81,-0.83,1.22,0.12,0.26,-0.13,
1.561,-1.35,-0.40,1.13,0.12,0.26,-0.13,
1.563,-1.35,-0.40,1.13,0.12,0.20,-0.10,
1.566,-1.56,0.14,1.02,0.12,0.20,-0.10,
1.566,-1.56,0.14,1.02,0.13,0.16,-0.07,
1.568,-1.56,0.14,1.02,0.12,0.12,-0.05,
1.571,-1.18,0.40,0.58,0.12,0.12,-0.05,
1.571,-1.18,0.40,0.58,0.12,0.09,-0.03,
1.573,-1.18,0.40,0.58,0.12,0.08,-0.02,
1.575,-0.68,0.59,0.12,0.12,0.08,-0.02,
1.576,-0.68,0.59,0.12,0.11,0.07,-0.01,
1.578,-0.68,0.59,0.12,0.10,0.08,-0.00,
1.581,-0.29,0.73,-0.20,0.10,0.08,-0.00,
1.581,-0.29,0.73,-0.20,0.10,0.09,0.01,
1.583,-0.29,0.73,-0.20,0.10,0.12,0.02,
1.585,0.20,0.66,-0.34,0.10,0.12,0.02,
1.586,0.20,0.66,-0.34,0.09,0.14,0.02,
1.588,0.20,0.66,-0.34,0.10,0.16,0.01,
1.59,0.45,0.34,-0.28,0.10,0.16,0.01,
1.591,0.45,0.34,-0.28,0.09,0.18,0.01,
1.593,0.45,0.34,-0.28,0.09,0.20,0.00,
1.595,0.36,0.09,-0.33,0.09,0.20,0.00,
1.596,0.36,0.09,-0.33,0.09,0.23,-0.00,
1.598,0.36,0.09,-0.33,0.09,0.25,-0.01,
1.6,0.19,-0.19,-0.27,0.09,0.25,-0.01,
1.601,0.19,-0.19,-0.27,0.08,0.26,-0.02,
1.602,0.19,-0.19,-0.27,0.08,0.27,-0.03,
1.605,0.19,-0.19,-0.27,0.07,0.27,-0.03,
1.606,-0.08,-0.25,-0.02,0.07,0.27,-0.03,
1.608,-0.08,-0.25,-0.02,0.07,0.27,-0.03,
1.61,-0.08,-0.25,-0.02,0.07,0.27,-0.03,
1.611,-0.19,-0.16,0.26,0.07,0.27,-0.03,
1.62,-0.19,-0.16,0.26,0.07,0.26,-0.04,
1.621,-0.19,-0.16,0.26,0.08,0.26,-0.04,
1.621,-0.20,-0.17,0.33,0.08,0.26,-0.04,
1.621,-0.20,-0.17,0.33,0.08,0.26,-0.04,
1.621,-0.20,-0.17,0.33,0.09,0.28,-0.04,
1.622,-0.18,-0.20,0.25,0.09,0.28,-0.04,
1.623,-0.18,-0.20,0.25,0.09,0.29,-0.05,
1.627,-0.18,-0.20,0.25,0.09,0.30,-0.05,
1.649,-0.17,-0.16,0.02,0.09,0.30,-0.05,
1.649,-0.17,-0.16,0.02,0.09,0.31,-0.05,
1.649,-0.04,-0.07,-0.11,0.09,0.31,-0.05,
1.65,-0.04,-0.07,-0.11,0.08,0.31,-0.05,
1.65,-0.04,-0.07,-0.11,0.08,0.32,-0.05,
1.65,0.08,0.04,-0.09,0.08,0.32,-0.05,
1.651,0.08,0.04,-0.09,0.07,0.31,-0.05,
1.651,0.08,0.04,-0.09,0.07,0.31,-0.05,
1.651,0.08,0.04,-0.09,0.06,0.30,-0.06,
1.651,0.14,0.14,-0.00,0.06,0.30,-0.06,
1.652,0.14,0.14,-0.00,0.06,0.29,-0.06,
1.652,0.10,0.20,0.17,0.06,0.29,-0.06,
1.652,0.10,0.20,0.17,0.06,0.28,-0.07,
1.653,0.10,0.20,0.17,0.06,0.27,-0.07,
1.653,-0.07,0.19,0.40,0.06,0.27,-0.07,
1.653,-0.07,0.19,0.40,0.06,0.26,-0.07,
1.654,-0.07,0.19,0.40,0.07,0.25,-0.07,
1.658,-0.07,0.19,0.40,0.07,0.24,-0.07,
1.659,-0.31,0.13,0.49,0.07,0.24,-0.07,
1.662,-0.31,0.13,0.49,0.08,0.23,-0.06,
1.662,-0.31,0.13,0.49,0.09,0.23,-0.06,
1.666,-0.58,0.02,0.36,0.09,0.23,-0.06,
1.667,-0.58,0.02,0.36,0.09,0.22,-0.05,
1.667,-0.58,0.02,0.36,0.08,0.22,-0.04,
1.667,-0.69,-0.08,0.23,0.08,0.22,-0.04,
1.667,-0.69,-0.08,0.23,0.08,0.23,-0.04,
1.67,-0.69,-0.14,0.08,0.08,0.23,-0.04,
1.67,-0.69,-0.14,0.08,0.07,0.23,-0.03,
1.672,-0.69,-0.14,0.08,0.07,0.23,-0.02,
1.675,-0.69,-0.14,0.08,0.06,0.23,-0.02,
1.675,-0.69,-0.16,-0.02,0.06,0.23,-0.02,
1.677,-0.69,-0.16,-0.02,0.06,0.22,-0.01,
1.68,-0.65,-0.16,-0.06,0.06,0.22,-0.01,
1.68,-0.65,-0.16,-0.06,0.05,0.22,-0.01,
1.682,-0.65,-0.16,-0.06,0.05,0.21,0.00,
1.687,-0.48,-0.11,-0.13,0.05,0.21,0.00,
1.687,-0.48,-0.11,-0.13,0.04,0.20,0.00,
1.687,-0.48,-0.11,-0.13,0.04,0.19,0.01,
1.69,-0.48,-0.11,-0.13,0.03,0.17,0.01,
1.69,-0.25,-0.00,-0.18,0.03,0.17,0.01,
1.693,-0.25,-0.00,-0.18,0.02,0.16,0.01,
1.694,-0.25,-0.00,-0.18,0.02,0.15,0.01,
1.695,-0.01,0.12,-0.16,0.02,0.15,0.01,
1.698,-0.01,0.12,-0.16,0.02,0.15,0.01,
1.699,0.15,0.16,-0.18,0.02,0.15,0.01,
1.699,0.15,0.16,-0.18,0.01,0.14,0.00,
1.702,0.15,0.16,-0.18,0.01,0.14,-0.00,
1.705,0.15,0.16,-0.18,0.01,0.15,-0.01,
1.705,0.20,0.05,-0.13,0.01,0.15,-0.01,
1.707,0.20,0.05,-0.13,0.02,0.16,-0.01,
1.709,0.20,0.05,-0.13,0.02,0.18,-0.01,
1.709,0.06,-0.04,-0.10,0.02,0.18,-0.01,
1.711,0.06,-0.04,-0.10,0.02,0.20,-0.01,
1.722,0.06,-0.08,-0.18,0.02,0.20,-0.01,
1.722,0.06,-0.08,-0.18,0.02,0.21,-0.02,
1.722,0.06,-0.08,-0.18,0.01,0.22,-0.02,
1.723,0.06,-0.08,-0.18,0.01,0.23,-0.02,
1.724,0.05,-0.05,-0.31,0.01,0.23,-0.02,
1.724,0.05,-0.05,-0.31,-0.00,0.23,-0.02,
1.724,0.05,-0.05,-0.31,-0.01,0.23,-0.03,
1.724,-0.03,0.01,-0.34,-0.01,0.23,-0.03,
1.726,-0.03,0.01,-0.34,-0.02,0.23,-0.03,
1.73,-0.03,0.01,-0.34,-0.03,0.22,-0.03,
1.73,-0.20,0.09,-0.34,-0.03,0.22,-0.03,
1.732,-0.20,0.09,-0.34,-0.03,0.21,-0.03,
1.734,-0.20,0.09,-0.34,-0.04,0.21,-0.03,
1.734,-0.43,0.09,0.00,-0.04,0.21,-0.03,
1.736,-0.43,0.09,0.00,-0.04,0.21,-0.02,
1.739,-0.43,0.09,0.00,-0.04,0.20,-0.01,
1.739,-0.64,0.10,0.43,-0.04,0.20,-0.01,
1.741,-0.64,0.10,0.43,-0.04,0.20,-0.00,
1.744,-0.64,0.10,0.43,-0.02,0.18,0.01,
1.744,-0.89,-0.04,1.20,-0.02,0.18,0.01,
1.746,-0.89,-0.04,1.20,0.01,0.17,0.03,
1.749,-0.89,-0.04,1.20,0.03,0.14,0.04,
1.749,-1.14,-0.23,2.03,0.03,0.14,0.04,
1.752,-1.14,-0.23,2.03,0.05,0.10,0.06,
1.754,-1.14,-0.23,2.03,0.08,0.05,0.06,
1.754,-1.27,-0.41,2.42,0.08,0.05,0.06,
1.756,-1.27,-0.41,2.42,0.10,-0.02,0.08,
1.758,-1.27,-0.41,2.42,0.12,-0.08,0.09,
1.759,-1.35,-0.41,2.34,0.12,-0.08,0.09,
1.761,-1.35,-0.41,2.34,0.14,-0.14,0.10,
1.764,-1.38,-0.26,1.54,0.14,-0.14,0.10,
1.764,-1.38,-0.26,1.54,0.14,-0.19,0.12,
1.766,-1.38,-0.26,1.54,0.15,-0.22,0.14,
1.769,-1.38,-0.26,1.54,0.14,-0.24,0.15,
1.769,-1.20,-0.16,0.36,0.14,-0.24,0.15,
1.771,-1.20,-0.16,0.36,0.13,-0.23,0.17,
1.773,-1.20,-0.16,0.36,0.12,-0.23,0.18,
1.773,-0.77,-0.18,-0.34,0.12,-0.23,0.18,
1.776,-0.77,-0.18,-0.34,0.12,-0.22,0.19,
1.779,-0.77,-0.18,-0.34,0.10,-0.19,0.20,
1.779,-0.09,-0.22,-0.62,0.10,-0.19,0.20,
1.782,-0.09,-0.22,-0.62,0.09,-0.16,0.20,
1.783,-0.09,-0.22,-0.62,0.09,-0.12,0.19,
1.784,0.58,-0.28,-0.83,0.09,-0.12,0.19,
1.786,0.58,-0.28,-0.83,0.08,-0.08,0.18,
1.788,0.58,-0.28,-0.83,0.07,-0.04,0.17,
1.789,1.13,-0.25,-0.83,0.07,-0.04,0.17,
1.8,1.13,-0.25,-0.83,0.07,0.02,0.15,
1.8,1.13,-0.25,-0.83,0.07,0.08,0.13,
1.8,1.48,-0.24,-0.64,0.07,0.08,0.13,
1.8,1.48,-0.24,-0.64,0.06,0.14,0.11,
1.8,1.48,-0.24,-0.64,0.06,0.20,0.09,
1.8,1.56,-0.25,-0.58,0.06,0.20,0.09,
1.809,1.56,-0.25,-0.58,0.05,0.26,0.07,
1.809,1.56,-0.25,-0.58,0.04,0.30,0.05,
1.809,1.45,-0.27,-0.61,0.04,0.30,0.05,
1.809,1.45,-0.27,-0.61,0.03,0.33,0.02,
1.81,1.53,-0.29,-0.64,0.03,0.33,0.02,
1.81,1.53,-0.29,-0.64,0.02,0.37,0.00,
1.811,1.53,-0.29,-0.64,0.00,0.40,-0.03,
1.814,1.53,-0.29,-0.64,-0.01,0.44,-0.07,
1.814,1.86,-1.16,-0.67,-0.01,0.44,-0.07,
1.819,1.86,-1.16,-0.67,-0.02,0.49,-0.11,
1.819,1.86,-1.16,-0.67,-0.03,0.53,-0.13,
1.819,1.33,-0.41,-0.18,-0.03,0.53,-0.13,
1.822,1.33,-0.41,-0.18,-0.01,0.54,-0.12,
1.823,1.33,-0.41,-0.18,0.00,0.55,-0.14,
1.823,0.91,-0.85,0.73,0.00,0.55,-0.14,
1.825,0.91,-0.85,0.73,0.01,0.54,-0.17,
1.828,0.91,-0.85,0.73,0.04,0.50,-0.22,
1.828,0.55,-1.83,1.89,0.04,0.50,-0.22,
1.841,0.55,-1.83,1.89,0.05,0.48,-0.24,
1.842,0.55,-1.83,1.89,0.07,0.47,-0.24,
1.844,-0.81,-1.15,1.93,0.07,0.47,-0.24,
1.844,-0.81,-1.15,1.93,0.08,0.47,-0.22,
1.845,-0.81,-1.15,1.93,0.09,0.47,-0.20,
1.845,-1.90,-0.48,1.73,0.09,0.47,-0.20,
1.845,-1.90,-0.48,1.73,0.11,0.48,-0.16,
1.845,-1.90,-0.48,1.73,0.11,0.49,-0.12,
1.845,-2.45,0.11,1.34,0.11,0.49,-0.12,
1.845,-2.45,0.11,1.34,0.11,0.49,-0.08,
1.849,-2.51,1.42,0.86,0.11,0.49,-0.08,
1.85,-2.51,1.42,0.86,0.10,0.48,-0.02,
1.85,-2.51,1.42,0.86,0.10,0.42,0.03,
1.854,-2.51,1.42,0.86,0.10,0.34,0.06,
1.854,-1.55,1.63,0.76,0.10,0.34,0.06,
1.855,-1.55,1.63,0.76,0.10,0.25,0.06,
1.858,-1.55,1.63,0.76,0.10,0.17,0.05,
1.858,-0.92,0.47,0.81,0.10,0.17,0.05,
1.86,-0.92,0.47,0.81,0.10,0.09,0.03,
1.863,-0.28,0.04,0.58,0.10,0.09,0.03,
1.866,-0.28,0.04,0.58,0.10,0.05,0.01,
1.866,-0.28,0.04,0.58,0.10,0.05,0.02,
1.868,-0.28,0.04,0.58,0.10,0.07,0.04,
1.868,-0.49,-0.40,-0.38,0.10,0.07,0.04,
1.87,-0.49,-0.40,-0.38,0.09,0.11,0.05,
1.874,-0.49,-0.40,-0.38,0.08,0.18,0.06,
1.874,-0.35,-1.13,-0.87,0.08,0.18,0.06,
1.875,-0.35,-1.13,-0.87,0.06,0.23,0.07,
1.878,-0.35,-1.13,-0.87,0.04,0.29,0.08,
1.878,-0.19,-1.35,-0.94,0.04,0.29,0.08,
1.88,-0.19,-1.35,-0.94,0.02,0.35,0.09,
1.883,-0.19,-1.35,-0.94,0.00,0.41,0.10,
1.883,0.05,-1.18,-0.99,0.00,0.41,0.10,
1.886,0.05,-1.18,-0.99,-0.01,0.48,0.11,
1.888,0.05,-1.18,-0.99,-0.02,0.54,0.10,
1.888,0.60,-0.82,-0.66,-0.02,0.54,0.10,
1.89,0.60,-0.82,-0.66,-0.04,0.58,0.09,
1.893,0.60,-0.82,-0.66,-0.04,0.62,0.06,
1.893,0.95,-0.29,-0.60,-0.04,0.62,0.06,
1.895,0.95,-0.29,-0.60,-0.04,0.66,0.03,
1.898,0.95,-0.29,-0.60,-0.04,0.69,0.00,
1.899,1.05,0.64,-0.52,-0.04,0.69,0.00,
1.9,1.05,0.64,-0.52,-0.04,0.72,-0.02,
1.903,1.05,0.64,-0.52,-0.04,0.75,-0.02,
1.903,0.61,1.37,-0.59,-0.04,0.75,-0.02,
1.905,0.61,1.37,-0.59,-0.01,0.83,-0.05,
1.908,0.61,1.37,-0.59,0.06,1.01,-0.14,
1.908,3.13,3.61,0.86,0.06,1.01,-0.14,
1.91,3.13,3.61,0.86,0.16,1.23,-0.27,
1.912,3.13,3.61,0.86,0.22,1.32,-0.35,
1.913,2.10,5.64,0.91,0.22,1.32,-0.35,
1.916,2.10,5.64,0.91,0.20,1.22,-0.28,
1.917,2.10,5.64,0.91,0.14,0.95,-0.06,
1.918,-2.66,2.15,-0.65,0.14,0.95,-0.06,
1.92,-2.66,2.15,-0.65,0.16,0.91,0.00,
1.922,-2.66,2.15,-0.65,0.25,1.06,-0.14,
1.923,3.72,1.51,1.17,0.25,1.06,-0.14,
1.925,3.72,1.51,1.17,0.31,1.18,-0.29,
1.927,3.72,1.51,1.17,0.32,1.19,-0.35,
1.928,1.02,0.05,1.14,0.32,1.19,-0.35,
1.936,1.02,0.05,1.14,0.29,1.12,-0.34,
1.937,-1.60,-1.69,0.11,0.29,1.12,-0.34,
1.938,-1.60,-1.69,0.11,0.26,0.98,-0.29,
1.939,-1.60,-1.69,0.11,0.23,0.81,-0.24,
1.939,-1.60,-1.69,0.11,0.20,0.67,-0.20,
1.939,-2.57,-2.48,0.16,0.20,0.67,-0.20,
1.94,-2.57,-2.48,0.16,0.17,0.56,-0.16,
1.943,-2.57,-2.48,0.16,0.14,0.47,-0.13,
1.943,-2.50,-2.87,0.60,0.14,0.47,-0.13,
1.946,-2.50,-2.87,0.60,0.12,0.39,-0.12,
1.959,-2.50,-2.87,0.60,0.11,0.33,-0.10,
1.96,-2.35,-2.21,1.15,0.11,0.33,-0.10,
1.96,-2.35,-2.21,1.15,0.11,0.28,-0.09,
1.96,-2.35,-2.21,1.15,0.11,0.21,-0.06,
1.96,-2.34,-1.04,1.55,0.11,0.21,-0.06,
1.96,-2.34,-1.04,1.55,0.11,0.13,-0.03,
1.977,-2.34,-1.04,1.55,0.12,0.06,0.02,
1.977,-2.61,0.30,1.38,0.12,0.06,0.02,
1.977,-2.61,0.30,1.38,0.13,0.02,0.07,
1.977,-2.45,1.19,1.00,0.13,0.02,0.07,
1.977,-2.45,1.19,1.00,0.14,0.01,0.12,
1.978,-2.45,1.19,1.00,0.15,0.00,0.15,
1.978,-1.78,1.40,0.78,0.15,0.00,0.15,
1.978,-1.78,1.40,0.78,0.15,-0.01,0.19,
1.978,-1.78,1.40,0.78,0.15,-0.02,0.22,
1.978,-1.06,1.01,0.67,0.15,-0.02,0.22,
1.979,-1.06,1.01,0.67,0.16,-0.03,0.24,
1.979,-1.06,1.01,0.67,0.16,-0.04,0.25,
1.979,-1.06,1.01,0.67,0.16,-0.05,0.26,
1.979,-0.40,0.49,0.73,0.16,-0.05,0.26,
1.979,-0.40,0.49,0.73,0.17,-0.06,0.26,
1.984,-0.17,0.04,0.70,0.17,-0.06,0.26,
1.985,-0.17,0.04,0.70,0.17,-0.07,0.25,
1.985,-0.17,0.04,0.70,0.18,-0.08,0.25,
1.987,0.07,-0.34,0.82,0.18,-0.08,0.25,
1.988,0.07,-0.34,0.82,0.19,-0.09,0.23,
1.99,0.07,-0.34,0.82,0.19,-0.10,0.22,
1.993,0.07,-0.34,0.82,0.21,-0.11,0.22,
1.993,0.04,-0.51,1.15,0.21,-0.11,0.22,
1.995,0.04,-0.51,1.15,0.22,-0.15,0.21,
1.999,0.02,-0.71,1.53,0.22,-0.15,0.21,
2.001,0.02,-0.71,1.53,0.23,-0.19,0.20,
2.001,0.02,-0.71,1.53,0.26,-0.20,0.18,
2.002,0.02,-0.71,1.53,0.28,-0.15,0.18,
2.004,0.02,-0.71,1.53,0.30,-0.06,0.19,
2.006,-0.31,-0.92,1.08,0.30,-0.06,0.19,
2.007,-0.31,-0.92,1.08,0.31,0.04,0.19,
2.007,-0.15,-0.64,0.36,0.31,0.04,0.19,
2.009,-0.15,-0.64,0.36,0.31,0.12,0.19,
2.012,0.20,-0.44,0.24,0.31,0.12,0.19,
2.012,0.20,-0.44,0.24,0.32,0.17,0.19,
2.016,0.20,-0.44,0.24,0.31,0.19,0.20,
2.017,0.11,-0.26,0.01,0.31,0.19,0.20,
2.017,0.11,-0.26,0.01,0.31,0.22,0.20,
2.019,0.11,-0.26,0.01,0.31,0.25,0.20,
2.022,-0.01,-0.17,-0.06,0.31,0.25,0.20,
2.022,-0.01,-0.17,-0.06,0.31,0.28,0.20,
2.024,-0.01,-0.17,-0.06,0.31,0.31,0.20,
2.027,-0.10,-0.05,0.01,0.31,0.31,0.20,
2.028,-0.10,-0.05,0.01,0.31,0.33,0.20,
2.029,-0.10,-0.05,0.01,0.31,0.34,0.20,
2.045,-0.10,-0.05,0.01,0.31,0.35,0.21,
2.048,-0.24,0.06,0.14,0.31,0.35,0.21,
2.049,-0.24,0.06,0.14,0.32,0.36,0.21,
2.049,-0.47,0.10,0.18,0.32,0.36,0.21,
2.05,-0.47,0.10,0.18,0.33,0.36,0.22,
2.05,-0.47,0.10,0.18,0.33,0.36,0.22,
2.05,-0.67,0.05,0.11,0.33,0.36,0.22,
2.051,-0.67,0.05,0.11,0.33,0.36,0.23,
2.052,-0.81,0.01,0.04,0.33,0.36,0.23,
2.052,-0.81,0.01,0.04,0.33,0.37,0.24,
2.053,-0.81,0.01,0.04,0.33,0.37,0.25,
2.053,-0.92,-0.09,0.01,0.33,0.37,0.25,
2.054,-0.92,-0.09,0.01,0.33,0.38,0.27,
2.054,-0.92,-0.09,0.01,0.33,0.39,0.28,
2.064,-0.92,-0.09,0.01,0.32,0.39,0.30,
2.065,-0.98,-0.21,0.10,0.32,0.39,0.30,
2.066,-0.98,-0.21,0.10,0.32,0.39,0.31,
2.066,-0.98,-0.21,0.10,0.32,0.38,0.32,
2.066,-0.94,-0.25,0.12,0.32,0.38,0.32,
2.067,-0.94,-0.25,0.12,0.32,0.37,0.33,
2.067,-0.94,-0.25,0.12,0.32,0.35,0.34,
2.068,-0.88,-0.21,0.11,0.32,0.35,0.34,
2.068,-0.88,-0.21,0.11,0.32,0.33,0.35,
2.068,-0.88,-0.21,0.11,0.32,0.32,0.36,
2.071,-0.82,-0.09,0.11,0.32,0.32,0.36,
2.072,-0.82,-0.09,0.11,0.32,0.30,0.37,
2.074,-0.82,-0.09,0.11,0.32,0.28,0.38,
2.076,-0.72,0.03,0.08,0.32,0.28,0.38,
2.079,-0.72,0.03,0.08,0.32,0.27,0.39,
2.079,-0.72,0.03,0.08,0.32,0.26,0.39,
2.081,-0.60,0.11,0.12,0.32,0.26,0.39,
2.082,-0.60,0.11,0.12,0.32,0.25,0.40,
2.084,-0.60,0.11,0.12,0.32,0.25,0.41,
2.086,-0.51,0.14,0.16,0.32,0.25,0.41,
2.086,-0.51,0.14,0.16,0.32,0.24,0.41,
2.089,-0.51,0.14,0.16,0.32,0.23,0.42,
2.091,-0.40,0.10,0.25,0.32,0.23,0.42,
2.091,-0.40,0.10,0.25,0.32,0.22,0.43,
2.093,-0.40,0.10,0.25,0.32,0.21,0.43,
2.096,-0.40,0.10,0.25,0.32,0.20,0.43,
2.096,-0.30,0.02,0.29,0.32,0.20,0.43,
2.101,-0.30,0.02,0.29,0.33,0.18,0.43,
2.102,-0.30,0.02,0.29,0.33,0.17,0.43,
2.102,-0.22,-0.06,0.28,0.33,0.17,0.43,
2.104,-0.22,-0.06,0.28,0.32,0.16,0.43,
2.106,-0.22,-0.06,0.28,0.32,0.15,0.43,
2.107,-0.21,-0.11,0.22,0.32,0.15,0.43,
2.109,-0.21,-0.11,0.22,0.32,0.15,0.44,
2.111,-0.21,-0.11,0.22,0.32,0.15,0.44,
2.111,-0.17,-0.16,0.16,0.32,0.15,0.44,
2.113,-0.17,-0.16,0.16,0.32,0.15,0.44,
2.121,-0.17,-0.16,0.16,0.32,0.15,0.44,
2.121,-0.13,-0.14,0.14,0.32,0.15,0.44,
2.121,-0.13,-0.14,0.14,0.32,0.16,0.44,
2.122,-0.13,-0.14,0.14,0.32,0.17,0.44,
2.135,-0.12,-0.16,0.12,0.32,0.17,0.44,
2.136,-0.12,-0.16,0.12,0.32,0.18,0.44,
2.136,-0.12,-0.16,0.12,0.32,0.19,0.44,
2.136,-0.16,-0.15,0.09,0.32,0.19,0.44,
2.136,-0.16,-0.15,0.09,0.32,0.20,0.44,
2.136,-0.23,-0.12,0.17,0.32,0.20,0.44,
2.137,-0.23,-0.12,0.17,0.32,0.20,0.44,
2.137,-0.23,-0.12,0.17,0.32,0.22,0.44,
2.137,-0.23,-0.12,0.17,0.33,0.23,0.44,
2.137,-0.35,-0.09,0.24,0.33,0.23,0.44,
2.148,-0.35,-0.09,0.24,0.33,0.25,0.45,
2.148,-0.35,-0.09,0.24,0.34,0.27,0.46,
2.149,-0.46,-0.02,0.20,0.34,0.27,0.46,
2.149,-0.46,-0.02,0.20,0.35,0.30,0.46,
2.149,-0.46,-0.02,0.20,0.35,0.30,0.47,
2.149,-0.49,0.00,0.26,0.35,0.30,0.47,
2.149,-0.49,0.00,0.26,0.34,0.30,0.48,
2.156,-0.49,0.00,0.26,0.34,0.28,0.48,
2.157,-0.49,0.00,0.26,0.34,0.28,0.49,
2.157,-0.43,-0.04,0.39,0.34,0.28,0.49,
2.157,-0.43,-0.04,0.39,0.34,0.26,0.49,
2.157,-0.44,-0.05,0.40,0.34,0.26,0.49,
2.158,-0.44,-0.05,0.40,0.35,0.26,0.49,
2.16,-0.44,-0.05,0.40,0.35,0.25,0.50,
2.161,-0.52,0.02,0.41,0.35,0.25,0.50,
2.163,-0.52,0.02,0.41,0.35,0.23,0.50,
2.165,-0.58,0.04,0.42,0.35,0.23,0.50,
2.165,-0.58,0.04,0.42,0.36,0.22,0.51,
2.168,-0.58,0.04,0.42,0.36,0.22,0.52,
2.17,-0.58,0.04,0.42,0.36,0.20,0.53,
2.17,-0.60,0.04,0.39,0.36,0.20,0.53,
2.173,-0.60,0.04,0.39,0.37,0.20,0.54,
2.176,-0.60,0.04,0.39,0.37,0.19,0.54,
2.176,-0.61,0.10,0.31,0.37,0.19,0.54,
2.178,-0.61,0.10,0.31,0.37,0.18,0.55,
2.181,-0.61,0.10,0.31,0.37,0.17,0.57,
2.181,-0.67,0.23,0.25,0.37,0.17,0.57,
2.183,-0.67,0.23,0.25,0.37,0.16,0.58,
2.185,-0.67,0.23,0.25,0.37,0.14,0.59,
2.185,-0.73,0.25,0.17,0.37,0.14,0.59,
2.187,-0.73,0.25,0.17,0.37,0.14,0.60,
2.19,-0.73,0.25,0.17,0.36,0.12,0.61,
2.19,-0.72,0.16,0.05,0.36,0.12,0.61,
2.192,-0.72,0.16,0.05,0.36,0.12,0.62,
2.195,-0.72,0.16,0.05,0.35,0.11,0.63,
2.195,-0.75,0.02,0.02,0.35,0.11,0.63,
2.197,-0.75,0.02,0.02,0.35,0.11,0.64,
2.2,-0.85,-0.14,-0.03,0.35,0.11,0.64,
2.2,-0.85,-0.14,-0.03,0.35,0.10,0.65,
2.206,-0.85,-0.14,-0.03,0.34,0.09,0.67,
2.206,-0.85,-0.14,-0.03,0.34,0.08,0.67,
2.206,-0.84,-0.25,-0.02,0.34,0.08,0.67,
2.208,-0.84,-0.25,-0.02,0.33,0.06,0.68,
2.21,-0.84,-0.25,-0.02,0.32,0.06,0.68,
2.211,-0.81,-0.27,-0.03,0.32,0.06,0.68,
2.213,-0.81,-0.27,-0.03,0.31,0.05,0.69,
2.217,-0.81,-0.27,-0.03,0.31,0.06,0.70,
2.217,-0.79,-0.23,-0.08,0.31,0.06,0.70,
2.217,-0.79,-0.23,-0.08,0.30,0.05,0.71,
2.221,-0.79,-0.23,-0.08,0.30,0.05,0.72,
2.221,-0.71,-0.16,-0.10,0.30,0.05,0.72,
2.222,-0.71,-0.16,-0.10,0.30,0.05,0.72,
2.225,-0.71,-0.16,-0.10,0.29,0.05,0.73,
2.225,-0.70,-0.13,-0.18,0.29,0.05,0.73,
2.227,-0.70,-0.13,-0.18,0.29,0.05,0.73,
2.23,-0.70,-0.13,-0.18,0.28,0.04,0.74,
2.23,-0.74,-0.11,-0.20,0.28,0.04,0.74,
2.234,-0.74,-0.11,-0.20,0.27,0.04,0.75,
2.235,-0.74,-0.11,-0.20,0.27,0.03,0.76,
2.235,-0.80,-0.09,-0.11,0.27,0.03,0.76,
2.237,-0.80,-0.09,-0.11,0.26,0.02,0.77,
2.24,-0.80,-0.09,-0.11,0.26,0.01,0.78,
2.24,-0.75,-0.03,0.02,0.26,0.01,0.78,
2.242,-0.75,-0.03,0.02,0.25,-0.01,0.79,
2.245,-0.75,-0.03,0.02,0.25,-0.02,0.80,
2.245,-0.67,0.05,0.07,0.25,-0.02,0.80,
2.248,-0.67,0.05,0.07,0.25,-0.03,0.81,
2.25,-0.59,0.15,0.09,0.25,-0.03,0.81,
2.251,-0.59,0.15,0.09,0.24,-0.03,0.81,
2.252,-0.59,0.15,0.09,0.24,-0.03,0.82,
2.255,-0.59,0.15,0.09,0.23,-0.02,0.83,
2.255,-0.60,0.19,0.04,0.23,-0.02,0.83,
2.257,-0.60,0.19,0.04,0.23,-0.03,0.85,
2.26,-0.65,0.17,0.03,0.23,-0.03,0.85,
2.26,-0.65,0.17,0.03,0.22,-0.04,0.86,
2.262,-0.65,0.17,0.03,0.22,-0.04,0.86,
2.265,-0.73,-0.02,-0.02,0.22,-0.04,0.86,
2.265,-0.73,-0.02,-0.02,0.22,-0.04,0.87,
2.267,-0.73,-0.02,-0.02,0.22,-0.04,0.88,
2.27,-0.73,-0.02,-0.02,0.22,-0.04,0.88,
2.27,-0.90,-0.28,-0.08,0.22,-0.04,0.88,
2.272,-0.90,-0.28,-0.08,0.21,-0.03,0.89,
2.274,-0.90,-0.28,-0.08,0.21,-0.03,0.90,
2.275,-1.09,-0.46,-0.04,0.21,-0.03,0.90,
2.277,-1.09,-0.46,-0.04,0.21,-0.03,0.91,
2.279,-1.09,-0.46,-0.04,0.20,-0.04,0.92,
2.279,-1.19,-0.38,0.11,0.20,-0.04,0.92,
2.282,-1.19,-0.38,0.11,0.19,-0.04,0.93,
2.284,-1.19,-0.38,0.11,0.18,-0.05,0.95,
2.284,-1.19,-0.20,0.23,0.18,-0.05,0.95,
2.298,-1.19,-0.20,0.23,0.18,-0.06,0.96,
2.299,-1.19,-0.20,0.23,0.17,-0.08,0.98,
2.299,-0.99,-0.07,0.27,0.17,-0.08,0.98,
2.299,-0.99,-0.07,0.27,0.17,-0.09,0.99,
2.3,-0.99,-0.07,0.27,0.17,-0.12,1.00,
2.3,-0.74,0.00,0.27,0.17,-0.12,1.00,
2.3,-0.74,0.00,0.27,0.16,-0.15,1.00,
2.3,-0.51,-0.02,0.25,0.16,-0.15,1.00,
2.301,-0.51,-0.02,0.25,0.16,-0.18,1.01,
2.302,-0.51,-0.02,0.25,0.16,-0.21,1.01,
2.306,-0.51,-0.02,0.25,0.16,-0.24,1.02,
2.306,-0.38,-0.04,0.21,0.16,-0.24,1.02,
2.306,-0.38,-0.04,0.21,0.16,-0.26,1.02,
2.31,-0.38,-0.04,0.21,0.15,-0.28,1.01,
2.31,-0.22,-0.15,0.20,0.15,-0.28,1.01,
2.311,-0.22,-0.15,0.20,0.15,-0.30,1.01,
2.315,-0.22,-0.15,0.20,0.15,-0.31,1.01,
2.315,-0.06,-0.18,0.38,0.15,-0.31,1.01,
2.321,-0.06,-0.18,0.38,0.15,-0.32,1.00,
2.322,-0.06,-0.18,0.38,0.15,-0.33,0.99,
2.322,0.03,-0.18,0.57,0.15,-0.33,0.99,
2.323,0.03,-0.18,0.57,0.16,-0.33,0.98,
2.324,0.03,-0.18,0.57,0.16,-0.33,0.98,
2.324,0.06,-0.26,0.52,0.16,-0.33,0.98,
2.326,0.06,-0.26,0.52,0.16,-0.33,0.97,
2.329,0.06,-0.26,0.52,0.16,-0.32,0.97,
2.329,0.04,-0.33,0.42,0.16,-0.32,0.97,
2.332,0.04,-0.33,0.42,0.17,-0.31,0.97,
2.335,0.04,-0.33,0.42,0.17,-0.30,0.97,
2.335,0.08,-0.26,0.43,0.17,-0.30,0.97,
2.338,0.08,-0.26,0.43,0.17,-0.29,0.97,
2.339,0.15,-0.14,0.29,0.17,-0.29,0.97,
2.34,0.15,-0.14,0.29,0.17,-0.29,0.97,
2.341,0.15,-0.14,0.29,0.18,-0.30,0.97,
2.344,0.15,-0.14,0.29,0.17,-0.32,0.96,
2.344,0.21,-0.00,-0.03,0.17,-0.32,0.96,
2.346,0.21,-0.00,-0.03,0.16,-0.35,0.96,
2.353,0.28,-0.01,-0.18,0.16,-0.35,0.96,
2.354,0.28,-0.01,-0.18,0.15,-0.38,0.95,
2.355,0.28,-0.01,-0.18,0.14,-0.39,0.94,
2.355,0.37,-0.01,-0.07,0.14,-0.39,0.94,
2.355,0.37,-0.01,-0.07,0.14,-0.39,0.92,
2.363,0.37,-0.01,-0.07,0.14,-0.37,0.91,
2.364,0.37,-0.01,-0.07,0.15,-0.36,0.91,
2.364,0.36,0.02,0.18,0.15,-0.36,0.91,
2.365,0.36,0.02,0.18,0.15,-0.35,0.90,
2.365,0.36,0.02,0.18,0.16,-0.35,0.90,
2.365,0.33,-0.11,0.59,0.16,-0.35,0.90,
2.368,0.33,-0.11,0.59,0.17,-0.35,0.90,
2.369,0.42,-0.32,0.69,0.17,-0.35,0.90,
2.369,0.42,-0.32,0.69,0.18,-0.34,0.89,
2.371,0.42,-0.32,0.69,0.19,-0.34,0.88,
2.374,0.42,-0.32,0.69,0.20,-0.34,0.87,
2.374,0.60,-0.47,0.55,0.20,-0.34,0.87,
2.376,0.60,-0.47,0.55,0.20,-0.34,0.86,
2.379,0.77,-0.42,0.30,0.20,-0.34,0.86,
2.38,0.77,-0.42,0.30,0.21,-0.33,0.83,
2.382,0.77,-0.42,0.30,0.21,-0.29,0.81,
2.385,0.77,-0.42,0.30,0.21,-0.23,0.80,
2.385,0.52,-0.28,0.11,0.21,-0.23,0.80,
2.386,0.52,-0.28,0.11,0.20,-0.17,0.80,
2.389,0.52,-0.28,0.11,0.20,-0.11,0.80,
2.389,0.31,-0.21,0.33,0.20,-0.11,0.80,
2.39,0.31,-0.21,0.33,0.20,-0.04,0.80,
2.394,0.31,-0.21,0.33,0.21,0.03,0.79,
2.394,0.77,-0.17,0.78,0.21,0.03,0.79,
2.395,0.77,-0.17,0.78,0.22,0.09,0.78,
2.399,0.77,-0.17,0.78,0.22,0.12,0.76,
2.4,1.04,-0.04,1.07,0.22,0.12,0.76,
2.402,1.04,-0.04,1.07,0.23,0.13,0.75,
2.403,0.89,0.23,1.10,0.23,0.13,0.75,
2.404,0.89,0.23,1.10,0.23,0.14,0.75,
2.406,0.89,0.23,1.10,0.23,0.14,0.74,
2.409,0.89,0.23,1.10,0.23,0.15,0.72,
2.409,0.75,0.29,0.87,0.23,0.15,0.72,
2.411,0.75,0.29,0.87,0.24,0.16,0.71,
2.413,0.44,0.16,0.87,0.24,0.16,0.71,
2.414,0.44,0.16,0.87,0.25,0.17,0.70,
2.416,0.44,0.16,0.87,0.27,0.19,0.69,
2.42,0.44,0.16,0.87,0.28,0.20,0.69,
2.421,-0.10,0.05,0.85,0.28,0.20,0.69,
2.421,-0.10,0.05,0.85,0.29,0.21,0.70,
2.424,-0.42,-0.03,0.54,0.29,0.21,0.70,
2.424,-0.42,-0.03,0.54,0.30,0.22,0.70,
2.426,-0.42,-0.03,0.54,0.30,0.22,0.70,
2.429,-0.42,-0.03,0.54,0.30,0.21,0.70,
2.429,-0.34,-0.20,0.14,0.30,0.21,0.70,
2.431,-0.34,-0.20,0.14,0.30,0.21,0.70,
2.434,-0.18,-0.28,0.05,0.30,0.21,0.70,
2.434,-0.18,-0.28,0.05,0.29,0.21,0.69,
2.436,-0.18,-0.28,0.05,0.28,0.21,0.70,
2.438,-0.03,-0.26,0.04,0.28,0.21,0.70,
2.439,-0.03,-0.26,0.04,0.28,0.21,0.69,
2.44,-0.03,-0.26,0.04,0.28,0.21,0.69,
2.443,0.23,-0.14,-0.01,0.28,0.21,0.69,
2.443,0.23,-0.14,-0.01,0.28,0.22,0.69,
2.445,0.23,-0.14,-0.01,0.28,0.24,0.69,
2.454,0.34,-0.14,-0.17,0.28,0.24,0.69,
2.454,0.34,-0.14,-0.17,0.28,0.25,0.69,
2.455,0.34,-0.14,-0.17,0.27,0.26,0.68,
2.486,0.34,-0.14,-0.17,0.27,0.26,0.67,
2.486,0.22,-0.16,-0.29,0.27,0.26,0.67,
2.487,0.22,-0.16,-0.29,0.26,0.27,0.67,
2.487,0.22,-0.16,-0.29,0.26,0.30,0.66,
2.487,0.09,-0.12,-0.38,0.26,0.30,0.66,
2.487,0.09,-0.12,-0.38,0.26,0.32,0.66,
2.487,0.09,-0.12,-0.38,0.25,0.32,0.65,
2.488,0.05,-0.03,-0.38,0.25,0.32,0.65,
2.488,0.05,-0.03,-0.38,0.25,0.31,0.65,
2.488,0.05,-0.03,-0.38,0.24,0.31,0.64,
2.488,0.03,-0.02,-0.42,0.24,0.31,0.64,
2.489,0.03,-0.02,-0.42,0.24,0.32,0.64,
2.489,0.03,-0.02,-0.42,0.23,0.33,0.64,
2.489,-0.08,-0.00,-0.37,0.23,0.33,0.64,
2.489,-0.08,-0.00,-0.37,0.22,0.33,0.64,
2.49,-0.08,-0.00,-0.37,0.21,0.33,0.63,
2.49,-0.15,-0.00,-0.16,0.21,0.33,0.63,
2.49,-0.15,-0.00,-0.16,0.21,0.32,0.63,
2.49,-0.15,-0.00,-0.16,0.21,0.30,0.63,
2.49,-0.41,-0.03,-0.07,0.21,0.30,0.63,
2.491,-0.41,-0.03,-0.07,0.21,0.28,0.64,
2.491,-0.41,-0.03,-0.07,0.20,0.25,0.64,
2.491,-0.44,-0.07,-0.08,0.20,0.25,0.64,
2.491,-0.44,-0.07,-0.08,0.20,0.22,0.64,
2.493,-0.44,-0.07,-0.08,0.20,0.19,0.63,
2.494,-0.37,-0.14,-0.06,0.20,0.19,0.63,
2.495,-0.37,-0.14,-0.06,0.19,0.16,0.63,
2.499,-0.21,-0.23,-0.15,0.19,0.16,0.63,
2.499,-0.21,-0.23,-0.15,0.19,0.14,0.62,
2.502,-0.21,-0.23,-0.15,0.19,0.12,0.62,
2.51,-0.03,-0.09,-0.30,0.19,0.12,0.62,
2.51,0.00,-0.05,-0.29,0.19,0.12,0.62,
2.51,0.00,-0.05,-0.29,0.18,0.11,0.61,
2.511,0.00,-0.05,-0.29,0.17,0.12,0.61,
2.511,0.00,-0.05,-0.29,0.16,0.12,0.61,
2.511,0.00,-0.05,-0.29,0.16,0.12,0.61,
2.513,0.00,-0.05,-0.29,0.15,0.11,0.62,
2.513,0.09,-0.16,-0.23,0.15,0.11,0.62,
2.517,0.09,-0.16,-0.23,0.15,0.10,0.61,
2.517,0.09,-0.16,-0.23,0.14,0.09,0.60,
2.517,-0.01,-0.38,-0.21,0.14,0.09,0.60,
2.52,-0.01,-0.38,-0.21,0.14,0.08,0.59,
2.522,-0.01,-0.38,-0.21,0.14,0.08,0.59,
2.523,-0.35,-0.38,-0.03,0.14,0.08,0.59,
2.525,-0.35,-0.38,-0.03,0.14,0.10,0.58,
2.527,-0.35,-0.38,-0.03,0.14,0.11,0.58,
2.527,-0.37,-0.10,0.15,0.14,0.11,0.58,
2.53,-0.37,-0.10,0.15,0.14,0.11,0.58,
2.534,-0.39,0.15,0.23,0.14,0.11,0.58,
2.534,-0.39,0.15,0.23,0.13,0.10,0.59,
2.534,-0.39,0.15,0.23,0.13,0.10,0.60,
2.538,-0.39,0.15,0.23,0.13,0.10,0.60,
2.539,-0.13,0.31,0.29,0.13,0.10,0.60,
2.539,-0.13,0.31,0.29,0.13,0.12,0.59,
2.544,0.18,0.27,0.25,0.13,0.12,0.59,
2.544,0.18,0.27,0.25,0.13,0.14,0.58,
2.545,0.18,0.27,0.25,0.13,0.17,0.58,
2.547,0.18,0.27,0.25,0.14,0.21,0.58,
2.547,0.09,0.03,0.37,0.14,0.21,0.58,
2.554,0.09,0.03,0.37,0.14,0.24,0.58,
2.554,0.09,0.03,0.37,0.14,0.26,0.58,
2.555,-0.03,-0.09,0.21,0.14,0.26,0.58,
2.559,0.04,-0.20,0.13,0.14,0.26,0.58,
2.559,0.04,-0.20,0.13,0.13,0.27,0.58,
2.559,0.04,-0.20,0.13,0.13,0.27,0.57,
2.559,0.04,-0.20,0.13,0.12,0.27,0.56,
2.562,0.04,-0.20,0.13,0.13,0.28,0.56,
2.562,-0.11,-0.39,0.18,0.13,0.28,0.56,
2.564,-0.11,-0.39,0.18,0.14,0.28,0.56,
2.567,-0.22,-0.37,0.18,0.14,0.28,0.56,
2.567,-0.22,-0.37,0.18,0.14,0.27,0.56,
2.569,-0.22,-0.37,0.18,0.14,0.25,0.56,
2.572,-0.22,-0.37,0.18,0.13,0.21,0.56,
2.572,-0.24,-0.37,-0.13,0.13,0.21,0.56,
2.574,-0.24,-0.37,-0.13,0.11,0.15,0.56,
2.577,-0.24,-0.37,-0.13,0.10,0.09,0.57,
2.577,-0.73,-0.25,-0.24,0.10,0.09,0.57,
2.579,-0.73,-0.25,-0.24,0.10,0.05,0.59,
2.583,-0.58,0.07,0.08,0.10,0.05,0.59,
2.583,-0.58,0.07,0.08,0.11,0.06,0.59,
2.584,-0.58,0.07,0.08,0.12,0.10,0.60,
2.587,-0.58,0.07,0.08,0.12,0.13,0.61,
2.587,-0.70,0.09,0.19,0.12,0.13,0.61,
2.589,-0.70,0.09,0.19,0.13,0.15,0.62,
2.591,-0.70,0.09,0.19,0.13,0.16,0.63,
2.592,-0.52,0.06,-0.20,0.13,0.16,0.63,
2.594,-0.52,0.06,-0.20,0.12,0.16,0.63,
2.596,-0.52,0.06,-0.20,0.11,0.16,0.64,
2.597,-0.52,0.11,-0.56,0.11,0.16,0.64,
2.599,-0.52,0.11,-0.56,0.09,0.15,0.64,
2.602,-0.83,0.20,-0.56,0.09,0.15,0.64,
2.602,-0.83,0.20,-0.56,0.08,0.16,0.66,
2.604,-0.83,0.20,-0.56,0.07,0.17,0.68,
2.606,-0.83,0.20,-0.56,0.07,0.18,0.70,
2.607,-0.99,0.33,-0.13,0.07,0.18,0.70,
2.609,-0.99,0.33,-0.13,0.08,0.20,0.72,
2.611,-0.73,0.18,-0.15,0.08,0.20,0.72,
2.612,-0.73,0.18,-0.15,0.08,0.22,0.73,
2.614,-0.73,0.18,-0.15,0.07,0.23,0.74,
2.618,-0.69,0.00,-0.34,0.07,0.23,0.74,
2.642,-0.69,0.00,-0.34,0.06,0.22,0.74,
2.643,-0.69,0.00,-0.34,0.04,0.21,0.76,
2.643,-0.69,0.00,-0.34,0.03,0.19,0.76,
2.643,-0.69,0.00,-0.34,0.02,0.18,0.77,
2.643,-0.69,0.00,-0.34,0.02,0.17,0.77,
2.644,-0.69,0.00,-0.34,0.02,0.17,0.77,
2.644,-0.76,-0.16,-0.30,0.02,0.17,0.77,
2.644,-0.71,-0.16,-0.07,0.02,0.17,0.77,
2.644,-0.71,-0.16,-0.07,0.02,0.16,0.76,
2.645,-0.46,-0.23,-0.18,0.02,0.16,0.76,
2.645,-0.46,-0.23,-0.18,0.02,0.14,0.75,
2.645,-0.46,-0.16,-0.36,0.02,0.14,0.75,
2.645,-0.46,-0.16,-0.36,0.02,0.13,0.75,
2.645,-0.46,-0.16,-0.36,0.01,0.13,0.75,
2.646,-0.35,-0.09,-0.30,0.01,0.13,0.75,
2.646,-0.35,-0.09,-0.30,0.00,0.14,0.76,
2.646,-0.35,-0.09,-0.30,-0.00,0.12,0.76,
2.646,-0.35,-0.09,-0.30,-0.01,0.12,0.77,
2.647,-0.30,0.08,-0.25,-0.01,0.12,0.77,
2.659,-0.30,0.08,-0.25,-0.01,0.11,0.77,
2.66,-0.63,0.18,-0.34,-0.01,0.11,0.77,
2.66,-0.63,0.18,-0.34,-0.02,0.12,0.78,
2.66,-0.63,0.18,-0.34,-0.03,0.14,0.79,
2.66,-0.95,0.13,-0.29,-0.03,0.14,0.79,
2.661,-0.95,0.13,-0.29,-0.04,0.16,0.80,
2.661,-0.95,0.13,-0.29,-0.04,0.17,0.82,
2.661,-0.95,0.13,-0.29,-0.04,0.17,0.82,
2.661,-1.15,0.06,-0.04,-0.04,0.17,0.82,
2.664,-1.15,0.06,-0.04,-0.05,0.16,0.83,
2.678,-1.15,0.06,-0.04,-0.05,0.15,0.84,
2.679,-1.16,0.07,-0.03,-0.05,0.15,0.84,
2.68,-1.16,0.07,-0.03,-0.06,0.14,0.85,
2.68,-1.16,0.07,-0.03,-0.07,0.13,0.87,
2.681,-1.14,0.04,-0.22,-0.07,0.13,0.87,
2.681,-1.14,0.04,-0.22,-0.08,0.13,0.88,
2.682,-0.84,-0.07,-0.42,-0.08,0.13,0.88,
2.682,-0.84,-0.07,-0.42,-0.08,0.14,0.89,
2.682,-0.84,-0.07,-0.42,-0.09,0.15,0.89,
2.683,-0.99,-0.07,-0.44,-0.09,0.15,0.89,
2.683,-0.99,-0.07,-0.44,-0.09,0.17,0.91,
2.684,-0.99,-0.07,-0.44,-0.10,0.19,0.93,
2.687,-1.30,0.11,-0.89,-0.10,0.19,0.93,
2.688,-1.30,0.11,-0.89,-0.11,0.21,0.95,
2.688,-1.30,0.11,-0.89,-0.12,0.23,0.97,
2.692,-1.06,0.18,-1.26,-0.12,0.23,0.97,
2.692,-1.06,0.18,-1.26,-0.14,0.26,0.98,
2.694,-1.06,0.18,-1.26,-0.15,0.27,0.99,
2.696,-1.06,0.18,-1.26,-0.17,0.28,1.00,
2.696,-0.72,0.23,-1.25,-0.17,0.28,1.00,
2.699,-0.72,0.23,-1.25,-0.19,0.27,1.01,
2.701,-0.52,0.20,-1.09,-0.19,0.27,1.01,
2.701,-0.52,0.20,-1.09,-0.21,0.27,1.01,
2.703,-0.52,0.20,-1.09,-0.22,0.28,1.02,
2.705,-0.52,0.20,-1.09,-0.23,0.31,1.03,
2.706,-0.75,0.02,-0.65,-0.23,0.31,1.03,
2.708,-0.75,0.02,-0.65,-0.23,0.35,1.04,
2.711,-0.75,0.02,-0.65,-0.23,0.40,1.06,
2.711,-0.99,-0.13,-0.52,-0.23,0.40,1.06,
2.713,-0.99,-0.13,-0.52,-0.24,0.45,1.07,
2.716,-0.99,-0.13,-0.52,-0.25,0.48,1.07,
2.717,-0.96,-0.22,-0.80,-0.25,0.48,1.07,
2.718,-0.96,-0.22,-0.80,-0.26,0.49,1.08,
2.72,-0.96,-0.22,-0.80,-0.27,0.49,1.08,
2.72,-0.75,-0.12,-1.06,-0.27,0.49,1.08,
2.722,-0.75,-0.12,-1.06,-0.29,0.49,1.08,
2.725,-0.75,-0.12,-1.06,-0.30,0.48,1.09,
2.725,-0.74,0.11,-1.11,-0.30,0.48,1.09,
2.727,-0.74,0.11,-1.11,-0.31,0.47,1.10,
2.73,-0.74,0.11,-1.11,-0.32,0.47,1.12,
2.73,-0.78,0.31,-0.80,-0.32,0.47,1.12,
2.733,-0.78,0.31,-0.80,-0.33,0.47,1.13,
2.736,-0.78,0.31,-0.80,-0.35,0.47,1.14,
2.736,-0.52,0.45,-0.58,-0.35,0.47,1.14,
2.741,-0.16,0.40,-0.59,-0.35,0.47,1.14,
2.741,-0.16,0.40,-0.59,-0.36,0.47,1.14,
2.741,-0.16,0.40,-0.59,-0.38,0.47,1.14,
2.744,-0.16,0.40,-0.59,-0.39,0.47,1.14,
2.745,-0.17,0.39,-0.67,-0.39,0.47,1.14,
2.745,-0.17,0.39,-0.67,-0.40,0.49,1.15,
2.749,-0.17,0.39,-0.67,-0.40,0.51,1.15,
2.75,-0.29,0.35,-0.88,-0.40,0.51,1.15,
2.751,-0.29,0.35,-0.88,-0.41,0.54,1.15,
2.752,-0.29,0.35,-0.88,-0.42,0.57,1.16,
2.756,-0.29,0.35,-0.88,-0.44,0.61,1.15,
2.756,-0.45,0.28,-0.85,-0.44,0.61,1.15,
2.757,-0.45,0.28,-0.85,-0.45,0.63,1.16,
2.76,-0.45,0.28,-0.85,-0.47,0.63,1.16,
2.76,-0.72,0.22,-0.95,-0.47,0.63,1.16,
2.762,-0.72,0.22,-0.95,-0.49,0.64,1.17,
2.766,-0.72,0.22,-0.95,-0.51,0.64,1.18,
2.766,-0.96,0.41,-0.94,-0.51,0.64,1.18,
2.767,-0.96,0.41,-0.94,-0.52,0.64,1.20,
2.77,-0.96,0.41,-0.94,-0.54,0.64,1.21,
2.77,-0.98,0.59,-0.79,-0.54,0.64,1.21,
2.772,-0.98,0.59,-0.79,-0.55,0.64,1.22,
2.775,-0.98,0.59,-0.79,-0.57,0.63,1.23,
2.775,-1.07,0.83,-1.01,-0.57,0.63,1.23,
2.777,-1.07,0.83,-1.01,-0.59,0.61,1.25,
2.78,-0.92,0.99,-0.99,-0.59,0.61,1.25,
2.78,-0.92,0.99,-0.99,-0.61,0.59,1.26,
2.791,-0.92,0.99,-0.99,-0.62,0.59,1.28,
2.791,-0.92,0.99,-0.99,-0.64,0.59,1.29,
2.791,-0.64,0.97,-1.09,-0.64,0.59,1.29,
2.792,-0.64,0.97,-1.09,-0.65,0.59,1.29,
2.792,-0.64,0.97,-1.09,-0.67,0.60,1.30,
2.792,-0.34,0.86,-1.43,-0.67,0.60,1.30,
2.798,-0.34,0.86,-1.43,-0.69,0.61,1.30,
2.798,-0.34,0.86,-1.43,-0.70,0.63,1.30,
2.799,-0.10,0.81,-1.38,-0.70,0.63,1.30,
2.799,-0.10,0.81,-1.38,-0.72,0.64,1.30,
2.801,0.05,0.82,-1.57,-0.72,0.64,1.30,
2.801,0.05,0.82,-1.57,-0.73,0.66,1.31,
2.802,0.05,0.82,-1.57,-0.75,0.68,1.31,
2.805,0.05,0.82,-1.57,-0.77,0.72,1.31,
2.805,-0.04,1.02,-2.00,-0.77,0.72,1.31,
2.807,-0.04,1.02,-2.00,-0.79,0.77,1.31,
2.81,-0.04,1.02,-2.00,-0.81,0.82,1.31,
2.81,-0.44,1.26,-2.02,-0.81,0.82,1.31,
2.812,-0.44,1.26,-2.02,-0.84,0.87,1.32,
2.816,-0.44,1.26,-2.02,-0.85,0.91,1.34,
2.816,-0.91,1.80,-1.85,-0.85,0.91,1.34,
2.817,-0.91,1.80,-1.85,-0.87,0.96,1.35,
2.82,-0.91,1.80,-1.85,-0.90,1.00,1.37,
2.82,-1.19,2.59,-1.95,-0.90,1.00,1.37,
2.822,-1.19,2.59,-1.95,-0.92,1.05,1.39,
2.825,-1.19,2.59,-1.95,-0.93,1.09,1.40,
2.825,-1.22,3.32,-2.09,-0.93,1.09,1.40,
2.827,-1.22,3.32,-2.09,-0.94,1.12,1.42,
2.829,-1.22,3.32,-2.09,-0.96,1.14,1.44,
2.83,-1.35,4.18,-2.58,-0.96,1.14,1.44,
2.834,-1.35,4.18,-2.58,-0.99,1.16,1.46,
2.84,-1.35,4.18,-2.58,-1.04,1.17,1.49,
2.84,-1.81,5.26,-2.93,-1.04,1.17,1.49,
2.84,-1.81,5.26,-2.93,-1.11,1.19,1.52,
2.841,-1.81,5.26,-2.93,-1.16,1.23,1.55,
2.841,-2.48,6.41,-1.45,-1.16,1.23,1.55,
2.845,-2.48,6.41,-1.45,-1.17,1.27,1.58,
2.845,-2.48,6.41,-1.45,-1.17,1.31,1.61,
2.845,-2.99,7.21,-0.44,-1.17,1.31,1.61,
2.848,-2.99,7.21,-0.44,-1.18,1.34,1.63,
2.855,-2.99,7.21,-0.44,-1.22,1.37,1.66,
2.855,-3.50,7.68,-2.04,-1.22,1.37,1.66,
2.855,-3.50,7.68,-2.04,-1.27,1.40,1.69,
2.855,-3.50,7.68,-2.04,-1.33,1.43,1.74,
2.856,-3.75,8.47,-2.65,-1.33,1.43,1.74,
2.856,-3.75,8.47,-2.65,-1.38,1.46,1.79,
2.86,-3.75,8.47,-2.65,-1.42,1.49,1.84,
2.86,-3.79,9.46,-2.27,-1.42,1.49,1.84,
2.862,-3.79,9.46,-2.27,-1.46,1.51,1.88,
2.865,-3.79,9.46,-2.27,-1.50,1.53,1.92,
2.865,-3.98,10.36,-2.57,-1.50,1.53,1.92,
2.87,-3.98,10.36,-2.57,-1.54,1.56,1.95,
2.87,-3.98,10.36,-2.57,-1.59,1.58,1.99,
2.87,-4.29,10.87,-3.21,-1.59,1.58,1.99,
2.871,-4.29,10.87,-3.21,-1.64,1.59,2.02,
2.874,-4.29,10.87,-3.21,-1.70,1.61,2.05,
2.874,-4.84,11.29,-3.53,-1.70,1.61,2.05,
2.876,-4.84,11.29,-3.53,-1.75,1.63,2.09,
2.879,-4.84,11.29,-3.53,-1.79,1.65,2.14,
2.879,-5.88,11.34,-3.07,-1.79,1.65,2.14,
2.882,-5.88,11.34,-3.07,-1.81,1.66,2.19,
2.885,-5.88,11.34,-3.07,-1.83,1.68,2.25,
2.885,-7.00,11.26,-2.72,-1.83,1.68,2.25,
2.886,-7.00,11.26,-2.72,-1.86,1.70,2.31,
2.889,-7.00,11.26,-2.72,-1.88,1.71,2.37,
2.889,-7.76,10.87,-2.76,-1.88,1.71,2.37,
2.891,-7.76,10.87,-2.76,-1.91,1.71,2.42,
2.894,-7.76,10.87,-2.76,-1.94,1.71,2.47,
2.894,-8.09,10.55,-2.84,-1.94,1.71,2.47,
2.896,-8.09,10.55,-2.84,-1.97,1.71,2.52,
2.899,-8.09,10.55,-2.84,-2.00,1.69,2.55,
2.9,-8.19,10.36,-2.54,-2.00,1.69,2.55,
2.902,-8.19,10.36,-2.54,-2.01,1.68,2.58,
2.904,-8.19,10.36,-2.54,-2.01,1.67,2.62,
2.904,-8.16,9.98,-2.33,-2.01,1.67,2.62,
2.906,-8.16,9.98,-2.33,-2.00,1.64,2.64,
2.909,-8.16,9.98,-2.33,-1.98,1.62,2.65,
2.909,-8.02,9.43,-2.61,-1.98,1.62,2.65,
2.911,-8.02,9.43,-2.61,-1.97,1.58,2.65,
2.914,-8.02,9.43,-2.61,-1.96,1.56,2.64,
2.914,-8.03,8.87,-3.57,-1.96,1.56,2.64,
2.917,-8.03,8.87,-3.57,-1.97,1.55,2.64,
2.919,-8.04,8.36,-4.11,-1.97,1.55,2.64,
2.92,-8.04,8.36,-4.11,-1.97,1.56,2.64,
2.921,-8.04,8.36,-4.11,-1.96,1.55,2.65,
2.924,-8.04,8.36,-4.11,-1.94,1.54,2.66,
2.924,-7.65,7.57,-4.06,-1.94,1.54,2.66,
2.926,-7.65,7.57,-4.06,-1.92,1.51,2.66,
2.929,-6.91,6.74,-3.98,-1.92,1.51,2.66,
2.929,-6.91,6.74,-3.98,-1.91,1.48,2.67,
2.937,-6.91,6.74,-3.98,-1.89,1.45,2.69,
2.938,-6.09,5.75,-3.95,-1.89,1.45,2.69,
2.939,-6.09,5.75,-3.95,-1.87,1.40,2.71,
2.939,-6.09,5.75,-3.95,-1.83,1.33,2.74,
2.939,-6.09,5.75,-3.95,-1.80,1.26,2.79,
2.94,-5.09,4.77,-3.89,-1.80,1.26,2.79,
2.947,-5.09,4.77,-3.89,-1.76,1.19,2.84,
2.947,-5.09,4.77,-3.89,-1.72,1.13,2.91,
2.948,-5.09,4.77,-3.89,-1.67,1.06,2.97,
2.948,-4.07,3.92,-3.60,-1.67,1.06,2.97,
2.967,-4.07,3.92,-3.60,-1.62,0.98,3.03,
2.967,-2.82,3.00,-2.98,-1.62,0.98,3.03,
2.967,-2.82,3.00,-2.98,-1.59,0.91,3.07,
2.967,-2.82,3.00,-2.98,-1.56,0.86,3.09,
2.968,-1.30,2.25,-2.16,-1.56,0.86,3.09,
2.968,-1.30,2.25,-2.16,-1.52,0.81,3.09,
2.968,-0.07,1.18,-0.67,-1.52,0.81,3.09,
2.968,-0.07,1.18,-0.67,-1.44,0.77,3.08,
2.969,-0.07,1.18,-0.67,-1.35,0.73,3.05,
2.969,-0.07,1.18,-0.67,-1.25,0.71,3.02,
2.969,1.17,0.19,0.38,-1.25,0.71,3.02,
2.969,1.17,0.19,0.38,-1.16,0.73,2.98,
2.97,2.36,-0.59,0.59,-1.16,0.73,2.98,
2.97,2.36,-0.59,0.59,-1.07,0.77,2.94,
2.973,2.36,-0.59,0.59,-0.96,0.82,2.89,
2.974,2.36,-0.59,0.59,-0.87,0.88,2.84,
2.974,3.02,-0.99,0.07,-0.87,0.88,2.84,
2.976,3.02,-0.99,0.07,-0.79,0.96,2.78,
2.978,3.39,-1.28,-0.80,-0.79,0.96,2.78,
2.979,3.39,-1.28,-0.80,-0.72,1.06,2.71,
2.98,3.39,-1.28,-0.80,-0.64,1.17,2.63,
2.985,3.39,-1.28,-0.80,-0.56,1.27,2.55,
2.985,3.21,-1.67,-1.40,-0.56,1.27,2.55,
2.986,3.21,-1.67,-1.40,-0.47,1.37,2.45,
2.988,3.21,-1.67,-1.40,-0.39,1.49,2.33,
2.988,2.50,-2.19,-2.02,-0.39,1.49,2.33,
2.99,2.50,-2.19,-2.02,-0.30,1.61,2.20,
2.993,2.50,-2.19,-2.02,-0.23,1.75,2.05,
2.993,1.32,-2.93,-2.67,-0.23,1.75,2.05,
2.995,1.32,-2.93,-2.67,-0.14,1.87,1.89,
2.999,-0.18,-3.93,-3.46,-0.14,1.87,1.89,
3.0,-0.18,-3.93,-3.46,-0.05,1.98,1.71,
3.001,-0.18,-3.93,-3.46,0.05,2.11,1.53,
3.003,-2.10,-4.63,-4.39,0.05,2.11,1.53,
3.003,-2.10,-4.63,-4.39,0.12,2.25,1.36,
3.005,-2.10,-4.63,-4.39,0.16,2.39,1.22,
3.008,-2.10,-4.63,-4.39,0.16,2.53,1.12,
3.008,-3.85,-4.77,-4.28,0.16,2.53,1.12,
3.01,-3.85,-4.77,-4.28,0.14,2.66,1.05,
3.013,-4.86,-4.83,-3.18,0.14,2.66,1.05,
3.013,-4.86,-4.83,-3.18,0.13,2.79,1.01,
3.016,-4.86,-4.83,-3.18,0.14,2.89,0.98,
3.019,-4.86,-4.83,-3.18,0.15,2.96,0.93,
3.019,-5.33,-4.79,-2.24,0.15,2.96,0.93,
3.02,-5.33,-4.79,-2.24,0.18,2.99,0.86,
3.023,-5.33,-4.79,-2.24,0.22,3.00,0.75,
3.023,-5.41,-4.66,-1.74,0.22,3.00,0.75,
3.025,-5.41,-4.66,-1.74,0.24,2.97,0.62,
3.027,-5.41,-4.66,-1.74,0.26,2.91,0.47,
3.028,-5.87,-4.42,-1.33,0.26,2.91,0.47,
3.03,-5.87,-4.42,-1.33,0.28,2.82,0.31,
3.034,-5.87,-4.42,-1.33,0.30,2.71,0.17,
3.034,-6.68,-4.07,-0.82,0.30,2.71,0.17,
3.035,-6.68,-4.07,-0.82,0.32,2.58,0.04,
3.038,-7.68,-3.55,-0.07,0.32,2.58,0.04,
3.038,-7.68,-3.55,-0.07,0.35,2.45,-0.07,
3.043,-8.49,-3.25,0.66,0.35,2.45,-0.07,
3.044,-8.49,-3.25,0.66,0.39,2.34,-0.15,
3.044,-8.49,-3.25,0.66,0.44,2.24,-0.21,
3.047,-8.49,-3.25,0.66,0.51,2.15,-0.26,
3.048,-8.49,-3.25,0.66,0.57,2.06,-0.31,
3.048,-8.98,-3.14,1.18,0.57,2.06,-0.31,
3.054,-8.98,-3.14,1.18,0.64,1.97,-0.34,
3.055,-8.98,-3.14,1.18,0.71,1.87,-0.38,
3.055,-9.02,-3.38,1.54,0.71,1.87,-0.38,
3.055,-9.02,-3.38,1.54,0.78,1.75,-0.41,
3.058,-9.02,-3.38,1.54,0.85,1.62,-0.44,
3.058,-8.55,-3.86,1.65,0.85,1.62,-0.44,
3.06,-8.55,-3.86,1.65,0.92,1.47,-0.48,
3.063,-7.66,-4.37,1.68,0.92,1.47,-0.48,
3.063,-7.66,-4.37,1.68,0.99,1.34,-0.53,
3.065,-7.66,-4.37,1.68,1.06,1.20,-0.58,
3.068,-7.66,-4.37,1.68,1.12,1.07,-0.64,
3.069,-6.87,-4.87,1.62,1.12,1.07,-0.64,
3.07,-6.87,-4.87,1.62,1.19,0.94,-0.69,
3.073,-6.87,-4.87,1.62,1.26,0.82,-0.75,
3.073,-6.28,-5.25,1.47,1.26,0.82,-0.75,
3.075,-6.28,-5.25,1.47,1.33,0.71,-0.80,
3.077,-5.66,-5.54,1.26,1.33,0.71,-0.80,
3.077,-5.66,-5.54,1.26,1.40,0.62,-0.86,
3.08,-5.66,-5.54,1.26,1.47,0.55,-0.92,
3.083,-5.66,-5.54,1.26,1.54,0.48,-0.98,
3.083,-5.01,-5.68,0.94,1.54,0.48,-0.98,
3.085,-5.01,-5.68,0.94,1.61,0.42,-1.04,
3.088,-5.01,-5.68,0.94,1.67,0.37,-1.10,
3.088,-4.52,-5.74,0.45,1.67,0.37,-1.10,
3.09,-4.52,-5.74,0.45,1.73,0.32,-1.16,
3.092,-4.52,-5.74,0.45,1.79,0.28,-1.22,
3.093,-4.19,-5.70,0.01,1.79,0.28,-1.22,
3.095,-4.19,-5.70,0.01,1.83,0.26,-1.28,
3.097,-3.95,-5.59,-0.42,1.83,0.26,-1.28,
3.098,-3.95,-5.59,-0.42,1.88,0.25,-1.34,
3.1,-3.95,-5.59,-0.42,1.92,0.24,-1.40,
3.103,-4.20,-5.53,-0.59,1.92,0.24,-1.40,
3.104,-4.20,-5.53,-0.59,1.96,0.23,-1.45,
3.105,-4.20,-5.53,-0.59,2.00,0.22,-1.49,
3.107,-4.20,-5.53,-0.59,2.04,0.20,-1.54,
3.108,-4.34,-5.44,-0.52,2.04,0.20,-1.54,
3.11,-4.34,-5.44,-0.52,2.09,0.19,-1.59,
3.113,-4.48,-5.37,-0.24,2.09,0.19,-1.59,
3.14,-4.48,-5.37,-0.24,2.13,0.18,-1.64,
3.14,-4.48,-5.37,-0.24,2.18,0.18,-1.69,
3.14,-4.60,-5.12,0.08,2.18,0.18,-1.69,
3.141,-4.60,-5.12,0.08,2.22,0.17,-1.73,
3.141,-4.60,-5.12,0.08,2.27,0.13,-1.76,
3.141,-4.60,-5.12,0.08,2.30,0.08,-1.79,
3.141,-4.90,-4.75,0.24,2.30,0.08,-1.79,
3.142,-4.90,-4.75,0.24,2.34,0.03,-1.81,
3.142,-4.83,-4.66,0.11,2.34,0.03,-1.81,
3.142,-4.83,-4.66,0.11,2.37,0.00,-1.84,
3.142,-4.83,-4.66,0.11,2.39,-0.01,-1.87,
3.143,-4.46,-4.65,0.18,2.39,-0.01,-1.87,
3.143,-4.46,-4.65,0.18,2.42,-0.03,-1.91,
3.143,-4.46,-4.65,0.18,2.44,-0.06,-1.94,
3.143,-4.01,-4.53,0.36,2.44,-0.06,-1.94,
3.144,-4.01,-4.53,0.36,2.46,-0.08,-1.98,
3.144,-4.01,-4.53,0.36,2.48,-0.11,-2.01,
3.144,-4.01,-4.53,0.36,2.50,-0.12,-2.05,
3.144,-3.58,-4.54,0.33,2.50,-0.12,-2.05,
3.145,-3.58,-4.54,0.33,2.53,-0.12,-2.10,
3.15,-3.58,-4.54,0.33,2.54,-0.13,-2.13,
3.15,-2.99,-4.72,0.30,2.54,-0.13,-2.13,
3.151,-2.99,-4.72,0.30,2.55,-0.13,-2.18,
3.171,-2.99,-4.72,0.30,2.56,-0.14,-2.22,
3.172,-2.43,-4.83,0.21,2.56,-0.14,-2.22,
3.172,-2.43,-4.83,0.21,2.56,-0.15,-2.27,
3.173,-2.43,-4.83,0.21,2.56,-0.13,-2.33,
3.173,-1.82,-4.68,0.33,2.56,-0.13,-2.33,
3.173,-1.82,-4.68,0.33,2.58,-0.10,-2.40,
3.174,-1.82,-4.68,0.33,2.60,-0.05,-2.49,
3.174,-0.88,-4.40,0.72,2.60,-0.05,-2.49,
3.175,-0.88,-4.40,0.72,2.62,-0.00,-2.56,
3.175,-0.88,-4.40,0.72,2.64,0.03,-2.63,
3.175,-0.88,-4.40,0.72,2.66,0.05,-2.67,
3.175,-0.88,-4.40,0.72,2.68,0.08,-2.71,
3.177,-0.88,-4.40,0.72,2.69,0.12,-2.73,
3.177,-0.79,-4.21,1.02,2.69,0.12,-2.73,
3.178,-1.25,-3.90,0.93,2.69,0.12,-2.73,
3.178,-1.31,-3.74,1.01,2.69,0.12,-2.73,
3.178,-1.31,-3.74,1.01,2.71,0.17,-2.76,
3.181,-1.31,-3.74,1.01,2.73,0.24,-2.79,
3.183,-1.31,-3.74,1.01,2.75,0.30,-2.82,
3.183,-1.44,-3.78,1.23,2.75,0.30,-2.82,
3.184,-1.44,-3.78,1.23,2.77,0.36,-2.85,
3.186,-1.89,-3.74,1.47,2.77,0.36,-2.85,
3.187,-1.89,-3.74,1.47,2.80,0.40,-2.86,
3.189,-1.89,-3.74,1.47,2.82,0.43,-2.87,
3.191,-1.89,-3.74,1.47,2.83,0.45,-2.89,
3.192,-1.59,-3.75,1.61,2.83,0.45,-2.89,
3.194,-1.59,-3.75,1.61,2.84,0.45,-2.92,
3.196,-1.59,-3.75,1.61,2.85,0.41,-2.95,
3.196,-1.14,-3.64,1.69,2.85,0.41,-2.95,
3.2,-1.14,-3.64,1.69,2.85,0.37,-2.98,
3.201,-0.85,-3.32,1.62,2.85,0.37,-2.98,
3.201,-0.85,-3.32,1.62,2.85,0.32,-3.00,
3.204,-0.85,-3.32,1.62,2.85,0.28,-3.03,
3.206,-0.85,-3.32,1.62,2.84,0.25,-3.06,
3.206,-0.59,-3.10,1.47,2.84,0.25,-3.06,
3.209,-0.59,-3.10,1.47,2.84,0.25,-3.09,
3.211,-0.59,-3.10,1.47,2.84,0.26,-3.12,
3.211,-0.42,-2.86,1.65,2.84,0.26,-3.12,
3.213,-0.42,-2.86,1.65,2.85,0.27,-3.14,
3.216,-0.42,-2.86,1.65,2.85,0.29,-3.16,
3.217,-0.41,-2.52,1.89,2.85,0.29,-3.16,
3.218,-0.41,-2.52,1.89,2.86,0.32,-3.17,
3.221,-0.41,-2.52,1.89,2.87,0.36,-3.17,
3.221,-0.52,-2.16,2.11,2.87,0.36,-3.17,
3.223,-0.52,-2.16,2.11,2.88,0.39,-3.18,
3.226,-0.49,-1.88,2.29,2.88,0.39,-3.18,
3.226,-0.49,-1.88,2.29,2.88,0.42,-3.18,
3.228,-0.49,-1.88,2.29,2.88,0.43,-3.18,
3.231,-0.49,-1.88,2.29,2.87,0.43,-3.17,
3.231,-0.51,-1.60,2.35,2.87,0.43,-3.17,
3.235,-0.51,-1.60,2.35,2.86,0.41,-3.17,
3.239,-0.32,-1.29,2.44,2.86,0.41,-3.17,
3.24,-0.32,-1.29,2.44,2.85,0.39,-3.16,
3.24,-0.32,-1.29,2.44,2.83,0.37,-3.16,
3.241,-0.32,-1.29,2.44,2.82,0.34,-3.15,
3.243,-0.01,-1.09,2.55,2.82,0.34,-3.15,
3.244,-0.01,-1.09,2.55,2.80,0.30,-3.15,
3.246,-0.01,-1.09,2.55,2.78,0.28,-3.14,
3.247,0.29,-0.86,2.56,2.78,0.28,-3.14,
3.254,0.29,-0.86,2.56,2.76,0.26,-3.14,
3.255,0.65,-0.56,2.44,2.76,0.26,-3.14,
3.255,0.65,-0.56,2.44,2.74,0.24,-3.13,
3.256,0.65,-0.56,2.44,2.72,0.23,-3.12,
3.256,0.65,-0.56,2.44,2.69,0.23,-3.11,
3.256,1.08,-0.21,2.44,2.69,0.23,-3.11,
3.258,1.08,-0.21,2.44,2.67,0.23,-3.10,
3.261,1.08,-0.21,2.44,2.65,0.24,-3.09,
3.261,1.51,0.04,2.47,2.65,0.24,-3.09,
3.263,1.51,0.04,2.47,2.63,0.25,-3.08,
3.266,1.51,0.04,2.47,2.61,0.26,-3.07,
3.266,1.96,0.24,2.46,2.61,0.26,-3.07,
3.268,1.96,0.24,2.46,2.59,0.28,-3.07,
3.271,1.96,0.24,2.46,2.56,0.29,-3.06,
3.271,2.17,0.41,2.39,2.56,0.29,-3.06,
3.273,2.17,0.41,2.39,2.52,0.30,-3.05,
3.276,2.39,0.53,2.49,2.52,0.30,-3.05,
3.276,2.39,0.53,2.49,2.48,0.31,-3.04,
3.3,2.39,0.53,2.49,2.45,0.32,-3.03,
3.3,2.39,0.53,2.49,2.41,0.32,-3.01,
3.3,2.38,0.62,2.63,2.41,0.32,-3.01,
3.3,2.38,0.62,2.63,2.37,0.32,-2.99,
3.3,2.38,0.62,2.63,2.33,0.32,-2.97,
3.301,2.47,0.73,2.92,2.33,0.32,-2.97,
3.301,2.47,0.73,2.92,2.28,0.30,-2.95,
3.301,2.47,0.73,2.92,2.24,0.29,-2.92,
3.301,2.44,0.68,3.25,2.24,0.29,-2.92,
3.301,2.44,0.68,3.25,2.19,0.27,-2.89,
3.301,2.44,0.68,3.25,2.15,0.24,-2.85,
3.302,2.41,0.61,3.57,2.15,0.24,-2.85,
3.302,2.41,0.61,3.57,2.10,0.21,-2.82,
3.302,2.37,0.68,3.78,2.10,0.21,-2.82,
3.302,2.37,0.68,3.78,2.06,0.18,-2.79,
3.303,2.37,0.68,3.78,2.01,0.14,-2.75,
3.306,2.37,0.68,3.78,1.97,0.11,-2.71,
3.307,2.61,0.71,3.99,1.97,0.11,-2.71,
3.308,2.61,0.71,3.99,1.92,0.09,-2.68,
3.311,2.61,0.71,3.99,1.88,0.09,-2.64,
3.312,2.97,0.54,4.18,1.88,0.09,-2.64,
3.314,2.97,0.54,4.18,1.84,0.08,-2.62,
3.321,2.97,0.54,4.18,1.80,0.07,-2.58,
3.322,3.24,0.47,4.25,1.80,0.07,-2.58,
3.322,3.24,0.47,4.25,1.76,0.07,-2.55,
3.322,3.24,0.47,4.25,1.73,0.08,-2.52,
3.323,3.46,0.49,4.26,1.73,0.08,-2.52,
3.323,3.46,0.49,4.26,1.69,0.11,-2.49,
3.325,3.46,0.49,4.26,1.66,0.15,-2.47,
3.325,3.95,0.47,4.23,1.66,0.15,-2.47,
3.327,3.95,0.47,4.23,1.63,0.19,-2.44,
3.33,3.95,0.47,4.23,1.59,0.24,-2.42,
3.331,4.25,0.36,4.25,1.59,0.24,-2.42,
3.333,4.25,0.36,4.25,1.56,0.28,-2.39,
3.342,4.26,0.28,4.33,1.56,0.28,-2.39,
3.343,4.26,0.28,4.33,1.53,0.31,-2.36,
3.344,4.26,0.28,4.33,1.50,0.35,-2.33,
3.344,4.04,0.25,4.44,1.50,0.35,-2.33,
3.344,4.04,0.25,4.44,1.47,0.39,-2.29,
3.345,4.04,0.25,4.44,1.44,0.42,-2.24,
3.345,3.57,0.27,4.48,1.44,0.42,-2.24,
3.346,3.57,0.27,4.48,1.41,0.43,-2.20,
3.348,3.57,0.27,4.48,1.37,0.42,-2.15,
3.363,3.57,0.27,4.48,1.33,0.39,-2.10,
3.364,3.25,0.23,4.52,1.33,0.39,-2.10,
3.364,3.25,0.23,4.52,1.29,0.34,-2.06,
3.364,3.13,0.29,4.52,1.29,0.34,-2.06,
3.364,3.13,0.29,4.52,1.25,0.29,-2.03,
3.365,3.13,0.29,4.52,1.21,0.23,-1.99,
3.365,2.95,0.48,4.40,1.21,0.23,-1.99,
3.365,2.95,0.48,4.40,1.17,0.17,-1.96,
3.365,2.95,0.48,4.40,1.13,0.10,-1.92,
3.365,2.70,0.70,4.22,1.13,0.10,-1.92,
3.365,2.70,0.70,4.22,1.09,0.03,-1.87,
3.37,2.70,0.70,4.22,1.04,-0.03,-1.82,
3.371,2.70,0.70,4.22,1.00,-0.08,-1.76,
3.371,2.47,0.79,4.02,1.00,-0.08,-1.76,
3.372,2.47,0.79,4.02,0.96,-0.12,-1.69,
3.375,2.47,0.79,4.02,0.92,-0.16,-1.62,
3.375,2.32,0.72,3.75,0.92,-0.16,-1.62,
3.378,2.32,0.72,3.75,0.88,-0.20,-1.56,
3.38,2.32,0.72,3.75,0.83,-0.23,-1.48,
3.381,2.18,0.67,3.48,0.83,-0.23,-1.48,
3.383,2.18,0.67,3.48,0.78,-0.26,-1.42,
3.385,2.18,0.67,3.48,0.74,-0.29,-1.36,
3.385,2.40,0.77,3.40,0.74,-0.29,-1.36,
3.388,2.40,0.77,3.40,0.70,-0.31,-1.31,
3.39,2.40,0.77,3.40,0.66,-0.33,-1.26,
3.391,2.83,0.88,3.30,0.66,-0.33,-1.26,
3.394,2.83,0.88,3.30,0.62,-0.34,-1.22,
3.395,3.04,0.98,3.14,0.62,-0.34,-1.22,
3.395,3.04,0.98,3.14,0.59,-0.35,-1.18,
3.397,3.04,0.98,3.14,0.55,-0.36,-1.13,
3.4,3.04,0.98,3.14,0.51,-0.37,-1.08,
3.4,3.08,1.04,2.97,0.51,-0.37,-1.08,
3.402,3.08,1.04,2.97,0.47,-0.38,-1.03,
3.405,3.08,1.04,2.97,0.43,-0.38,-0.99,
3.405,3.05,1.06,2.75,0.43,-0.38,-0.99,
3.407,3.05,1.06,2.75,0.39,-0.37,-0.94,
3.409,3.05,1.06,2.75,0.36,-0.36,-0.90,
3.409,3.05,1.00,2.60,0.36,-0.36,-0.90,
3.412,3.05,1.00,2.60,0.32,-0.34,-0.86,
3.414,3.05,1.00,2.60,0.28,-0.33,-0.82,
3.415,2.97,0.85,2.55,0.28,-0.33,-0.82,
3.417,2.97,0.85,2.55,0.25,-0.33,-0.78,
3.42,2.97,0.85,2.55,0.21,-0.33,-0.75,
3.42,2.84,0.59,2.54,0.21,-0.33,-0.75,
3.422,2.84,0.59,2.54,0.18,-0.34,-0.71,
3.424,2.84,0.59,2.54,0.14,-0.35,-0.68,
3.424,2.67,0.39,2.46,0.14,-0.35,-0.68,
3.427,2.67,0.39,2.46,0.10,-0.35,-0.64,
3.429,2.67,0.39,2.46,0.06,-0.36,-0.61,
3.429,2.53,0.18,2.41,0.06,-0.36,-0.61,
3.432,2.53,0.18,2.41,0.03,-0.37,-0.58,
3.435,2.53,0.18,2.41,0.00,-0.39,-0.55,
3.436,2.39,-0.03,2.45,0.00,-0.39,-0.55,
3.441,2.39,-0.03,2.45,-0.03,-0.41,-0.52,
3.442,2.16,-0.25,2.51,-0.03,-0.41,-0.52,
3.442,2.16,-0.25,2.51,-0.05,-0.43,-0.50,
3.443,2.16,-0.25,2.51,-0.07,-0.45,-0.48,
3.46,1.97,-0.39,2.53,-0.07,-0.45,-0.48,
3.46,1.97,-0.39,2.53,-0.08,-0.47,-0.45,
3.46,1.97,-0.39,2.53,-0.09,-0.50,-0.43,
3.461,1.97,-0.39,2.53,-0.09,-0.53,-0.39,
3.461,1.73,-0.32,2.48,-0.09,-0.53,-0.39,
3.461,1.73,-0.32,2.48,-0.10,-0.56,-0.36,
3.461,1.51,-0.17,2.35,-0.10,-0.56,-0.36,
3.462,1.51,-0.17,2.35,-0.09,-0.59,-0.33,
3.462,1.51,-0.17,2.35,-0.09,-0.63,-0.29,
3.462,1.51,-0.17,2.35,-0.09,-0.67,-0.25,
3.462,1.34,0.04,2.07,-0.09,-0.67,-0.25,
3.463,1.34,0.04,2.07,-0.09,-0.71,-0.21,
3.464,1.34,0.04,2.07,-0.09,-0.75,-0.17,
3.464,1.28,0.23,1.72,-0.09,-0.75,-0.17,
3.467,1.28,0.23,1.72,-0.09,-0.77,-0.12,
3.471,1.28,0.23,1.72,-0.09,-0.80,-0.08,
3.471,1.33,0.47,1.37,-0.09,-0.80,-0.08,
3.472,1.33,0.47,1.37,-0.10,-0.81,-0.04,
3.474,1.33,0.47,1.37,-0.11,-0.81,0.00,
3.474,1.51,0.71,0.98,-0.11,-0.81,0.00,
3.476,1.51,0.71,0.98,-0.12,-0.81,0.04,
3.479,1.51,0.71,0.98,-0.12,-0.80,0.09,
3.479,1.56,0.90,0.60,-0.12,-0.80,0.09,
3.481,1.56,0.90,0.60,-0.13,-0.79,0.14,
3.485,1.46,1.07,0.35,-0.13,-0.79,0.14,
3.485,1.46,1.07,0.35,-0.14,-0.76,0.20,
3.486,1.46,1.07,0.35,-0.15,-0.72,0.26,
3.489,1.46,1.07,0.35,-0.17,-0.70,0.32,
3.489,1.36,1.15,0.00,-0.17,-0.70,0.32,
3.491,1.36,1.15,0.00,-0.18,-0.68,0.38,
3.494,1.36,1.15,0.00,-0.20,-0.67,0.44,
3.494,1.36,1.13,-0.51,-0.20,-0.67,0.44,
3.496,1.36,1.13,-0.51,-0.21,-0.64,0.50,
3.499,1.36,1.13,-0.51,-0.23,-0.60,0.57,
3.499,1.30,1.02,-1.05,-0.23,-0.60,0.57,
3.502,1.30,1.02,-1.05,-0.25,-0.55,0.63,
3.503,1.30,1.02,-1.05,-0.27,-0.51,0.69,
3.504,1.11,0.89,-1.17,-0.27,-0.51,0.69,
3.506,1.11,0.89,-1.17,-0.30,-0.47,0.74,
3.509,0.97,0.90,-1.09,-0.30,-0.47,0.74,
3.509,0.97,0.90,-1.09,-0.32,-0.43,0.80,
3.511,0.97,0.90,-1.09,-0.34,-0.39,0.86,
3.514,0.97,0.90,-1.09,-0.36,-0.35,0.91,
3.514,0.94,0.90,-1.00,-0.36,-0.35,0.91,
3.516,0.94,0.90,-1.00,-0.38,-0.31,0.96,
3.519,0.94,0.90,-1.00,-0.40,-0.27,1.01,
3.52,0.92,0.87,-0.89,-0.40,-0.27,1.01,
3.521,0.92,0.87,-0.89,-0.42,-0.22,1.05,
3.523,0.92,0.87,-0.89,-0.44,-0.18,1.08,
3.524,1.00,0.91,-0.79,-0.44,-0.18,1.08,
3.526,1.00,0.91,-0.79,-0.46,-0.14,1.12,
3.528,1.00,0.91,-0.79,-0.47,-0.09,1.14,
3.529,1.14,0.99,-0.72,-0.47,-0.09,1.14,
3.531,1.14,0.99,-0.72,-0.49,-0.05,1.17,
3.536,1.14,0.99,-0.72,-0.50,-0.01,1.20,
3.536,1.17,1.05,-0.82,-0.50,-0.01,1.20,
3.537,1.17,1.05,-0.82,-0.51,0.04,1.23,
3.542,1.17,1.05,-0.82,-0.51,0.10,1.25,
3.542,1.17,1.05,-0.82,-0.52,0.19,1.26,
3.543,1.46,1.06,-1.16,-0.52,0.19,1.26,
3.544,1.85,1.06,-1.65,-0.52,0.19,1.26,
3.544,1.85,1.06,-1.65,-0.53,0.29,1.27,
3.546,1.85,1.06,-1.65,-0.54,0.39,1.27,
3.549,2.02,1.02,-2.00,-0.54,0.39,1.27,
3.549,2.02,1.02,-2.00,-0.56,0.49,1.26,
3.554,2.02,1.02,-2.00,-0.57,0.59,1.26,
3.555,2.02,1.02,-2.00,-0.59,0.69,1.27,
3.555,1.69,0.93,-1.97,-0.59,0.69,1.27,
3.556,1.69,0.93,-1.97,-0.59,0.78,1.31,
3.558,0.99,0.87,0.89,-0.59,0.78,1.31,
3.559,0.99,0.87,0.89,-0.45,0.80,1.47,
3.561,0.99,0.87,0.89,-0.13,0.69,1.76,
3.563,2.27,0.84,4.97,-0.13,0.69,1.76,
3.564,2.27,0.84,4.97,0.35,0.47,2.11,
3.565,2.27,0.84,4.97,0.84,0.18,2.49,
3.569,2.27,0.84,4.97,1.04,-0.12,2.86,
3.57,3.88,2.92,1.90,1.04,-0.12,2.86,
3.571,3.88,2.92,1.90,0.84,-0.37,3.17,
3.573,3.88,2.92,1.90,0.41,-0.55,3.47,
3.573,4.93,6.15,-3.53,0.41,-0.55,3.47,
3.575,4.93,6.15,-3.53,0.03,-0.72,3.78,
3.578,4.93,6.15,-3.53,-0.28,-0.81,4.05,
3.578,5.95,7.32,-6.73,-0.28,-0.81,4.05,
3.58,5.95,7.32,-6.73,-0.63,-0.79,4.21,
3.583,5.95,7.32,-6.73,-0.93,-0.72,4.16,
3.583,8.67,5.61,-9.40,-0.93,-0.72,4.16,
3.585,8.67,5.61,-9.40,-1.12,-0.68,3.88,
3.588,8.67,5.61,-9.40,-1.29,-0.76,3.40,
3.588,9.55,3.64,-8.91,-1.29,-0.76,3.40,
3.59,9.55,3.64,-8.91,-1.46,-0.98,2.80,
3.593,9.55,3.64,-8.91,-1.58,-1.24,2.15,
3.593,6.31,3.60,-4.20,-1.58,-1.24,2.15,
3.595,6.31,3.60,-4.20,-1.64,-1.46,1.55,
3.598,6.31,3.60,-4.20,-1.67,-1.60,1.09,
3.598,-1.30,4.94,3.61,-1.67,-1.60,1.09,
3.601,-1.30,4.94,3.61,-1.56,-1.69,0.89,
3.604,-1.30,4.94,3.61,-1.39,-1.59,0.92,
3.604,-11.92,7.32,9.30,-1.39,-1.59,0.92,
3.606,-11.92,7.32,9.30,-1.46,-1.14,0.95,
3.609,-11.92,7.32,9.30,-1.78,-0.52,0.88,
3.628,-14.34,11.49,3.49,-1.78,-0.52,0.88,
3.629,-14.34,11.49,3.49,-2.07,0.03,0.72,
3.629,-12.34,19.07,1.91,-2.07,0.03,0.72,
3.629,-12.34,19.07,1.91,-2.11,0.27,0.59,
3.63,-12.34,19.07,1.91,-1.97,0.27,0.50,
3.63,-12.34,19.07,1.91,-1.90,0.18,0.39,
3.63,-8.38,25.45,-5.67,-1.90,0.18,0.39,
3.631,-8.38,25.45,-5.67,-1.98,0.10,0.23,
3.631,-8.38,25.45,-5.67,-2.10,-0.03,0.10,
3.631,-7.88,27.94,-12.91,-2.10,-0.03,0.10,
3.631,-7.88,27.94,-12.91,-2.25,-0.18,0.10,
3.632,-7.88,27.94,-12.91,-2.41,-0.31,0.29,
3.632,-13.05,27.23,-12.00,-2.41,-0.31,0.29,
3.632,-13.05,27.23,-12.00,-2.50,-0.35,0.70,
3.634,-13.05,27.23,-12.00,-2.32,-0.16,1.37,
3.637,-22.98,23.33,2.78,-2.32,-0.16,1.37,
3.639,-22.98,23.33,2.78,-1.92,0.24,2.26,
3.639,-26.90,11.31,17.46,-1.92,0.24,2.26,
3.639,-26.90,11.31,17.46,-1.43,0.72,3.20,
3.64,-26.90,11.31,17.46,-0.97,1.00,3.96,
3.643,-26.90,11.31,17.46,-0.61,0.99,4.31,
3.643,-7.36,-2.77,18.11,-0.61,0.99,4.31,
3.646,-7.36,-2.77,18.11,-0.41,0.70,4.33,
3.648,5.12,-10.17,8.91,-0.41,0.70,4.33,
3.648,5.12,-10.17,8.91,-0.41,0.19,4.16,
3.652,5.12,-10.17,8.91,-0.54,-0.45,3.90,
3.653,5.12,-10.17,8.91,-0.69,-1.04,3.65,
3.653,5.97,-14.12,1.84,-0.69,-1.04,3.65,
3.655,5.97,-14.12,1.84,-0.78,-1.46,3.42,
3.659,5.07,-16.14,-0.28,-0.78,-1.46,3.42,
3.66,5.07,-16.14,-0.28,-0.80,-1.66,3.24,
3.66,5.07,-16.14,-0.28,-0.80,-1.65,3.12,
3.662,5.35,-15.68,-1.74,-0.80,-1.65,3.12,
3.663,5.35,-15.68,-1.74,-0.83,-1.45,3.04,
3.665,5.35,-15.68,-1.74,-0.89,-1.12,2.98,
3.673,5.35,-15.68,-1.74,-0.96,-0.75,2.93,
3.682,7.48,-13.02,-1.73,-0.96,-0.75,2.93,
3.682,7.48,-13.02,-1.73,-1.03,-0.36,2.84,
3.683,10.36,-8.52,-0.28,-1.03,-0.36,2.84,
3.683,10.36,-8.52,-0.28,-1.07,-0.01,2.71,
3.683,10.36,-8.52,-0.28,-1.09,0.26,2.53,
3.683,11.88,-3.30,1.24,-1.09,0.26,2.53,
3.683,11.88,-3.30,1.24,-1.09,0.45,2.32,
3.684,11.88,-3.30,1.24,-1.06,0.58,2.09,
3.684,11.99,1.38,1.19,-1.06,0.58,2.09,
3.684,11.99,1.38,1.19,-1.02,0.67,1.85,
3.685,11.99,1.38,1.19,-0.97,0.70,1.61,
3.689,10.97,4.62,-0.31,-0.97,0.70,1.61,
3.69,10.97,4.62,-0.31,-0.93,0.67,1.40,
3.691,10.97,4.62,-0.31,-0.90,0.59,1.22,
3.693,9.23,6.54,-1.55,-0.90,0.59,1.22,
3.693,9.23,6.54,-1.55,-0.89,0.49,1.06,
3.695,9.23,6.54,-1.55,-0.88,0.38,0.95,
3.697,9.23,6.54,-1.55,-0.85,0.32,0.89,
3.697,5.66,6.56,-0.98,-0.85,0.32,0.89,
3.7,5.66,6.56,-0.98,-0.80,0.32,0.86,
3.706,5.66,6.56,-0.98,-0.76,0.39,0.87,
3.706,2.27,4.66,0.84,-0.76,0.39,0.87,
3.707,2.27,4.66,0.84,-0.70,0.47,0.89,
3.707,2.27,4.66,0.84,-0.62,0.56,0.92,
3.707,-0.59,1.98,2.50,-0.62,0.56,0.92,
3.709,-0.59,1.98,2.50,-0.56,0.62,0.96,
3.713,-0.59,1.98,2.50,-0.52,0.62,1.00,
3.713,-2.11,-0.98,2.30,-0.52,0.62,1.00,
3.714,-2.11,-0.98,2.30,-0.49,0.56,1.03,
3.717,-2.11,-0.98,2.30,-0.49,0.43,1.04,
3.718,-2.38,-3.27,1.37,-0.49,0.43,1.04,
3.72,-2.38,-3.27,1.37,-0.50,0.29,1.03,
3.723,-2.04,-4.37,0.84,-0.50,0.29,1.03,
3.723,-2.04,-4.37,0.84,-0.52,0.15,1.01,
3.724,-2.04,-4.37,0.84,-0.54,0.04,0.97,
3.727,-2.04,-4.37,0.84,-0.55,-0.03,0.94,
3.727,-1.71,-3.91,1.42,-0.55,-0.03,0.94,
3.729,-1.71,-3.91,1.42,-0.54,-0.07,0.91,
3.732,-0.82,-2.48,2.31,-0.54,-0.07,0.91,
3.732,-0.82,-2.48,2.31,-0.53,-0.10,0.90,
3.74,-0.82,-2.48,2.31,-0.51,-0.13,0.89,
3.741,0.63,-1.00,2.55,-0.51,-0.13,0.89,
3.741,0.63,-1.00,2.55,-0.48,-0.18,0.88,
3.741,0.63,-1.00,2.55,-0.46,-0.24,0.86,
3.742,0.63,-1.00,2.55,-0.44,-0.28,0.84,
3.742,1.85,0.22,1.73,-0.44,-0.28,0.84,
3.744,1.85,0.22,1.73,-0.42,-0.31,0.81,
3.747,2.58,0.98,0.89,-0.42,-0.31,0.81,
3.747,2.58,0.98,0.89,-0.40,-0.32,0.77,
3.749,2.58,0.98,0.89,-0.39,-0.30,0.73,
3.752,2.58,0.98,0.89,-0.38,-0.26,0.69,
3.752,2.80,1.20,0.13,-0.38,-0.26,0.69,
3.754,2.80,1.20,0.13,-0.36,-0.18,0.65,
3.756,2.80,1.20,0.13,-0.33,-0.09,0.61,
3.756,2.85,1.05,-0.21,-0.33,-0.09,0.61,
3.759,2.85,1.05,-0.21,-0.31,-0.01,0.58,
3.761,2.85,1.05,-0.21,-0.29,0.05,0.55,
3.761,2.69,0.72,-0.19,-0.29,0.05,0.55,
3.764,2.69,0.72,-0.19,-0.28,0.12,0.52,
3.766,2.69,0.72,-0.19,-0.26,0.19,0.49,
3.768,2.30,0.41,-0.07,-0.26,0.19,0.49,
3.77,2.30,0.41,-0.07,-0.23,0.27,0.46,
3.772,2.30,0.41,-0.07,-0.21,0.37,0.43,
3.772,1.87,0.32,0.13,-0.21,0.37,0.43,
3.784,1.87,0.32,0.13,-0.19,0.46,0.40,
3.784,1.87,0.32,0.13,-0.17,0.55,0.38,
3.784,1.29,0.37,0.69,-0.17,0.55,0.38,
3.784,1.29,0.37,0.69,-0.15,0.61,0.37,
3.784,0.46,0.42,1.15,-0.15,0.61,0.37,
3.784,0.46,0.42,1.15,-0.14,0.66,0.36,
3.784,0.46,0.42,1.15,-0.13,0.70,0.35,
3.787,0.46,0.42,1.15,-0.12,0.72,0.35,
3.788,-0.68,0.33,1.24,-0.12,0.72,0.35,
3.789,-0.68,0.33,1.24,-0.11,0.75,0.36,
3.791,-0.68,0.33,1.24,-0.10,0.76,0.38,
3.791,-1.80,0.20,0.89,-0.10,0.76,0.38,
3.793,-1.80,0.20,0.89,-0.09,0.76,0.40,
3.796,-2.35,0.28,0.47,-0.09,0.76,0.40,
3.796,-2.35,0.28,0.47,-0.09,0.75,0.43,
3.798,-2.35,0.28,0.47,-0.09,0.74,0.46,
3.801,-2.35,0.28,0.47,-0.10,0.73,0.49,
3.802,-2.43,0.56,0.06,-0.10,0.73,0.49,
3.804,-2.43,0.56,0.06,-0.10,0.72,0.52,
3.806,-2.43,0.56,0.06,-0.12,0.70,0.55,
3.806,-2.42,0.89,-0.45,-0.12,0.70,0.55,
3.808,-2.42,0.89,-0.45,-0.13,0.67,0.59,
3.811,-2.42,0.89,-0.45,-0.15,0.62,0.61,
3.811,-2.19,1.16,-0.67,-0.15,0.62,0.61,
3.814,-2.19,1.16,-0.67,-0.16,0.56,0.63,
3.816,-2.19,1.16,-0.67,-0.18,0.50,0.66,
3.816,-1.93,1.34,-0.58,-0.18,0.50,0.66,
3.819,-1.93,1.34,-0.58,-0.19,0.45,0.68,
3.822,-1.60,1.41,-0.94,-0.19,0.45,0.68,
3.822,-1.60,1.41,-0.94,-0.20,0.42,0.70,
3.823,-1.60,1.41,-0.94,-0.21,0.40,0.71,
3.826,-1.34,1.50,-1.62,-0.21,0.40,0.71,
3.826,-1.34,1.50,-1.62,-0.24,0.41,0.73,
3.829,-1.34,1.50,-1.62,-0.27,0.44,0.75,
3.831,-1.26,1.53,-1.83,-0.27,0.44,0.75,
3.831,-1.26,1.53,-1.83,-0.29,0.48,0.76,
3.835,-1.26,1.53,-1.83,-0.31,0.52,0.77,
3.837,-1.29,1.78,-1.91,-0.31,0.52,0.77,
3.837,-1.29,1.78,-1.91,-0.35,0.58,0.79,
3.844,-1.29,1.78,-1.91,-0.39,0.63,0.80,
3.845,-1.29,1.78,-1.91,-0.41,0.67,0.82,
3.845,-1.57,2.00,-1.22,-0.41,0.67,0.82,
3.845,-1.57,2.00,-1.22,-0.41,0.70,0.84,
3.846,-2.10,2.20,-1.48,-0.41,0.70,0.84,
3.846,-2.10,2.20,-1.48,-0.43,0.72,0.86,
3.857,-2.10,2.20,-1.48,-0.47,0.73,0.89,
3.859,-2.10,2.20,-1.48,-0.52,0.74,0.92,
3.859,-2.60,2.45,-1.99,-0.52,0.74,0.92,
3.86,-2.60,2.45,-1.99,-0.56,0.75,0.95,
3.86,-3.06,2.33,-1.66,-0.56,0.75,0.95,
3.861,-3.06,2.33,-1.66,-0.58,0.79,0.98,
3.861,-3.06,2.33,-1.66,-0.59,0.83,1.02,
3.862,-3.15,1.87,-1.39,-0.59,0.83,1.02,
3.862,-3.15,1.87,-1.39,-0.62,0.85,1.06,
3.864,-3.15,1.87,-1.39,-0.64,0.84,1.10,
3.867,-3.15,1.87,-1.39,-0.65,0.79,1.15,
3.867,-2.72,1.15,-1.11,-0.65,0.79,1.15,
3.871,-2.72,1.15,-1.11,-0.66,0.75,1.19,
3.872,-2.03,0.61,-1.44,-0.66,0.75,1.19,
3.874,-2.03,0.61,-1.44,-0.68,0.71,1.22,
3.874,-2.03,0.61,-1.44,-0.70,0.70,1.24,
3.876,-1.53,0.35,-1.80,-0.70,0.70,1.24,
3.876,-1.53,0.35,-1.80,-0.73,0.71,1.25,
3.878,-1.53,0.35,-1.80,-0.75,0.72,1.27,
3.881,-1.37,0.40,-1.90,-0.75,0.72,1.27,
3.881,-1.37,0.40,-1.90,-0.78,0.75,1.29,
3.883,-1.37,0.40,-1.90,-0.81,0.77,1.31,
3.886,-1.37,0.40,-1.90,-0.84,0.80,1.33,
3.886,-1.25,0.74,-1.72,-0.84,0.80,1.33,
3.889,-1.25,0.74,-1.72,-0.88,0.84,1.35,
3.891,-1.26,1.28,-1.05,-0.88,0.84,1.35,
3.891,-1.26,1.28,-1.05,-0.91,0.88,1.37,
3.893,-1.26,1.28,-1.05,-0.92,0.92,1.38,
3.895,-1.58,1.62,-0.95,-0.92,0.92,1.38,
3.895,-1.58,1.62,-0.95,-0.94,0.95,1.39,
3.898,-1.58,1.62,-0.95,-0.96,0.96,1.41,
3.901,-1.58,1.62,-0.95,-0.99,0.96,1.43,
3.901,-1.98,1.49,-0.99,-0.99,0.96,1.43,
3.903,-1.98,1.49,-0.99,-1.01,0.95,1.45,
3.905,-1.98,1.49,-0.99,-1.03,0.92,1.48,
3.905,-1.99,1.07,-0.57,-1.03,0.92,1.48,
3.907,-1.99,1.07,-0.57,-1.06,0.89,1.50,
3.91,-1.76,0.65,-0.03,-1.06,0.89,1.50,
3.91,-1.76,0.65,-0.03,-1.08,0.85,1.52,
3.912,-1.76,0.65,-0.03,-1.09,0.82,1.54,
3.915,-1.68,0.45,-0.21,-1.09,0.82,1.54,
3.915,-1.68,0.45,-0.21,-1.11,0.79,1.54,
3.917,-1.68,0.45,-0.21,-1.13,0.77,1.55,
3.921,-1.86,0.62,-0.59,-1.13,0.77,1.55,
3.921,-1.86,0.62,-0.59,-1.16,0.76,1.56,
3.923,-1.86,0.62,-0.59,-1.18,0.76,1.58,
3.925,-2.03,0.91,-0.83,-1.18,0.76,1.58,
3.926,-2.03,0.91,-0.83,-1.20,0.78,1.59,
3.928,-2.03,0.91,-0.83,-1.22,0.79,1.62,
3.93,-2.06,1.26,-1.05,-1.22,0.79,1.62,
3.931,-2.06,1.26,-1.05,-1.24,0.81,1.65,
3.933,-2.06,1.26,-1.05,-1.25,0.83,1.67,
3.937,-2.00,1.24,-1.17,-1.25,0.83,1.67,
3.937,-2.00,1.24,-1.17,-1.26,0.85,1.70,
3.939,-2.00,1.24,-1.17,-1.26,0.85,1.71,
3.971,-2.00,1.24,-1.17,-1.27,0.83,1.73,
3.971,-1.84,0.79,-1.27,-1.27,0.83,1.73,
3.972,-1.84,0.79,-1.27,-1.29,0.78,1.74,
3.972,-1.74,0.29,-1.19,-1.29,0.78,1.74,
3.972,-1.74,0.29,-1.19,-1.30,0.73,1.75,
3.973,-1.74,0.29,-1.19,-1.32,0.69,1.77,
3.973,-1.74,0.29,-1.19,-1.32,0.66,1.78,
3.973,-1.62,-0.06,-0.82,-1.32,0.66,1.78,
3.973,-1.62,-0.06,-0.82,-1.33,0.65,1.80,
3.974,-1.62,-0.06,-0.82,-1.33,0.65,1.82,
3.974,-1.38,-0.24,-0.80,-1.33,0.65,1.82,
3.974,-1.38,-0.24,-0.80,-1.34,0.65,1.83,
3.974,-0.94,-0.34,-1.15,-1.34,0.65,1.83,
3.975,-0.94,-0.34,-1.15,-1.35,0.66,1.84,
3.975,-0.94,-0.34,-1.15,-1.37,0.67,1.84,
3.975,-0.94,-0.34,-1.15,-1.38,0.68,1.84,
3.975,-0.59,-0.28,-1.05,-1.38,0.68,1.84,
3.976,-0.59,-0.28,-1.05,-1.40,0.70,1.84,
3.976,-0.59,-0.28,-1.05,-1.41,0.72,1.84,
3.976,-0.52,-0.18,-0.86,-1.41,0.72,1.84,
3.976,-0.52,-0.18,-0.86,-1.42,0.76,1.83,
3.977,-0.52,-0.18,-0.86,-1.43,0.78,1.83,
3.977,-0.69,-0.23,-0.62,-1.43,0.78,1.83,
3.977,-0.69,-0.23,-0.62,-1.44,0.80,1.83,
3.982,-0.69,-0.23,-0.62,-1.46,0.82,1.84,
3.982,-0.83,-0.33,-0.18,-1.46,0.82,1.84,
3.982,-0.83,-0.33,-0.18,-1.47,0.84,1.85,
3.985,-0.83,-0.33,-0.18,-1.48,0.86,1.86,
3.985,-0.88,-0.20,0.22,-1.48,0.86,1.86,
3.989,-0.88,-0.20,0.22,-1.49,0.89,1.88,
3.99,-0.88,-0.20,0.22,-1.51,0.91,1.89,
3.99,-0.83,0.25,-0.04,-1.51,0.91,1.89,
3.992,-0.83,0.25,-0.04,-1.54,0.93,1.90,
3.994,-0.83,0.25,-0.04,-1.57,0.96,1.90,
3.995,-1.05,1.11,-0.62,-1.57,0.96,1.90,
3.997,-1.05,1.11,-0.62,-1.59,0.97,1.90,
3.999,-1.05,1.11,-0.62,-1.62,0.98,1.90,
4.0,-1.76,2.19,-1.02,-1.62,0.98,1.90,
4.003,-1.76,2.19,-1.02,-1.65,0.96,1.90,
4.004,-1.76,2.19,-1.02,-1.67,0.94,1.91,
4.005,-2.98,3.09,-1.51,-1.67,0.94,1.91,
4.007,-2.98,3.09,-1.51,-1.70,0.90,1.92,
4.009,-2.98,3.09,-1.51,-1.72,0.83,1.93,
4.01,-4.17,3.20,-1.66,-1.72,0.83,1.93,
4.011,-4.17,3.20,-1.66,-1.73,0.74,1.97,
4.014,-4.17,3.20,-1.66,-1.74,0.64,2.02,
4.014,-4.80,2.33,-1.50,-1.74,0.64,2.02,
4.016,-4.80,2.33,-1.50,-1.75,0.55,2.08,
4.02,-4.16,1.11,-1.34,-1.75,0.55,2.08,
4.02,-4.16,1.11,-1.34,-1.75,0.48,2.15,
4.022,-4.16,1.11,-1.34,-1.75,0.41,2.20,
4.024,-4.16,1.11,-1.34,-1.75,0.35,2.23,
4.024,-2.78,0.18,-1.54,-1.75,0.35,2.23,
4.026,-2.78,0.18,-1.54,-1.74,0.31,2.25,
4.029,-2.78,0.18,-1.54,-1.74,0.30,2.26,
4.029,-1.65,-0.30,-2.10,-1.74,0.30,2.26,
4.031,-1.65,-0.30,-2.10,-1.74,0.31,2.27,
4.04,-1.65,-0.30,-2.10,-1.75,0.34,2.28,
4.04,-0.71,-0.78,-2.01,-1.75,0.34,2.28,
4.04,-0.71,-0.78,-2.01,-1.75,0.38,2.29,
4.041,-0.71,-0.78,-2.01,-1.75,0.43,2.29,
4.041,0.36,-1.33,-1.20,-1.75,0.43,2.29,
4.041,0.36,-1.33,-1.20,-1.74,0.47,2.29,
4.044,0.36,-1.33,-1.20,-1.73,0.52,2.28,
4.044,1.11,-1.45,-0.87,-1.73,0.52,2.28,
4.046,1.11,-1.45,-0.87,-1.73,0.57,2.27,
4.049,1.19,-0.97,-1.37,-1.73,0.57,2.27,
4.049,1.19,-0.97,-1.37,-1.74,0.65,2.26,
4.053,1.19,-0.97,-1.37,-1.75,0.74,2.25,
4.054,0.82,-0.18,-1.63,-1.75,0.74,2.25,
4.054,0.82,-0.18,-1.63,-1.77,0.83,2.24,
4.056,0.82,-0.18,-1.63,-1.79,0.92,2.22,
4.059,0.27,0.41,-1.39,-1.79,0.92,2.22,
4.059,0.27,0.41,-1.39,-1.81,0.99,2.20,
4.061,0.27,0.41,-1.39,-1.83,1.03,2.19,
4.064,0.27,0.41,-1.39,-1.85,1.07,2.19,
4.064,-0.96,1.30,-0.97,-1.85,1.07,2.19,
4.066,-0.96,1.30,-0.97,-1.87,1.09,2.20,
4.069,-0.96,1.30,-0.97,-1.89,1.12,2.20,
4.069,-2.06,2.07,-1.06,-1.89,1.12,2.20,
4.074,-3.14,2.82,-1.31,-1.89,1.12,2.20,
4.074,-3.14,2.82,-1.31,-1.91,1.13,2.21,
4.074,-3.14,2.82,-1.31,-1.94,1.11,2.23,
4.076,-3.14,2.82,-1.31,-1.97,1.07,2.26,
4.078,-3.14,2.82,-1.31,-2.00,1.02,2.29,
4.079,-4.04,3.44,-1.69,-2.00,1.02,2.29,
4.081,-4.04,3.44,-1.69,-2.03,0.98,2.32,
4.084,-4.04,3.44,-1.69,-2.05,0.95,2.36,
4.084,-4.47,3.60,-1.71,-2.05,0.95,2.36,
4.086,-4.47,3.60,-1.71,-2.06,0.91,2.41,
4.089,-4.10,2.97,-1.23,-2.06,0.91,2.41,
4.089,-4.10,2.97,-1.23,-2.06,0.87,2.46,
4.091,-4.10,2.97,-1.23,-2.06,0.81,2.49,
4.093,-4.10,2.97,-1.23,-2.07,0.77,2.51,
4.094,-3.34,1.73,-1.17,-2.07,0.77,2.51,
4.096,-3.34,1.73,-1.17,-2.08,0.73,2.53,
4.099,-2.59,0.58,-0.67,-2.08,0.73,2.53,
4.099,-2.59,0.58,-0.67,-2.08,0.69,2.55,
4.101,-2.59,0.58,-0.67,-2.08,0.67,2.56,
4.104,-1.86,0.21,-0.50,-2.08,0.67,2.56,
4.125,-1.86,0.21,-0.50,-2.07,0.68,2.57,
4.125,-1.86,0.21,-0.50,-2.07,0.72,2.58,
4.125,-1.28,0.27,-0.83,-2.07,0.72,2.58,
4.125,-1.28,0.27,-0.83,-2.07,0.77,2.57,
4.126,-1.28,0.27,-0.83,-2.07,0.82,2.56,
4.126,-1.28,0.27,-0.83,-2.08,0.87,2.55,
4.126,-1.01,0.10,-0.62,-2.08,0.87,2.55,
4.126,-1.01,0.10,-0.62,-2.09,0.92,2.53,
4.127,-1.01,0.10,-0.62,-2.09,0.97,2.51,
4.127,-0.96,-0.40,0.43,-2.09,0.97,2.51,
4.127,-0.96,-0.40,0.43,-2.08,0.99,2.50,
4.127,-0.96,-0.40,0.43,-2.08,1.01,2.48,
4.128,-1.27,-0.43,1.22,-2.08,1.01,2.48,
4.128,-1.27,-0.43,1.22,-2.07,1.06,2.47,
4.13,-2.13,0.77,0.95,-2.07,1.06,2.47,
4.131,-2.13,0.77,0.95,-2.07,1.09,2.48,
4.131,-2.13,0.77,0.95,-2.07,1.12,2.48,
4.133,-3.17,2.67,-0.06,-2.07,1.12,2.48,
4.134,-3.17,2.67,-0.06,-2.08,1.14,2.49,
4.137,-3.17,2.67,-0.06,-2.10,1.15,2.51,
4.138,-3.17,2.67,-0.06,-2.11,1.16,2.53,
4.139,-4.43,4.56,-0.94,-2.11,1.16,2.53,
4.14,-4.43,4.56,-0.94,-2.13,1.18,2.56,
4.143,-4.43,4.56,-0.94,-2.15,1.17,2.59,
4.144,-5.16,6.20,-0.97,-2.15,1.17,2.59,
4.146,-5.16,6.20,-0.97,-2.17,1.16,2.64,
4.148,-5.64,7.90,-1.20,-2.17,1.16,2.64,
4.149,-5.64,7.90,-1.20,-2.19,1.13,2.70,
4.155,-5.64,7.90,-1.20,-2.20,1.08,2.76,
4.163,-6.11,10.17,-2.42,-2.20,1.08,2.76,
4.164,-6.11,10.17,-2.42,-2.22,1.04,2.81,
4.164,-6.11,10.17,-2.42,-2.25,1.00,2.87,
4.164,-6.11,10.17,-2.42,-2.29,0.95,2.93,
4.166,-6.52,12.45,-3.92,-2.29,0.95,2.93,
4.166,-6.52,12.45,-3.92,-2.32,0.89,3.00,
4.166,-6.66,14.29,-5.19,-2.32,0.89,3.00,
4.166,-6.66,14.29,-5.19,-2.35,0.84,3.07,
4.167,-6.66,14.29,-5.19,-2.38,0.80,3.14,
4.174,-6.52,15.26,-5.76,-2.38,0.80,3.14,
4.174,-6.52,15.26,-5.76,-2.40,0.76,3.21,
4.174,-6.52,15.26,-5.76,-2.42,0.72,3.29,
4.175,-5.94,15.42,-6.03,-2.42,0.72,3.29,
4.175,-5.94,15.42,-6.03,-2.42,0.68,3.36,
4.175,-5.94,15.42,-6.03,-2.41,0.66,3.42,
4.178,-5.58,15.11,-7.05,-2.41,0.66,3.42,
4.179,-5.58,15.11,-7.05,-2.40,0.66,3.48,
4.18,-5.58,15.11,-7.05,-2.38,0.69,3.53,
4.183,-5.58,15.11,-7.05,-2.37,0.72,3.56,
4.183,-5.57,14.25,-8.58,-2.37,0.72,3.56,
4.185,-5.57,14.25,-8.58,-2.36,0.74,3.57,
4.188,-5.57,14.25,-8.58,-2.36,0.76,3.57,
4.189,-5.73,13.13,-10.02,-2.36,0.76,3.57,
4.19,-5.73,13.13,-10.02,-2.38,0.78,3.57,
4.193,-5.73,13.13,-10.02,-2.41,0.81,3.58,
4.193,-6.21,12.02,-10.28,-2.41,0.81,3.58,
4.195,-6.21,12.02,-10.28,-2.43,0.85,3.59,
4.198,-6.21,12.02,-10.28,-2.43,0.88,3.60,
4.198,-6.67,10.94,-9.00,-2.43,0.88,3.60,
4.2,-6.67,10.94,-9.00,-2.41,0.89,3.62,
4.203,-6.67,10.94,-9.00,-2.37,0.89,3.63,
4.203,-7.19,9.95,-8.06,-2.37,0.89,3.63,
4.205,-7.19,9.95,-8.06,-2.34,0.87,3.62,
4.208,-7.19,9.95,-8.06,-2.30,0.85,3.62,
4.208,-8.07,9.09,-8.46,-2.30,0.85,3.62,
4.21,-8.07,9.09,-8.46,-2.28,0.83,3.60,
4.212,-8.07,9.09,-8.46,-2.26,0.81,3.58,
4.212,-8.99,8.39,-9.38,-2.26,0.81,3.58,
4.215,-8.99,8.39,-9.38,-2.25,0.79,3.56,
4.218,-9.98,7.80,-9.90,-2.25,0.79,3.56,
4.218,-9.98,7.80,-9.90,-2.24,0.77,3.52,
4.22,-9.98,7.80,-9.90,-2.23,0.73,3.49,
4.222,-9.98,7.80,-9.90,-2.21,0.67,3.46,
4.223,-10.64,7.28,-9.45,-2.21,0.67,3.46,
4.225,-10.64,7.28,-9.45,-2.19,0.59,3.42,
4.227,-10.64,7.28,-9.45,-2.17,0.47,3.37,
4.227,-10.11,6.69,-9.14,-2.17,0.47,3.37,
4.231,-10.11,6.69,-9.14,-2.16,0.30,3.30,
4.232,-10.11,6.69,-9.14,-2.14,0.10,3.21,
4.232,-8.98,6.50,-9.07,-2.14,0.10,3.21,
4.242,-8.98,6.50,-9.07,-2.12,-0.08,3.10,
4.243,-8.98,6.50,-9.07,-2.11,-0.20,2.96,
4.243,-7.87,6.20,-8.54,-2.11,-0.20,2.96,
4.243,-7.87,6.20,-8.54,-2.10,-0.23,2.82,
4.246,-6.68,4.91,-6.62,-2.10,-0.23,2.82,
4.247,-6.68,4.91,-6.62,-2.07,-0.18,2.68,
4.247,-6.68,4.91,-6.62,-2.04,-0.07,2.56,
4.247,-6.68,4.91,-6.62,-2.04,0.10,2.45,
4.248,-5.28,3.12,-2.99,-2.04,0.10,2.45,
4.25,-5.28,3.12,-2.99,-2.10,0.30,2.39,
4.256,-5.28,3.12,-2.99,-2.15,0.51,2.37,
4.256,-3.40,1.23,1.70,-2.15,0.51,2.37,
4.256,-3.40,1.23,1.70,-2.16,0.69,2.38,
4.257,-1.26,-0.31,5.79,-2.16,0.69,2.38,
4.257,-1.26,-0.31,5.79,-2.09,0.80,2.41,
4.259,-1.26,-0.31,5.79,-1.97,0.86,2.47,
4.262,0.78,-0.98,6.90,-1.97,0.86,2.47,
4.262,0.78,-0.98,6.90,-1.81,0.86,2.53,
4.264,0.78,-0.98,6.90,-1.63,0.84,2.58,
4.267,0.78,-0.98,6.90,-1.41,0.80,2.59,
4.268,1.98,-1.73,4.51,-1.41,0.80,2.59,
4.289,1.98,-1.73,4.51,-1.18,0.75,2.51,
4.29,1.98,-1.73,4.51,-0.99,0.69,2.34,
4.29,3.32,-2.85,-0.98,-0.99,0.69,2.34,
4.291,3.32,-2.85,-0.98,-0.88,0.61,2.09,
4.291,3.32,-2.85,-0.98,-0.89,0.51,1.78,
4.292,4.20,-3.28,-6.57,-0.89,0.51,1.78,
4.292,4.20,-3.28,-6.57,-0.98,0.38,1.43,
4.292,4.20,-3.28,-6.57,-1.11,0.18,1.04,
4.293,4.98,-2.18,-9.06,-1.11,0.18,1.04,
4.293,4.98,-2.18,-9.06,-1.28,-0.08,0.61,
4.294,4.98,-2.18,-9.06,-1.45,-0.33,0.16,
4.294,5.91,-0.21,-9.54,-1.45,-0.33,0.16,
4.295,5.91,-0.21,-9.54,-1.62,-0.55,-0.31,
4.295,5.91,-0.21,-9.54,-1.74,-0.74,-0.75,
4.295,5.94,1.86,-7.63,-1.74,-0.74,-0.75,
4.296,5.94,1.86,-7.63,-1.81,-0.92,-1.15,
4.297,5.94,1.86,-7.63,-1.82,-1.02,-1.46,
4.297,3.72,3.94,-4.62,-1.82,-1.02,-1.46,
4.299,3.72,3.94,-4.62,-1.78,-1.00,-1.68,
4.302,3.72,3.94,-4.62,-1.69,-0.88,-1.81,
4.303,1.70,4.29,-2.04,-1.69,-0.88,-1.81,
4.304,1.70,4.29,-2.04,-1.55,-0.71,-1.87,
4.306,1.70,4.29,-2.04,-1.36,-0.52,-1.90,
4.307,1.60,2.65,0.50,-1.36,-0.52,-1.90,
4.309,1.60,2.65,0.50,-1.15,-0.34,-1.95,
4.312,1.60,2.65,0.50,-0.95,-0.18,-2.03,
4.312,2.93,-0.19,1.45,-0.95,-0.18,-2.03,
4.314,2.93,-0.19,1.45,-0.75,-0.07,-2.16,
4.317,2.93,-0.19,1.45,-0.57,-0.05,-2.33,
4.317,4.37,-2.65,0.69,-0.57,-0.05,-2.33,
4.32,4.37,-2.65,0.69,-0.42,-0.09,-2.53,
4.322,4.43,-4.20,-1.05,-0.42,-0.09,-2.53,
4.322,4.43,-4.20,-1.05,-0.31,-0.17,-2.75,
4.324,4.43,-4.20,-1.05,-0.21,-0.23,-2.96,
4.326,2.82,-4.74,-1.72,-0.21,-0.23,-2.96,
4.327,2.82,-4.74,-1.72,-0.13,-0.28,-3.17,
4.329,2.82,-4.74,-1.72,-0.04,-0.30,-3.35,
4.331,2.82,-4.74,-1.72,0.06,-0.28,-3.50,
4.331,0.70,-4.84,-1.11,0.06,-0.28,-3.50,
4.334,0.70,-4.84,-1.11,0.18,-0.22,-3.63,
4.338,0.70,-4.84,-1.11,0.31,-0.15,-3.74,
4.342,-0.26,-5.13,-0.21,0.31,-0.15,-3.74,
4.342,-0.26,-5.13,-0.21,0.46,-0.07,-3.84,
4.342,-0.26,-5.13,-0.21,0.62,-0.00,-3.92,
4.343,-0.62,-4.63,0.42,0.62,-0.00,-3.92,
4.349,-0.62,-4.63,0.42,0.78,0.04,-4.00,
4.349,-0.62,-4.63,0.42,0.95,0.05,-4.08,
4.349,-0.62,-4.63,0.42,1.10,0.05,-4.17,
4.35,-0.29,-4.26,0.62,1.10,0.05,-4.17,
4.351,-0.29,-4.26,0.62,1.25,0.05,-4.27,
4.356,-0.29,-4.26,0.62,1.39,0.03,-4.37,
4.356,-0.19,-4.26,0.28,1.39,0.03,-4.37,
4.356,-0.19,-4.26,0.28,1.53,0.00,-4.47,
4.356,-0.61,-4.49,0.01,1.53,0.00,-4.47,
4.359,-0.61,-4.49,0.01,1.66,-0.05,-4.56,
4.362,-1.36,-4.71,0.15,1.66,-0.05,-4.56,
4.363,-1.36,-4.71,0.15,1.77,-0.13,-4.66,
4.364,-1.36,-4.71,0.15,1.88,-0.21,-4.75,
4.366,-1.36,-4.71,0.15,2.00,-0.30,-4.83,
4.366,-2.43,-4.72,0.33,2.00,-0.30,-4.83,
4.369,-2.43,-4.72,0.33,2.11,-0.38,-4.90,
4.371,-2.43,-4.72,0.33,2.22,-0.45,-4.95,
4.371,-3.56,-4.50,0.49,2.22,-0.45,-4.95,
4.374,-3.56,-4.50,0.49,2.34,-0.49,-5.00,
4.376,-4.17,-4.29,0.33,2.34,-0.49,-5.00,
4.376,-4.17,-4.29,0.33,2.46,-0.50,-5.05,
4.378,-4.17,-4.29,0.33,2.57,-0.51,-5.09,
4.381,-4.37,-3.90,0.10,2.57,-0.51,-5.09,
4.381,-4.37,-3.90,0.10,2.69,-0.51,-5.12,
4.383,-4.37,-3.90,0.10,2.80,-0.52,-5.14,
4.386,-4.27,-3.54,-0.32,2.80,-0.52,-5.14,
4.387,-4.27,-3.54,-0.32,2.90,-0.55,-5.17,
4.388,-4.27,-3.54,-0.32,3.00,-0.60,-5.19,
4.391,-3.65,-3.42,-0.77,3.00,-0.60,-5.19,
4.391,-3.65,-3.42,-0.77,3.09,-0.66,-5.24,
4.393,-3.65,-3.42,-0.77,3.17,-0.73,-5.29,
4.396,-4.02,-3.24,-1.17,3.17,-0.73,-5.29,
4.396,-4.02,-3.24,-1.17,3.25,-0.79,-5.33,
4.399,-4.02,-3.24,-1.17,3.32,-0.82,-5.36,
4.403,-4.02,-3.24,-1.17,3.38,-0.83,-5.38,
4.405,-4.51,-3.12,-1.95,3.38,-0.83,-5.38,
4.405,-4.51,-3.12,-1.95,3.43,-0.80,-5.39,
4.406,-4.78,-3.27,-2.02,3.43,-0.80,-5.39,
4.407,-4.78,-3.27,-2.02,3.49,-0.81,-5.40,
4.409,-4.78,-3.27,-2.02,3.55,-0.84,-5.41,
4.411,-4.78,-3.27,-2.02,3.61,-0.89,-5.42,
4.412,-4.63,-3.51,-1.48,3.61,-0.89,-5.42,
4.413,-4.63,-3.51,-1.48,3.67,-0.93,-5.44,
4.416,-4.46,-3.41,-1.65,3.67,-0.93,-5.44,
4.417,-4.46,-3.41,-1.65,3.73,-0.96,-5.45,
4.421,-4.46,-3.41,-1.65,3.78,-0.95,-5.47,
4.422,-4.20,-3.29,-1.94,3.78,-0.95,-5.47,
4.422,-4.20,-3.29,-1.94,3.82,-0.93,-5.49,
4.425,-4.20,-3.29,-1.94,3.87,-0.91,-5.50,
4.426,-3.77,-3.30,-1.89,3.87,-0.91,-5.50,
4.427,-3.77,-3.30,-1.89,3.91,-0.89,-5.50,
4.429,-3.77,-3.30,-1.89,3.94,-0.86,-5.51,
4.431,-3.77,-3.30,-1.89,3.98,-0.83,-5.53,
4.432,-2.88,-3.39,-1.77,3.98,-0.83,-5.53,
4.433,-2.88,-3.39,-1.77,4.02,-0.78,-5.56,
4.451,-2.88,-3.39,-1.77,4.06,-0.70,-5.59,
4.451,-2.10,-3.23,-2.30,4.06,-0.70,-5.59,
4.451,-2.10,-3.23,-2.30,4.09,-0.60,-5.63,
4.451,-1.55,-2.86,-2.86,4.09,-0.60,-5.63,
4.451,-1.55,-2.86,-2.86,4.12,-0.50,-5.67,
4.452,-1.55,-2.86,-2.86,4.15,-0.40,-5.70,
4.453,-1.39,-2.56,-3.18,4.15,-0.40,-5.70,
4.453,-1.39,-2.56,-3.18,4.16,-0.28,-5.72,
4.453,-1.39,-2.56,-3.18,4.17,-0.17,-5.74,
4.454,-1.39,-2.56,-3.18,4.18,-0.05,-5.76,
4.454,-1.53,-2.46,-3.00,4.18,-0.05,-5.76,
4.46,-1.53,-2.46,-3.00,4.19,0.08,-5.77,
4.465,-1.53,-2.46,-3.00,4.18,0.22,-5.78,
4.465,-1.63,-2.49,-2.93,4.18,0.22,-5.78,
4.465,-1.63,-2.49,-2.93,4.18,0.34,-5.79,
4.465,-1.63,-2.49,-2.93,4.21,0.42,-5.78,
4.466,-1.63,-2.49,-2.93,4.23,0.44,-5.77,
4.466,-1.93,-2.25,-1.49,4.23,0.44,-5.77,
4.466,-1.93,-2.25,-1.49,4.24,0.45,-5.76,
4.466,-2.05,-1.74,-0.38,4.24,0.45,-5.76,
4.481,-2.05,-1.74,-0.38,4.27,0.46,-5.75,
4.481,-2.05,-1.74,-0.38,4.29,0.45,-5.73,
4.481,-2.39,-1.43,0.40,4.29,0.45,-5.73,
4.482,-2.39,-1.43,0.40,4.32,0.43,-5.70,
4.482,-2.39,-1.43,0.40,4.35,0.40,-5.67,
4.482,-2.71,-1.21,1.20,4.35,0.40,-5.67,
4.482,-2.71,-1.21,1.20,4.37,0.35,-5.63,
4.482,-2.71,-1.21,1.20,4.40,0.30,-5.58,
4.482,-2.84,-1.12,1.63,4.40,0.30,-5.58,
4.483,-2.84,-1.12,1.63,4.43,0.28,-5.54,
4.487,-2.84,-1.12,1.63,4.46,0.29,-5.50,
4.49,-2.46,-1.25,1.31,4.46,0.29,-5.50,
4.49,-2.46,-1.25,1.31,4.47,0.30,-5.46,
4.491,-2.46,-1.25,1.31,4.46,0.33,-5.42,
4.491,-1.88,-1.51,0.89,4.46,0.33,-5.42,
4.492,-1.88,-1.51,0.89,4.45,0.36,-5.39,
4.495,-1.88,-1.51,0.89,4.42,0.40,-5.36,
4.495,-1.60,-1.66,0.67,4.42,0.40,-5.36,
4.498,-1.60,-1.66,0.67,4.39,0.42,-5.33,
4.501,-1.60,-1.66,0.67,4.35,0.44,-5.28,
4.501,-1.65,-1.48,1.21,4.35,0.44,-5.28,
4.503,-1.65,-1.48,1.21,4.31,0.42,-5.23,
4.505,-1.65,-1.48,1.21,4.27,0.38,-5.17,
4.506,-1.71,-1.18,2.32,4.27,0.38,-5.17,
4.508,-1.71,-1.18,2.32,4.22,0.34,-5.11,
4.511,-1.71,-1.18,2.32,4.18,0.29,-5.04,
4.511,-1.61,-0.99,3.48,4.18,0.29,-5.04,
4.512,-1.61,-0.99,3.48,4.15,0.23,-4.97,
4.515,-1.39,-0.95,4.41,4.15,0.23,-4.97,
4.515,-1.39,-0.95,4.41,4.12,0.17,-4.91,
4.52,-1.39,-0.95,4.41,4.08,0.10,-4.84,
4.521,-1.39,-0.95,4.41,4.05,0.01,-4.77,
4.521,-1.11,-1.00,5.26,4.05,0.01,-4.77,
4.523,-1.11,-1.00,5.26,4.02,-0.09,-4.71,
4.526,-0.63,-1.12,5.90,4.02,-0.09,-4.71,
4.526,-0.63,-1.12,5.90,4.00,-0.18,-4.64,
4.527,-0.63,-1.12,5.90,3.97,-0.28,-4.58,
4.53,-0.63,-1.12,5.90,3.94,-0.40,-4.51,
4.53,0.06,-1.23,6.46,3.94,-0.40,-4.51,
4.532,0.06,-1.23,6.46,3.92,-0.51,-4.44,
4.54,0.06,-1.23,6.46,3.90,-0.63,-4.38,
4.541,0.87,-1.14,6.57,3.90,-0.63,-4.38,
4.541,0.87,-1.14,6.57,3.88,-0.74,-4.31,
4.541,0.87,-1.14,6.57,3.86,-0.86,-4.24,
4.541,1.74,-0.93,6.62,3.86,-0.86,-4.24,
4.543,1.74,-0.93,6.62,3.83,-0.99,-4.17,
4.545,1.74,-0.93,6.62,3.81,-1.14,-4.10,
4.545,2.72,-0.59,6.84,3.81,-1.14,-4.10,
4.547,2.72,-0.59,6.84,3.78,-1.30,-4.03,
4.55,2.72,-0.59,6.84,3.76,-1.45,-3.97,
4.55,3.57,-0.25,6.58,3.76,-1.45,-3.97,
4.556,3.57,-0.25,6.58,3.73,-1.58,-3.90,
4.557,3.57,-0.25,6.58,3.69,-1.69,-3.83,
4.557,4.51,0.09,6.49,3.69,-1.69,-3.83,
4.557,4.51,0.09,6.49,3.65,-1.78,-3.75,
4.561,5.37,0.35,6.13,3.65,-1.78,-3.75,
4.562,5.37,0.35,6.13,3.62,-1.86,-3.68,
4.562,5.37,0.35,6.13,3.58,-1.91,-3.62,
4.564,5.37,0.35,6.13,3.53,-1.92,-3.55,
4.565,6.10,0.69,5.56,3.53,-1.92,-3.55,
4.567,6.10,0.69,5.56,3.48,-1.94,-3.49,
4.57,6.10,0.69,5.56,3.42,-1.95,-3.43,
4.57,6.70,1.00,5.39,3.42,-1.95,-3.43,
4.572,6.70,1.00,5.39,3.36,-1.96,-3.37,
4.574,7.11,1.24,5.17,3.36,-1.96,-3.37,
4.574,7.11,1.24,5.17,3.31,-1.96,-3.31,
4.577,7.11,1.24,5.17,3.25,-1.95,-3.27,
4.579,7.11,1.24,5.17,3.18,-1.93,-3.23,
4.579,7.48,1.31,5.05,3.18,-1.93,-3.23,
4.581,7.48,1.31,5.05,3.12,-1.91,-3.19,
4.584,7.48,1.31,5.05,3.05,-1.88,-3.16,
4.584,7.67,1.18,5.05,3.05,-1.88,-3.16,
4.587,7.67,1.18,5.05,2.99,-1.84,-3.13,
4.589,7.67,1.18,5.05,2.93,-1.80,-3.11,
4.59,7.86,0.96,4.77,2.93,-1.80,-3.11,
4.591,7.86,0.96,4.77,2.85,-1.73,-3.09,
4.594,7.86,0.96,4.77,2.76,-1.64,-3.06,
4.597,7.74,1.16,4.22,2.76,-1.64,-3.06,
4.6,7.74,1.16,4.22,2.66,-1.55,-3.03,
4.601,7.74,1.16,4.22,2.56,-1.44,-3.00,
4.621,7.57,1.19,3.84,2.56,-1.44,-3.00,
4.621,7.57,1.19,3.84,2.47,-1.30,-2.97,
4.622,7.44,1.16,3.23,2.47,-1.30,-2.97,
4.622,7.44,1.16,3.23,2.36,-1.13,-2.95,
4.622,7.44,1.16,3.23,2.25,-0.93,-2.93,
4.623,7.44,1.16,3.23,2.12,-0.74,-2.89,
4.623,7.18,1.24,3.04,2.12,-0.74,-2.89,
4.623,7.18,1.24,3.04,2.00,-0.57,-2.86,
4.624,7.18,1.24,3.04,1.87,-0.43,-2.83,
4.624,7.02,1.34,3.28,1.87,-0.43,-2.83,
4.625,7.02,1.34,3.28,1.75,-0.31,-2.80,
4.625,6.95,1.42,3.49,1.75,-0.31,-2.80,
4.625,6.95,1.42,3.49,1.63,-0.20,-2.79,
4.626,6.95,1.42,3.49,1.52,-0.10,-2.78,
4.626,6.95,1.42,3.49,1.40,-0.01,-2.78,
4.626,6.77,1.51,3.81,1.40,-0.01,-2.78,
4.627,6.77,1.51,3.81,1.30,0.06,-2.78,
4.629,6.77,1.51,3.81,1.21,0.13,-2.78,
4.63,6.39,1.61,4.25,1.21,0.13,-2.78,
4.632,6.39,1.61,4.25,1.12,0.20,-2.78,
4.634,6.39,1.61,4.25,1.05,0.26,-2.77,
4.634,5.94,1.63,4.73,1.05,0.26,-2.77,
4.647,5.94,1.63,4.73,0.99,0.33,-2.77,
4.647,5.94,1.63,4.73,0.94,0.39,-2.75,
4.648,5.43,1.43,5.13,0.94,0.39,-2.75,
4.648,5.43,1.43,5.13,0.89,0.45,-2.74,
4.648,5.43,1.43,5.13,0.86,0.49,-2.72,
4.649,4.79,1.13,5.34,0.86,0.49,-2.72,
4.649,4.79,1.13,5.34,0.84,0.52,-2.69,
4.649,4.79,1.13,5.34,0.82,0.56,-2.65,
4.649,4.00,0.82,5.42,0.82,0.56,-2.65,
4.656,4.00,0.82,5.42,0.80,0.59,-2.60,
4.657,4.00,0.82,5.42,0.80,0.61,-2.54,
4.657,3.12,0.64,5.63,0.80,0.61,-2.54,
4.657,3.12,0.64,5.63,0.79,0.61,-2.47,
4.659,2.29,0.55,5.87,0.79,0.61,-2.47,
4.659,2.29,0.55,5.87,0.79,0.58,-2.39,
4.661,2.29,0.55,5.87,0.81,0.54,-2.30,
4.664,1.64,0.70,6.10,0.81,0.54,-2.30,
4.664,1.64,0.70,6.10,0.82,0.48,-2.20,
4.666,1.64,0.70,6.10,0.84,0.40,-2.09,
4.669,1.64,0.70,6.10,0.85,0.31,-1.98,
4.669,1.20,1.07,6.34,0.85,0.31,-1.98,
4.672,1.20,1.07,6.34,0.86,0.21,-1.87,
4.674,1.20,1.07,6.34,0.87,0.10,-1.76,
4.674,1.00,1.60,6.49,0.87,0.10,-1.76,
4.677,1.00,1.60,6.49,0.88,-0.01,-1.65,
4.68,1.00,1.60,6.49,0.90,-0.11,-1.54,
4.68,0.99,2.23,6.43,0.90,-0.11,-1.54,
4.681,0.99,2.23,6.43,0.91,-0.19,-1.44,
4.684,0.99,2.23,6.43,0.91,-0.25,-1.34,
4.684,1.21,2.77,5.97,0.91,-0.25,-1.34,
4.687,1.21,2.77,5.97,0.91,-0.29,-1.25,
4.688,1.21,2.77,5.97,0.89,-0.33,-1.17,
4.688,1.53,3.06,5.52,0.89,-0.33,-1.17,
4.691,1.53,3.06,5.52,0.86,-0.36,-1.10,
4.693,1.53,3.06,5.52,0.83,-0.40,-1.03,
4.694,1.64,3.21,5.18,0.83,-0.40,-1.03,
4.696,1.64,3.21,5.18,0.80,-0.45,-0.97,
4.699,1.47,3.34,4.66,0.80,-0.45,-0.97,
4.699,1.47,3.34,4.66,0.76,-0.51,-0.91,
4.701,1.47,3.34,4.66,0.72,-0.57,-0.85,
4.705,1.47,3.34,4.66,0.68,-0.64,-0.79,
4.705,1.12,3.56,4.16,0.68,-0.64,-0.79,
4.708,1.12,3.56,4.16,0.63,-0.71,-0.73,
4.709,1.12,3.56,4.16,0.57,-0.77,-0.67,
4.709,0.71,3.78,3.53,0.57,-0.77,-0.67,
4.711,0.71,3.78,3.53,0.50,-0.81,-0.60,
4.713,0.71,3.78,3.53,0.45,-0.85,-0.54,
4.714,0.13,3.83,3.11,0.45,-0.85,-0.54,
4.715,0.13,3.83,3.11,0.39,-0.88,-0.47,
4.721,-0.51,3.77,2.24,0.39,-0.88,-0.47,
4.721,-0.51,3.77,2.24,0.33,-0.89,-0.40,
4.722,-0.51,3.77,2.24,0.26,-0.89,-0.33,
4.723,-0.51,3.77,2.24,0.18,-0.90,-0.24,
4.723,-1.12,3.65,1.34,0.18,-0.90,-0.24,
4.725,-1.12,3.65,1.34,0.10,-0.90,-0.15,
4.728,-1.12,3.65,1.34,0.01,-0.90,-0.05,
4.728,-1.47,3.45,0.42,0.01,-0.90,-0.05,
4.73,-1.47,3.45,0.42,-0.07,-0.89,0.05,
4.733,-1.47,3.45,0.42,-0.16,-0.86,0.16,
4.733,-1.37,3.23,-0.21,-0.16,-0.86,0.16,
4.737,-1.37,3.23,-0.21,-0.24,-0.82,0.26,
4.741,-1.37,3.23,-0.21,-0.31,-0.76,0.36,
4.741,-0.90,2.86,-0.49,-0.31,-0.76,0.36,
4.742,-0.90,2.86,-0.49,-0.38,-0.70,0.46,
4.745,-0.90,2.86,-0.49,-0.44,-0.65,0.55,
4.745,-0.19,2.33,-0.21,-0.44,-0.65,0.55,
4.745,-0.19,2.33,-0.21,-0.49,-0.59,0.62,
4.748,0.68,1.76,0.12,-0.49,-0.59,0.62,
4.749,0.68,1.76,0.12,-0.53,-0.52,0.70,
4.75,0.68,1.76,0.12,-0.56,-0.44,0.77,
4.753,1.53,1.36,0.05,-0.56,-0.44,0.77,
4.753,1.53,1.36,0.05,-0.58,-0.34,0.83,
4.755,1.53,1.36,0.05,-0.59,-0.23,0.89,
4.758,2.07,1.02,-0.40,-0.59,-0.23,0.89,
4.758,2.07,1.02,-0.40,-0.61,-0.11,0.94,
4.76,2.07,1.02,-0.40,-0.62,0.03,0.98,
4.763,2.30,0.71,-0.80,-0.62,0.03,0.98,
4.763,2.30,0.71,-0.80,-0.64,0.18,1.02,
4.774,2.30,0.71,-0.80,-0.66,0.33,1.05,
4.774,2.25,0.46,-0.89,-0.66,0.33,1.05,
4.774,2.25,0.46,-0.89,-0.68,0.48,1.07,
4.774,2.25,0.46,-0.89,-0.71,0.62,1.10,
4.774,1.97,0.34,-0.49,-0.71,0.62,1.10,
4.775,1.97,0.34,-0.49,-0.74,0.75,1.12,
4.775,1.97,0.34,-0.49,-0.77,0.88,1.16,
4.779,1.97,0.34,-0.49,-0.78,0.98,1.21,
4.78,1.61,0.37,0.27,-0.78,0.98,1.21,
4.785,1.57,0.57,0.74,-0.78,0.98,1.21,
4.785,1.57,0.57,0.74,-0.79,1.06,1.28,
4.785,1.57,0.57,0.74,-0.80,1.13,1.37,
4.786,1.57,0.57,0.74,-0.81,1.20,1.48,
4.788,2.07,0.76,0.36,-0.81,1.20,1.48,
4.788,2.07,0.76,0.36,-0.81,1.30,1.60,
4.79,2.07,0.76,0.36,-0.82,1.41,1.73,
4.793,2.07,0.76,0.36,-0.83,1.53,1.87,
4.793,3.08,1.06,-0.34,-0.83,1.53,1.87,
4.795,3.08,1.06,-0.34,-0.85,1.65,2.00,
4.797,3.08,1.06,-0.34,-0.86,1.77,2.13,
4.797,4.32,1.25,-1.14,-0.86,1.77,2.13,
4.8,4.32,1.25,-1.14,-0.89,1.90,2.25,
4.803,5.41,1.13,-2.08,-0.89,1.90,2.25,
4.803,5.41,1.13,-2.08,-0.91,2.04,2.34,
4.805,5.41,1.13,-2.08,-0.95,2.18,2.42,
4.807,5.41,1.13,-2.08,-1.00,2.34,2.48,
4.807,6.04,0.78,-3.27,-1.00,2.34,2.48,
4.81,6.04,0.78,-3.27,-1.06,2.51,2.52,
4.812,6.04,0.78,-3.27,-1.13,2.69,2.53,
4.812,6.12,0.21,-4.35,-1.13,2.69,2.53,
4.814,6.12,0.21,-4.35,-1.22,2.87,2.52,
4.817,6.12,0.21,-4.35,-1.31,3.06,2.48,
4.817,5.59,-0.38,-5.35,-1.31,3.06,2.48,
4.82,5.59,-0.38,-5.35,-1.42,3.25,2.42,
4.822,5.59,-0.38,-5.35,-1.54,3.42,2.34,
4.822,4.26,-0.92,-5.65,-1.54,3.42,2.34,
4.824,4.26,-0.92,-5.65,-1.65,3.55,2.25,
4.827,4.26,-0.92,-5.65,-1.75,3.63,2.15,
4.827,2.27,-1.59,-4.36,-1.75,3.63,2.15,
4.829,2.27,-1.59,-4.36,-1.84,3.64,2.06,
4.832,2.27,-1.59,-4.36,-1.90,3.62,1.97,
4.832,-0.16,-2.63,-1.75,-1.90,3.62,1.97,
4.834,-0.16,-2.63,-1.75,-1.92,3.57,1.94,
4.837,-0.16,-2.63,-1.75,-1.98,3.48,2.26,
4.837,-3.70,-0.38,7.77,-1.98,3.48,2.26,
4.839,-3.70,-0.38,7.77,-2.10,3.15,3.09,
4.842,1.21,1.30,40.51,-2.10,3.15,3.09,
4.842,1.21,1.30,40.51,-1.69,2.37,4.10,
4.845,1.21,1.30,40.51,-0.46,1.27,4.91,
4.847,1.21,1.30,40.51,0.38,-0.33,5.86,
4.847,6.43,7.78,39.63,0.38,-0.33,5.86,
4.849,6.43,7.78,39.63,-0.06,-2.46,7.15,
4.852,8.87,12.50,2.28,-0.06,-2.46,7.15,
4.852,8.87,12.50,2.28,-0.70,-4.37,8.28,
4.855,8.87,12.50,2.28,-0.53,-5.37,9.04,
4.857,8.87,12.50,2.28,-0.11,-5.40,9.26,
4.857,7.17,3.24,-28.48,-0.11,-5.40,9.26,
4.859,7.17,3.24,-28.48,0.00,-4.59,8.89,
4.862,7.17,3.24,-28.48,-0.44,-3.24,8.00,
4.862,11.28,4.16,-37.94,-0.44,-3.24,8.00,
4.864,11.28,4.16,-37.94,-1.42,-1.74,6.72,
4.867,11.28,4.16,-37.94,-2.21,-0.54,5.42,
4.867,13.66,5.89,-37.98,-2.21,-0.54,5.42,
4.87,13.66,5.89,-37.98,-2.86,0.09,4.42,
4.873,13.66,5.89,-37.98,-3.55,0.10,3.82,
4.873,9.96,7.35,-38.08,-3.55,0.10,3.82,
4.874,9.96,7.35,-38.08,-4.48,-0.28,3.50,
4.877,9.96,7.35,-38.08,-5.46,-1.12,3.32,
4.877,7.70,17.18,-9.41,-5.46,-1.12,3.32,
4.879,7.70,17.18,-9.41,-6.47,-2.30,3.09,
4.882,7.70,17.18,-9.41,-6.22,-3.50,2.93,
4.882,-1.54,29.73,39.83,-6.22,-3.50,2.93,
4.887,-1.54,29.73,39.83,-4.35,-4.18,2.72,
4.887,-0.27,29.70,17.92,-4.35,-4.18,2.72,
4.887,-0.27,29.70,17.92,-2.64,-3.62,1.92,
4.889,-0.27,29.70,17.92,-2.41,-1.81,0.63,
4.892,-0.27,29.70,17.92,-2.71,-0.03,-0.40,
4.892,-0.28,29.66,-23.63,-2.71,-0.03,-0.40,
4.894,-0.28,29.66,-23.63,-2.93,0.95,-0.67,
4.898,-0.28,29.66,-23.63,-2.84,1.15,0.05,
4.898,-20.41,29.61,2.24,-2.84,1.15,0.05,
4.9,-20.41,29.61,2.24,-2.39,0.71,1.67,
4.902,-20.41,29.61,2.24,-1.64,-0.16,3.51,
4.903,-21.96,29.07,37.62,-1.64,-0.16,3.51,
4.904,-21.96,29.07,37.62,-0.72,-1.02,4.58,
4.906,-21.96,29.07,37.62,-0.24,-1.42,4.97,
4.907,2.60,0.18,13.78,-0.24,-1.42,4.97,
4.909,2.60,0.18,13.78,-0.38,-1.23,5.01,
4.911,2.60,0.18,13.78,-0.63,-0.61,4.88,
4.912,0.42,-6.76,-23.22,-0.63,-0.61,4.88,
4.914,0.42,-6.76,-23.22,-0.86,0.17,4.70,
4.916,-0.89,-13.97,-23.57,-0.86,0.17,4.70,
4.917,-0.89,-13.97,-23.57,-0.92,0.90,4.45,
4.92,-0.89,-13.97,-23.57,-1.01,1.58,4.21,
4.922,-0.76,-23.46,-3.66,-1.01,1.58,4.21,
4.922,-0.76,-23.46,-3.66,-1.23,2.17,3.99,
4.925,-0.76,-23.46,-3.66,-1.34,2.50,3.80,
4.927,3.06,-29.97,18.92,-1.34,2.50,3.80,
4.927,3.06,-29.97,18.92,-1.23,2.44,3.61,
4.929,3.06,-29.97,18.92,-1.10,2.12,3.37,
4.943,3.06,-29.97,18.92,-1.15,1.59,3.12,
4.943,7.88,-27.67,12.59,-1.15,1.59,3.12,
4.943,7.88,-27.67,12.59,-1.39,0.86,2.88,
4.944,10.17,-20.24,4.28,-1.39,0.86,2.88,
4.944,10.17,-20.24,4.28,-1.60,0.11,2.67,
4.944,10.17,-20.24,4.28,-1.66,-0.53,2.43,
4.944,12.05,-9.01,6.40,-1.66,-0.53,2.43,
4.944,12.05,-9.01,6.40,-1.67,-1.02,2.16,
4.945,12.05,-9.01,6.40,-1.62,-1.33,1.88,
4.949,12.05,-9.01,6.40,-1.48,-1.42,1.61,
4.952,10.42,0.10,6.38,-1.48,-1.42,1.61,
4.953,10.42,0.10,6.38,-1.35,-1.33,1.40,
4.953,8.88,5.40,-0.22,-1.35,-1.33,1.40,
4.954,8.88,5.40,-0.22,-1.28,-1.07,1.26,
4.955,8.88,5.40,-0.22,-1.23,-0.73,1.21,
4.957,8.07,7.78,-1.46,-1.23,-0.73,1.21,
4.958,8.07,7.78,-1.46,-1.18,-0.41,1.22,
4.959,8.07,7.78,-1.46,-1.11,-0.19,1.26,
4.961,8.07,7.78,-1.46,-1.03,-0.06,1.29,
4.961,8.37,7.23,2.31,-1.03,-0.06,1.29,
4.964,8.37,7.23,2.31,-0.94,0.06,1.25,
4.966,8.37,7.23,2.31,-0.86,0.20,1.16,
4.966,7.87,3.11,3.59,-0.86,0.20,1.16,
4.968,7.87,3.11,3.59,-0.81,0.36,1.03,
4.971,7.87,3.11,3.59,-0.77,0.51,0.92,
4.972,4.91,-1.30,3.38,-0.77,0.51,0.92,
4.973,4.91,-1.30,3.38,-0.72,0.62,0.85,
4.976,4.91,-1.30,3.38,-0.67,0.68,0.80,
4.976,1.79,-3.50,3.86,-0.67,0.68,0.80,
4.978,1.79,-3.50,3.86,-0.61,0.69,0.77,
4.981,1.79,-3.50,3.86,-0.57,0.65,0.74,
4.981,-0.38,-3.05,3.34,-0.57,0.65,0.74,
4.983,-0.38,-3.05,3.34,-0.54,0.60,0.71,
4.99,-2.00,-0.62,2.14,-0.54,0.60,0.71,
4.99,-2.00,-0.62,2.14,-0.52,0.55,0.69,
4.991,-2.00,-0.62,2.14,-0.50,0.50,0.70,
4.991,-2.00,-0.62,2.14,-0.47,0.44,0.74,
