
time,ax,ay,az,wx,wy,wz,
0.003,-1.59,-0.06,1.69,0.32,0.61,1.04,
0.003,-0.94,-0.19,1.14,0.32,0.61,1.04,
0.003,-0.94,-0.19,1.14,0.33,0.66,1.04,
0.003,-0.94,-0.19,1.14,0.33,0.70,1.03,
0.003,-0.42,-0.22,0.64,0.33,0.70,1.03,
0.005,-0.42,-0.22,0.64,0.33,0.74,1.02,
0.008,-0.42,-0.22,0.64,0.32,0.78,1.01,
0.008,-0.36,-0.19,0.40,0.32,0.78,1.01,
0.01,-0.36,-0.19,0.40,0.30,0.80,1.00,
0.013,-0.38,-0.16,0.29,0.30,0.80,1.00,
0.014,-0.38,-0.16,0.29,0.29,0.80,0.99,
0.015,-0.38,-0.16,0.29,0.28,0.80,0.98,
0.017,-0.38,-0.16,0.29,0.26,0.81,0.97,
0.017,-0.32,-0.03,0.19,0.26,0.81,0.97,
0.02,-0.32,-0.03,0.19,0.25,0.81,0.95,
0.022,-0.32,-0.03,0.19,0.23,0.82,0.94,
0.022,-0.17,0.06,0.11,0.23,0.82,0.94,
0.024,-0.17,0.06,0.11,0.21,0.82,0.93,
0.027,-0.17,0.06,0.11,0.20,0.83,0.91,
0.027,-0.02,0.07,-0.03,0.20,0.83,0.91,
0.031,-0.02,0.07,-0.03,0.18,0.84,0.89,
0.032,0.04,0.03,-0.06,0.18,0.84,0.89,
0.032,0.04,0.03,-0.06,0.17,0.85,0.87,
0.035,0.04,0.03,-0.06,0.16,0.86,0.86,
0.037,0.04,0.03,-0.06,0.15,0.86,0.85,
0.037,-0.01,-0.02,0.07,0.15,0.86,0.85,
0.039,-0.01,-0.02,0.07,0.14,0.86,0.84,
0.042,-0.01,-0.02,0.07,0.14,0.85,0.83,
0.042,-0.16,-0.07,0.35,0.14,0.85,0.83,
0.044,-0.16,-0.07,0.35,0.15,0.84,0.83,
0.049,-0.32,-0.11,0.76,0.15,0.84,0.83,
0.049,-0.32,-0.11,0.76,0.16,0.83,0.83,
0.049,-0.32,-0.11,0.76,0.18,0.82,0.83,
0.052,-0.32,-0.11,0.76,0.21,0.81,0.83,
0.053,-0.43,-0.15,1.16,0.21,0.81,0.83,
0.054,-0.43,-0.15,1.16,0.24,0.78,0.82,
0.057,-0.51,-0.13,1.43,0.24,0.78,0.82,
0.057,-0.51,-0.13,1.43,0.28,0.76,0.82,
0.059,-0.51,-0.13,1.43,0.31,0.73,0.82,
0.062,-0.51,-0.13,1.43,0.35,0.70,0.81,
0.063,-0.53,-0.12,1.56,0.35,0.70,0.81,
0.064,-0.53,-0.12,1.56,0.38,0.66,0.80,
0.067,-0.53,-0.12,1.56,0.41,0.62,0.79,
0.067,-0.59,-0.06,1.47,0.41,0.62,0.79,
0.069,-0.59,-0.06,1.47,0.44,0.59,0.79,
0.071,-0.59,-0.06,1.47,0.46,0.56,0.78,
0.072,-0.74,0.05,1.24,0.46,0.56,0.78,
0.074,-0.74,0.05,1.24,0.48,0.53,0.77,
0.076,-0.74,0.05,1.24,0.49,0.52,0.77,
0.077,-0.98,0.16,0.98,0.49,0.52,0.77,
0.079,-0.98,0.16,0.98,0.50,0.51,0.77,
0.082,-1.16,0.19,0.74,0.50,0.51,0.77,
0.082,-1.16,0.19,0.74,0.51,0.50,0.78,
0.084,-1.16,0.19,0.74,0.51,0.51,0.78,
0.087,-1.16,0.19,0.74,0.51,0.51,0.78,
0.087,-1.19,0.17,0.49,0.51,0.51,0.78,
0.089,-1.19,0.17,0.49,0.50,0.53,0.78,
0.091,-1.19,0.17,0.49,0.49,0.54,0.78,
0.092,-1.12,0.14,0.30,0.49,0.54,0.78,
0.094,-1.12,0.14,0.30,0.48,0.55,0.78,
0.097,-1.12,0.14,0.30,0.46,0.57,0.78,
0.097,-1.01,0.16,0.23,0.46,0.57,0.78,
0.099,-1.01,0.16,0.23,0.44,0.58,0.78,
0.102,-1.01,0.16,0.23,0.42,0.58,0.77,
0.102,-0.73,0.09,0.29,0.42,0.58,0.77,
0.104,-0.73,0.09,0.29,0.41,0.58,0.76,
0.106,-0.73,0.09,0.29,0.39,0.58,0.75,
0.107,-0.42,-0.01,0.48,0.39,0.58,0.75,
0.109,-0.42,-0.01,0.48,0.37,0.58,0.73,
0.111,-0.42,-0.01,0.48,0.35,0.58,0.72,
0.117,-0.32,-0.08,0.72,0.35,0.58,0.72,
0.117,-0.32,-0.08,0.72,0.34,0.58,0.71,
0.117,-0.32,-0.08,0.72,0.33,0.58,0.70,
0.117,-0.43,-0.07,0.88,0.33,0.58,0.70,
0.119,-0.43,-0.07,0.88,0.32,0.59,0.70,
0.121,-0.43,-0.07,0.88,0.31,0.61,0.70,
0.121,-0.32,0.01,0.85,0.31,0.61,0.70,
0.123,-0.32,0.01,0.85,0.30,0.64,0.70,
0.126,-0.32,0.01,0.85,0.29,0.67,0.69,
0.126,0.00,0.02,0.68,0.29,0.67,0.69,
0.128,0.00,0.02,0.68,0.28,0.73,0.67,
0.132,0.00,0.02,0.68,0.27,0.80,0.66,
0.132,0.18,-0.06,0.49,0.27,0.80,0.66,
0.134,0.18,-0.06,0.49,0.25,0.89,0.65,
0.136,0.18,-0.06,0.49,0.24,0.98,0.64,
0.136,0.12,-0.14,0.47,0.24,0.98,0.64,
0.138,0.12,-0.14,0.47,0.23,1.07,0.64,
0.141,0.12,-0.14,0.47,0.22,1.16,0.65,
0.141,-0.20,-0.11,0.68,0.22,1.16,0.65,
0.143,-0.20,-0.11,0.68,0.21,1.25,0.66,
0.148,-0.20,-0.11,0.68,0.21,1.32,0.68,
0.148,-0.53,-0.06,0.92,0.21,1.32,0.68,
0.148,-0.53,-0.06,0.92,0.21,1.40,0.70,
0.151,-0.77,0.07,1.00,0.21,1.40,0.70,
0.152,-0.77,0.07,1.00,0.21,1.47,0.73,
0.153,-0.77,0.07,1.00,0.22,1.54,0.76,
0.156,-0.77,0.07,1.00,0.22,1.61,0.79,
0.156,-0.72,0.30,0.91,0.22,1.61,0.79,
0.158,-0.72,0.30,0.91,0.23,1.67,0.82,
0.161,-0.72,0.30,0.91,0.22,1.74,0.84,
0.161,-0.46,0.43,0.66,0.22,1.74,0.84,
0.164,-0.46,0.43,0.66,0.22,1.79,0.85,
0.166,-0.46,0.43,0.66,0.21,1.83,0.86,
0.166,-0.18,0.39,0.46,0.21,1.83,0.86,
0.168,-0.18,0.39,0.46,0.20,1.84,0.87,
0.171,-0.18,0.39,0.46,0.19,1.84,0.88,
0.171,-0.15,0.31,0.34,0.19,1.84,0.88,
0.174,-0.15,0.31,0.34,0.17,1.82,0.89,
0.177,-0.15,0.31,0.34,0.15,1.78,0.90,
0.177,-0.28,0.41,0.28,0.15,1.78,0.90,
0.18,-0.28,0.41,0.28,0.13,1.73,0.91,
0.182,-0.46,0.64,0.05,0.13,1.73,0.91,
0.183,-0.46,0.64,0.05,0.10,1.69,0.92,
0.183,-0.46,0.64,0.05,0.08,1.64,0.94,
0.186,-0.58,0.79,-0.23,0.08,1.64,0.94,
0.187,-0.58,0.79,-0.23,0.06,1.61,0.96,
0.188,-0.58,0.79,-0.23,0.03,1.59,0.97,
0.192,-0.60,0.71,-0.49,0.03,1.59,0.97,
0.192,-0.60,0.71,-0.49,0.01,1.59,0.98,
0.193,-0.60,0.71,-0.49,-0.00,1.61,1.00,
0.197,-0.64,0.50,-0.47,-0.00,1.61,1.00,
0.197,-0.64,0.50,-0.47,-0.01,1.64,1.01,
0.199,-0.64,0.50,-0.47,-0.01,1.69,1.03,
0.201,-0.64,0.50,-0.47,0.00,1.74,1.04,
0.201,-0.73,0.32,-0.43,0.00,1.74,1.04,
0.203,-0.73,0.32,-0.43,0.02,1.81,1.06,
0.206,-0.93,0.28,-0.33,0.02,1.81,1.06,
0.206,-0.93,0.28,-0.33,0.05,1.89,1.08,
0.208,-0.93,0.28,-0.33,0.09,1.96,1.11,
0.211,-0.99,0.45,0.15,0.09,1.96,1.11,
0.211,-0.99,0.45,0.15,0.15,2.02,1.13,
0.213,-0.99,0.45,0.15,0.22,2.07,1.16,
0.216,-0.99,0.45,0.15,0.31,2.11,1.17,
0.216,-0.84,0.62,0.77,0.31,2.11,1.17,
0.218,-0.84,0.62,0.77,0.41,2.13,1.19,
0.22,-0.84,0.62,0.77,0.51,2.13,1.19,
0.221,-0.59,0.69,1.00,0.51,2.13,1.19,
0.223,-0.59,0.69,1.00,0.62,2.11,1.20,
0.226,-0.59,0.69,1.00,0.73,2.07,1.19,
0.226,-0.18,0.84,0.98,0.73,2.07,1.19,
0.228,-0.18,0.84,0.98,0.83,1.98,1.18,
0.239,-0.18,0.84,0.98,0.93,1.88,1.16,
0.239,-0.11,0.87,0.57,0.93,1.88,1.16,
0.24,-0.11,0.87,0.57,1.02,1.78,1.15,
0.24,-0.11,0.87,0.57,1.12,1.65,1.13,
0.24,-0.01,0.97,0.38,1.12,1.65,1.13,
0.24,-0.01,0.97,0.38,1.21,1.51,1.11,
0.241,-0.01,0.97,0.38,1.30,1.38,1.09,
0.241,-0.14,0.94,-0.17,1.30,1.38,1.09,
0.243,-0.14,0.94,-0.17,1.38,1.26,1.07,
0.245,-0.14,0.94,-0.17,1.45,1.15,1.05,
0.246,-0.22,1.12,-0.60,1.45,1.15,1.05,
0.248,-0.22,1.12,-0.60,1.52,1.06,1.04,
0.251,-0.22,1.12,-0.60,1.57,0.98,1.02,
0.251,-0.51,1.26,-0.96,1.57,0.98,1.02,
0.253,-0.51,1.26,-0.96,1.61,0.93,1.02,
0.255,-0.73,1.24,-1.37,1.61,0.93,1.02,
0.256,-0.73,1.24,-1.37,1.64,0.91,1.02,
0.258,-0.73,1.24,-1.37,1.67,0.90,1.01,
0.26,-0.73,1.24,-1.37,1.68,0.91,1.01,
0.26,-0.84,1.17,-1.50,1.68,0.91,1.01,
0.263,-0.84,1.17,-1.50,1.70,0.93,1.01,
0.266,-0.83,1.11,-1.48,1.70,0.93,1.01,
0.266,-0.83,1.11,-1.48,1.71,0.95,0.99,
0.267,-0.83,1.11,-1.48,1.71,0.99,0.97,
0.27,-0.83,1.11,-1.48,1.71,1.01,0.95,
0.271,-0.89,1.06,-1.56,1.71,1.01,0.95,
0.272,-0.89,1.06,-1.56,1.71,1.04,0.92,
0.275,-0.89,1.06,-1.56,1.70,1.07,0.89,
0.275,-0.94,0.91,-1.49,1.70,1.07,0.89,
0.29,-0.94,0.91,-1.49,1.68,1.08,0.86,
0.291,-0.84,0.73,-1.33,1.68,1.08,0.86,
0.291,-0.84,0.73,-1.33,1.67,1.09,0.82,
0.292,-0.84,0.73,-1.33,1.65,1.10,0.79,
0.292,-0.68,0.68,-1.18,1.65,1.10,0.79,
0.292,-0.68,0.68,-1.18,1.64,1.11,0.76,
0.292,-0.68,0.68,-1.18,1.62,1.11,0.73,
0.293,-0.68,0.68,-1.18,1.59,1.10,0.71,
0.293,-0.68,0.79,-1.14,1.59,1.10,0.71,
0.293,-0.68,0.79,-1.14,1.56,1.09,0.71,
0.296,-0.68,0.79,-1.14,1.53,1.08,0.71,
0.297,-0.69,0.92,-1.25,1.53,1.08,0.71,
0.302,-0.69,0.92,-1.25,1.49,1.08,0.72,
0.302,-0.69,0.92,-1.25,1.45,1.09,0.73,
0.302,-0.53,1.02,-1.39,1.45,1.09,0.73,
0.303,-0.53,1.02,-1.39,1.41,1.11,0.75,
0.305,-0.53,1.02,-1.39,1.36,1.15,0.78,
0.305,-0.33,1.07,-1.82,1.36,1.15,0.78,
0.307,-0.33,1.07,-1.82,1.30,1.21,0.80,
0.31,-0.33,1.07,-1.82,1.24,1.30,0.84,
0.31,-0.37,1.22,-2.35,1.24,1.30,0.84,
0.312,-0.37,1.22,-2.35,1.17,1.41,0.88,
0.316,-0.37,1.22,-2.35,1.10,1.55,0.93,
0.317,-0.52,1.36,-2.78,1.10,1.55,0.93,
0.317,-0.52,1.36,-2.78,1.02,1.71,0.98,
0.32,-0.52,1.36,-2.78,0.96,1.87,1.03,
0.32,-0.39,1.42,-2.49,0.96,1.87,1.03,
0.323,-0.39,1.42,-2.49,0.90,2.02,1.07,
0.325,-0.39,1.42,-2.49,0.86,2.16,1.11,
0.325,-0.32,1.35,-1.74,0.86,2.16,1.11,
0.328,-0.32,1.35,-1.74,0.83,2.27,1.14,
0.332,-0.49,1.36,-1.15,0.83,2.27,1.14,
0.332,-0.49,1.36,-1.15,0.81,2.37,1.17,
0.332,-0.49,1.36,-1.15,0.80,2.47,1.19,
0.335,-0.67,1.50,-0.92,0.80,2.47,1.19,
0.335,-0.67,1.50,-0.92,0.79,2.56,1.22,
0.339,-0.67,1.50,-0.92,0.78,2.65,1.24,
0.339,-0.67,1.50,-0.92,0.77,2.73,1.25,
0.34,-0.77,1.49,-1.02,0.77,2.73,1.25,
0.342,-0.77,1.49,-1.02,0.76,2.82,1.26,
0.345,-0.88,1.39,-1.15,0.76,2.82,1.26,
0.345,-0.88,1.39,-1.15,0.75,2.90,1.26,
0.348,-0.88,1.39,-1.15,0.73,2.97,1.26,
0.349,-1.05,1.29,-1.22,0.73,2.97,1.26,
0.35,-1.05,1.29,-1.22,0.72,3.04,1.26,
0.352,-1.05,1.29,-1.22,0.70,3.09,1.25,
0.354,-1.10,1.18,-1.31,0.70,3.09,1.25,
0.354,-1.10,1.18,-1.31,0.69,3.14,1.23,
0.357,-1.10,1.18,-1.31,0.68,3.17,1.21,
0.359,-1.10,1.18,-1.31,0.67,3.20,1.18,
0.36,-1.08,1.11,-1.30,0.67,3.20,1.18,
0.362,-1.08,1.11,-1.30,0.66,3.22,1.16,
0.365,-1.12,1.11,-1.29,0.66,3.22,1.16,
0.365,-1.12,1.11,-1.29,0.66,3.23,1.13,
0.367,-1.12,1.11,-1.29,0.67,3.23,1.11,
0.369,-1.12,1.11,-1.29,0.69,3.23,1.13,
0.369,-0.82,1.77,-1.37,0.69,3.23,1.13,
0.372,-0.82,1.77,-1.37,0.70,3.26,1.15,
0.374,-0.74,0.98,-1.41,0.70,3.26,1.15,
0.374,-0.74,0.98,-1.41,0.71,3.30,1.11,
0.376,-0.74,0.98,-1.41,0.73,3.34,1.08,
0.379,-1.28,1.28,-1.07,0.73,3.34,1.08,
0.379,-1.28,1.28,-1.07,0.76,3.37,1.06,
0.382,-1.28,1.28,-1.07,0.80,3.39,1.05,
0.384,-1.28,1.28,-1.07,0.84,3.41,1.05,
0.384,-1.55,1.29,-1.00,0.84,3.41,1.05,
0.387,-1.55,1.29,-1.00,0.87,3.44,1.04,
0.389,-1.55,1.29,-1.00,0.91,3.48,1.04,
0.389,-1.39,1.18,-1.09,0.91,3.48,1.04,
0.391,-1.39,1.18,-1.09,0.95,3.52,1.04,
0.394,-1.39,1.18,-1.09,1.00,3.55,1.04,
0.394,-1.45,1.23,-0.79,1.00,3.55,1.04,
0.397,-1.45,1.23,-0.79,1.06,3.58,1.05,
0.399,-1.45,1.23,-0.79,1.12,3.59,1.05,
0.4,-1.64,1.27,-0.21,1.12,3.59,1.05,
0.401,-1.64,1.27,-0.21,1.19,3.61,1.06,
0.404,-1.64,1.27,-0.21,1.26,3.63,1.06,
0.404,-1.58,1.14,0.07,1.26,3.63,1.06,
0.406,-1.58,1.14,0.07,1.32,3.65,1.05,
0.409,-1.58,1.14,0.07,1.38,3.69,1.04,
0.409,-1.52,0.94,-0.09,1.38,3.69,1.04,
0.411,-1.52,0.94,-0.09,1.43,3.74,1.03,
0.414,-1.52,0.94,-0.09,1.46,3.78,1.02,
0.414,-1.70,0.94,-0.46,1.46,3.78,1.02,
0.417,-1.70,0.94,-0.46,1.48,3.83,1.01,
0.419,-1.70,0.94,-0.46,1.49,3.86,1.01,
0.419,-1.98,1.08,-0.70,1.49,3.86,1.01,
0.421,-1.98,1.08,-0.70,1.49,3.90,1.01,
0.424,-1.98,1.08,-0.70,1.48,3.92,1.00,
0.424,-2.02,1.14,-0.70,1.48,3.92,1.00,
0.426,-2.02,1.14,-0.70,1.46,3.93,0.99,
0.429,-2.02,1.14,-0.70,1.45,3.93,0.98,
0.429,-1.95,1.11,-0.48,1.45,3.93,0.98,
0.435,-1.95,1.11,-0.48,1.43,3.92,0.96,
0.436,-1.95,1.11,-0.48,1.41,3.90,0.95,
0.436,-2.06,1.12,-0.15,1.41,3.90,0.95,
0.436,-2.06,1.12,-0.15,1.38,3.87,0.94,
0.439,-2.06,1.12,-0.15,1.36,3.82,0.94,
0.439,-2.20,1.13,0.17,1.36,3.82,0.94,
0.441,-2.20,1.13,0.17,1.33,3.77,0.94,
0.458,-2.20,1.13,0.17,1.31,3.72,0.94,
0.459,-2.24,1.17,0.40,1.31,3.72,0.94,
0.459,-2.24,1.17,0.40,1.28,3.65,0.94,
0.459,-2.29,1.28,0.59,1.28,3.65,0.94,
0.46,-2.29,1.28,0.59,1.25,3.59,0.94,
0.46,-2.29,1.28,0.59,1.22,3.52,0.94,
0.46,-2.29,1.28,0.59,1.19,3.44,0.95,
0.46,-2.40,1.38,0.73,1.19,3.44,0.95,
0.461,-2.40,1.38,0.73,1.16,3.36,0.95,
0.461,-2.40,1.38,0.73,1.12,3.27,0.96,
0.461,-2.56,1.41,0.81,1.12,3.27,0.96,
0.461,-2.56,1.41,0.81,1.09,3.18,0.97,
0.467,-2.90,1.41,0.78,1.09,3.18,0.97,
0.467,-2.90,1.41,0.78,1.05,3.10,0.98,
0.468,-2.90,1.41,0.78,1.02,3.02,0.99,
0.468,-3.05,1.39,0.76,1.02,3.02,0.99,
0.469,-3.05,1.39,0.76,0.98,2.96,0.99,
0.47,-3.05,1.39,0.76,0.95,2.91,0.99,
0.473,-3.05,1.39,0.76,0.92,2.87,0.97,
0.474,-3.12,1.18,0.64,0.92,2.87,0.97,
0.476,-3.12,1.18,0.64,0.88,2.85,0.96,
0.478,-3.12,1.18,0.64,0.85,2.84,0.94,
0.479,-3.45,0.99,0.51,0.85,2.84,0.94,
0.481,-3.45,0.99,0.51,0.82,2.84,0.93,
0.484,-3.45,0.99,0.51,0.80,2.84,0.92,
0.484,-3.75,0.85,0.67,0.80,2.84,0.92,
0.486,-3.75,0.85,0.67,0.78,2.85,0.90,
0.488,-3.75,0.85,0.67,0.77,2.87,0.88,
0.488,-3.85,0.66,0.96,0.77,2.87,0.88,
0.49,-3.85,0.66,0.96,0.76,2.89,0.85,
0.493,-3.85,0.66,0.96,0.76,2.91,0.83,
0.493,-3.82,0.48,1.20,0.76,2.91,0.83,
0.495,-3.82,0.48,1.20,0.76,2.91,0.80,
0.499,-3.82,0.48,1.20,0.75,2.91,0.77,
0.499,-3.83,0.44,1.37,0.75,2.91,0.77,
0.501,-3.83,0.44,1.37,0.75,2.91,0.74,
0.504,-3.83,0.44,1.37,0.74,2.89,0.71,
0.504,-3.86,0.47,1.38,0.74,2.89,0.71,
0.505,-3.86,0.47,1.38,0.73,2.85,0.69,
0.508,-3.86,0.47,1.38,0.71,2.82,0.66,
0.508,-3.81,0.46,1.43,0.71,2.82,0.66,
0.51,-3.81,0.46,1.43,0.70,2.77,0.64,
0.515,-3.75,0.38,1.48,0.70,2.77,0.64,
0.515,-3.75,0.38,1.48,0.68,2.72,0.62,
0.517,-3.75,0.38,1.48,0.66,2.66,0.61,
0.518,-3.72,0.29,1.43,0.66,2.66,0.61,
0.519,-3.72,0.29,1.43,0.63,2.61,0.59,
0.521,-3.72,0.29,1.43,0.60,2.55,0.58,
0.524,-3.72,0.29,1.43,0.57,2.50,0.57,
0.524,-3.69,0.20,1.23,0.57,2.50,0.57,
0.525,-3.69,0.20,1.23,0.54,2.45,0.56,
0.528,-3.69,0.20,1.23,0.50,2.39,0.56,
0.528,-3.67,0.18,1.23,0.50,2.39,0.56,
0.531,-3.67,0.18,1.23,0.47,2.34,0.55,
0.535,-3.67,0.18,1.23,0.44,2.28,0.55,
0.535,-3.64,0.14,1.37,0.44,2.28,0.55,
0.536,-3.64,0.14,1.37,0.41,2.21,0.55,
0.538,-3.64,0.14,1.37,0.39,2.15,0.54,
0.538,-3.60,0.05,1.38,0.39,2.15,0.54,
0.54,-3.60,0.05,1.38,0.37,2.08,0.54,
0.543,-3.60,0.05,1.38,0.34,2.02,0.53,
0.543,-3.54,-0.08,1.29,0.34,2.02,0.53,
0.545,-3.54,-0.08,1.29,0.32,1.96,0.53,
0.55,-3.54,-0.08,1.29,0.30,1.90,0.51,
0.551,-3.42,-0.22,1.22,0.30,1.90,0.51,
0.551,-3.42,-0.22,1.22,0.29,1.83,0.49,
0.553,-3.42,-0.22,1.22,0.28,1.77,0.47,
0.553,-3.40,-0.33,1.18,0.28,1.77,0.47,
0.558,-3.46,-0.45,1.31,0.28,1.77,0.47,
0.564,-3.51,-0.68,1.71,0.28,1.77,0.47,
0.565,-3.51,-0.68,1.71,0.27,1.72,0.46,
0.579,-3.51,-0.68,1.71,0.27,1.68,0.43,
0.579,-3.51,-0.68,1.71,0.28,1.64,0.41,
0.58,-3.51,-0.68,1.71,0.30,1.60,0.39,
0.58,-3.51,-0.68,1.71,0.33,1.58,0.36,
0.581,-3.43,-0.97,1.93,0.33,1.58,0.36,
0.581,-3.43,-0.97,1.93,0.37,1.55,0.33,
0.582,-3.43,-0.97,1.93,0.41,1.54,0.30,
0.582,-3.43,-0.97,1.93,0.45,1.52,0.26,
0.583,-3.33,-1.18,1.98,0.45,1.52,0.26,
0.584,-3.33,-1.18,1.98,0.49,1.51,0.22,
0.584,-3.33,-1.18,1.98,0.53,1.50,0.18,
0.584,-3.32,-1.25,1.93,0.53,1.50,0.18,
0.585,-3.32,-1.25,1.93,0.57,1.48,0.14,
0.585,-3.32,-1.25,1.93,0.60,1.45,0.10,
0.586,-3.29,-1.23,1.89,0.60,1.45,0.10,
0.586,-3.29,-1.23,1.89,0.64,1.43,0.06,
0.589,-3.09,-1.17,1.77,0.64,1.43,0.06,
0.589,-3.09,-1.17,1.77,0.67,1.41,0.01,
0.59,-3.09,-1.17,1.77,0.69,1.39,-0.03,
0.592,-3.09,-1.17,1.77,0.71,1.38,-0.08,
0.593,-2.96,-1.17,1.66,0.71,1.38,-0.08,
0.595,-2.96,-1.17,1.66,0.73,1.37,-0.12,
0.598,-2.96,-1.17,1.66,0.74,1.37,-0.16,
0.598,-2.83,-1.22,1.58,0.74,1.37,-0.16,
0.6,-2.83,-1.22,1.58,0.75,1.37,-0.19,
0.603,-2.83,-1.22,1.58,0.75,1.36,-0.23,
0.603,-2.61,-1.23,1.56,0.75,1.36,-0.23,
0.605,-2.61,-1.23,1.56,0.76,1.35,-0.26,
0.607,-2.61,-1.23,1.56,0.76,1.33,-0.29,
0.623,-2.31,-1.21,1.72,0.76,1.33,-0.29,
0.624,-2.31,-1.21,1.72,0.76,1.31,-0.32,
0.624,-2.31,-1.21,1.72,0.76,1.29,-0.35,
0.624,-2.03,-1.17,1.88,0.76,1.29,-0.35,
0.624,-2.03,-1.17,1.88,0.76,1.26,-0.37,
0.625,-2.03,-1.17,1.88,0.76,1.23,-0.39,
0.625,-1.77,-1.14,1.95,0.76,1.23,-0.39,
0.625,-1.77,-1.14,1.95,0.76,1.21,-0.40,
0.626,-1.58,-1.14,2.00,0.76,1.21,-0.40,
0.626,-1.58,-1.14,2.00,0.75,1.19,-0.40,
0.626,-1.58,-1.14,2.00,0.74,1.17,-0.40,
0.628,-1.44,-1.21,1.94,0.74,1.17,-0.40,
0.629,-1.44,-1.21,1.94,0.73,1.15,-0.40,
0.63,-1.44,-1.21,1.94,0.72,1.13,-0.39,
0.632,-1.44,-1.21,1.94,0.70,1.11,-0.38,
0.633,-1.22,-1.28,1.87,0.70,1.11,-0.38,
0.635,-1.22,-1.28,1.87,0.68,1.09,-0.38,
0.637,-1.07,-1.25,1.93,0.68,1.09,-0.38,
0.637,-1.07,-1.25,1.93,0.66,1.06,-0.37,
0.639,-1.07,-1.25,1.93,0.64,1.03,-0.36,
0.642,-1.07,-1.25,1.93,0.62,1.00,-0.36,
0.642,-1.06,-1.16,2.01,0.62,1.00,-0.36,
0.644,-1.06,-1.16,2.01,0.60,0.97,-0.35,
0.65,-1.03,-1.13,2.00,0.60,0.97,-0.35,
0.65,-1.03,-1.13,2.00,0.57,0.94,-0.34,
0.65,-1.03,-1.13,2.00,0.55,0.91,-0.33,
0.652,-1.03,-1.13,2.00,0.53,0.88,-0.32,
0.652,-1.01,-1.18,1.96,0.53,0.88,-0.32,
0.654,-1.01,-1.18,1.96,0.51,0.86,-0.31,
0.658,-1.01,-1.18,1.96,0.49,0.84,-0.31,
0.658,-0.89,-1.26,2.01,0.49,0.84,-0.31,
0.659,-0.89,-1.26,2.01,0.47,0.83,-0.30,
0.662,-0.89,-1.26,2.01,0.46,0.81,-0.30,
0.662,-0.86,-1.29,1.98,0.46,0.81,-0.30,
0.665,-0.86,-1.29,1.98,0.43,0.81,-0.30,
0.669,-0.86,-1.29,1.98,0.41,0.80,-0.30,
0.669,-0.79,-1.30,1.83,0.41,0.80,-0.30,
0.669,-0.79,-1.30,1.83,0.39,0.80,-0.30,
0.672,-0.79,-1.30,1.83,0.36,0.79,-0.30,
0.673,-0.66,-1.31,1.76,0.36,0.79,-0.30,
0.675,-0.66,-1.31,1.76,0.33,0.78,-0.30,
0.677,-0.66,-1.31,1.76,0.31,0.76,-0.30,
0.677,-0.59,-1.29,1.76,0.31,0.76,-0.30,
0.68,-0.59,-1.29,1.76,0.28,0.74,-0.30,
0.682,-0.59,-1.29,1.76,0.25,0.72,-0.30,
0.686,-0.49,-1.26,1.68,0.25,0.72,-0.30,
0.686,-0.49,-1.26,1.68,0.22,0.70,-0.30,
0.686,-0.49,-1.26,1.68,0.19,0.68,-0.30,
0.687,-0.47,-1.25,1.54,0.19,0.68,-0.30,
0.689,-0.47,-1.25,1.54,0.16,0.68,-0.30,
0.691,-0.47,-1.25,1.54,0.13,0.69,-0.29,
0.692,-0.44,-1.27,1.47,0.13,0.69,-0.29,
0.694,-0.44,-1.27,1.47,0.11,0.71,-0.29,
0.696,-0.44,-1.27,1.47,0.09,0.74,-0.29,
0.697,-0.34,-1.38,1.42,0.09,0.74,-0.29,
0.699,-0.34,-1.38,1.42,0.07,0.77,-0.30,
0.702,-0.34,-1.38,1.42,0.05,0.81,-0.31,
0.702,-0.27,-1.40,1.38,0.05,0.81,-0.31,
0.704,-0.27,-1.40,1.38,0.03,0.84,-0.31,
0.706,-0.27,-1.40,1.38,0.00,0.87,-0.32,
0.707,-0.36,-1.43,1.24,0.00,0.87,-0.32,
0.709,-0.36,-1.43,1.24,-0.02,0.91,-0.32,
0.711,-0.36,-1.43,1.24,-0.05,0.94,-0.33,
0.711,-0.37,-1.43,1.01,-0.05,0.94,-0.33,
0.715,-0.37,-1.43,1.01,-0.08,0.97,-0.33,
0.717,-0.25,-1.49,0.85,-0.08,0.97,-0.33,
0.717,-0.25,-1.49,0.85,-0.11,1.00,-0.34,
0.719,-0.25,-1.49,0.85,-0.14,1.03,-0.35,
0.721,-0.25,-1.49,0.85,-0.17,1.05,-0.36,
0.722,-0.01,-1.52,0.76,-0.17,1.05,-0.36,
0.724,-0.01,-1.52,0.76,-0.20,1.07,-0.38,
0.726,-0.01,-1.52,0.76,-0.22,1.08,-0.39,
0.726,-0.00,-1.49,0.81,-0.22,1.08,-0.39,
0.729,-0.00,-1.49,0.81,-0.25,1.08,-0.40,
0.732,-0.00,-1.49,0.81,-0.27,1.08,-0.40,
0.732,0.02,-1.50,0.80,-0.27,1.08,-0.40,
0.735,0.02,-1.50,0.80,-0.29,1.08,-0.40,
0.736,0.02,-1.50,0.80,-0.31,1.07,-0.40,
0.737,0.20,-1.51,0.75,-0.31,1.07,-0.40,
0.739,0.20,-1.51,0.75,-0.33,1.06,-0.39,
0.741,0.20,-1.51,0.75,-0.35,1.05,-0.38,
0.742,0.13,-1.43,0.54,-0.35,1.05,-0.38,
0.744,0.13,-1.43,0.54,-0.38,1.04,-0.37,
0.747,0.15,-1.33,0.14,-0.38,1.04,-0.37,
0.747,0.15,-1.33,0.14,-0.40,1.03,-0.35,
0.754,0.15,-1.33,0.14,-0.43,1.03,-0.33,
0.756,0.30,-1.31,0.10,-0.43,1.03,-0.33,
0.757,0.30,-1.31,0.10,-0.46,1.01,-0.31,
0.757,0.30,-1.31,0.10,-0.47,0.98,-0.29,
0.758,0.43,-1.31,0.34,-0.47,0.98,-0.29,
0.758,0.43,-1.31,0.34,-0.48,0.94,-0.28,
0.76,0.43,-1.31,0.34,-0.49,0.90,-0.26,
0.761,0.42,-1.22,0.45,-0.49,0.90,-0.26,
0.762,0.42,-1.22,0.45,-0.48,0.85,-0.25,
0.787,0.42,-1.22,0.45,-0.47,0.81,-0.23,
0.787,0.42,-1.22,0.45,-0.46,0.77,-0.21,
0.788,0.26,-1.11,0.27,-0.46,0.77,-0.21,
0.788,0.26,-1.11,0.27,-0.45,0.73,-0.18,
0.788,0.08,-1.01,0.04,-0.45,0.73,-0.18,
0.788,0.08,-1.01,0.04,-0.43,0.70,-0.15,
0.811,0.08,-1.01,0.04,-0.42,0.68,-0.12,
0.812,0.08,-1.01,0.04,-0.40,0.65,-0.10,
0.812,0.15,-0.98,-0.22,-0.40,0.65,-0.10,
0.813,0.15,-0.98,-0.22,-0.39,0.62,-0.08,
0.813,0.15,-0.98,-0.22,-0.36,0.59,-0.06,
0.814,0.19,-0.95,-0.27,-0.36,0.59,-0.06,
0.814,0.19,-0.95,-0.27,-0.33,0.55,-0.04,
0.815,0.19,-0.95,-0.27,-0.30,0.51,-0.03,
0.815,0.18,-0.99,-0.15,-0.30,0.51,-0.03,
0.816,0.18,-0.99,-0.15,-0.25,0.47,-0.02,
0.816,0.18,-0.99,-0.15,-0.21,0.43,-0.02,
0.817,0.19,-0.88,-0.00,-0.21,0.43,-0.02,
0.817,0.19,-0.88,-0.00,-0.20,0.37,-0.01,
0.818,0.19,-0.88,-0.00,-0.23,0.30,0.01,
0.818,0.29,-0.22,0.05,-0.23,0.30,0.01,
0.818,0.29,-0.22,0.05,-0.31,0.22,0.03,
0.819,0.29,-0.22,0.05,-0.45,0.12,0.05,
0.819,0.66,0.72,0.36,-0.45,0.12,0.05,
0.819,0.66,0.72,0.36,-0.65,0.02,0.07,
0.819,0.66,0.72,0.36,-0.89,-0.08,0.09,
0.82,1.10,0.92,1.29,-0.89,-0.08,0.09,
0.82,1.10,0.92,1.29,-1.13,-0.17,0.11,
0.82,1.10,0.92,1.29,-1.33,-0.25,0.13,
0.82,1.10,0.92,1.29,-1.49,-0.31,0.14,
0.821,1.11,-0.02,2.62,-1.49,-0.31,0.14,
0.821,1.11,-0.02,2.62,-1.59,-0.34,0.15,
0.821,0.65,-1.05,3.58,-1.59,-0.34,0.15,
0.821,0.65,-1.05,3.58,-1.63,-0.34,0.17,
0.821,0.28,-1.34,3.44,-1.63,-0.34,0.17,
0.822,0.28,-1.34,3.44,-1.62,-0.32,0.18,
0.825,0.28,-1.34,3.44,-1.57,-0.26,0.19,
0.826,0.28,-1.34,3.44,-1.50,-0.18,0.20,
0.827,-0.07,-0.69,2.77,-1.50,-0.18,0.20,
0.828,-0.07,-0.69,2.77,-1.42,-0.11,0.20,
0.83,-0.07,-0.69,2.77,-1.33,-0.06,0.19,
0.831,-0.25,0.07,2.04,-1.33,-0.06,0.19,
0.833,-0.25,0.07,2.04,-1.24,-0.02,0.19,
0.835,-0.25,0.07,2.04,-1.14,0.00,0.17,
0.835,-0.18,0.49,1.66,-1.14,0.00,0.17,
0.837,-0.18,0.49,1.66,-1.05,0.01,0.15,
0.84,-0.18,0.49,1.66,-0.97,0.01,0.13,
0.84,-0.08,0.63,1.32,-0.97,0.01,0.13,
0.842,-0.08,0.63,1.32,-0.89,0.01,0.12,
0.845,-0.08,0.63,1.32,-0.81,0.00,0.11,
0.845,-0.20,0.89,1.20,-0.81,0.00,0.11,
0.852,-0.20,0.89,1.20,-0.75,-0.02,0.11,
0.853,-0.20,0.89,1.20,-0.69,-0.05,0.11,
0.854,-0.11,1.22,1.17,-0.69,-0.05,0.11,
0.855,-0.11,1.22,1.17,-0.63,-0.09,0.11,
0.859,-0.11,1.22,1.17,-0.59,-0.14,0.12,
0.859,0.28,1.33,1.31,-0.59,-0.14,0.12,
0.859,0.28,1.33,1.31,-0.55,-0.21,0.12,
0.86,0.28,1.33,1.31,-0.52,-0.28,0.12,
0.86,0.63,1.16,1.50,-0.52,-0.28,0.12,
0.862,0.63,1.16,1.50,-0.48,-0.35,0.14,
0.866,0.63,1.16,1.50,-0.45,-0.43,0.16,
0.867,0.61,1.05,1.51,-0.45,-0.43,0.16,
0.867,0.61,1.05,1.51,-0.43,-0.51,0.19,
0.871,0.61,1.05,1.51,-0.40,-0.59,0.23,
0.871,0.56,1.03,1.32,-0.40,-0.59,0.23,
0.873,0.56,1.03,1.32,-0.37,-0.67,0.28,
0.876,0.56,1.03,1.32,-0.34,-0.74,0.33,
0.876,0.66,1.08,1.18,-0.34,-0.74,0.33,
0.877,0.66,1.08,1.18,-0.30,-0.82,0.37,
0.88,0.66,1.08,1.18,-0.26,-0.90,0.42,
0.88,0.71,1.12,1.16,-0.26,-0.90,0.42,
0.883,0.71,1.12,1.16,-0.20,-0.99,0.47,
0.885,0.71,1.12,1.16,-0.14,-1.08,0.52,
0.885,0.65,1.10,1.27,-0.14,-1.08,0.52,
0.887,0.65,1.10,1.27,-0.08,-1.18,0.57,
0.89,0.65,1.10,1.27,-0.02,-1.28,0.62,
0.89,0.36,1.12,1.33,-0.02,-1.28,0.62,
0.892,0.36,1.12,1.33,0.04,-1.36,0.66,
0.895,0.36,1.12,1.33,0.10,-1.43,0.70,
0.895,-0.12,1.04,1.38,0.10,-1.43,0.70,
0.897,-0.12,1.04,1.38,0.15,-1.48,0.72,
0.9,-0.49,0.72,1.23,0.15,-1.48,0.72,
0.9,-0.49,0.72,1.23,0.19,-1.52,0.72,
0.903,-0.49,0.72,1.23,0.21,-1.55,0.71,
0.905,-0.49,0.72,1.23,0.23,-1.57,0.69,
0.905,-0.97,0.45,1.18,0.23,-1.57,0.69,
0.907,-0.97,0.45,1.18,0.23,-1.60,0.66,
0.909,-0.97,0.45,1.18,0.23,-1.60,0.60,
0.91,-1.36,0.28,1.11,0.23,-1.60,0.60,
0.912,-1.36,0.28,1.11,0.22,-1.57,0.55,
0.915,-1.36,0.28,1.11,0.20,-1.50,0.51,
0.915,-2.05,0.11,0.51,0.20,-1.50,0.51,
0.917,-2.05,0.11,0.51,0.19,-1.39,0.46,
0.92,-2.05,0.11,0.51,0.17,-1.25,0.41,
0.92,-2.22,-0.02,-0.19,0.17,-1.25,0.41,
0.922,-2.22,-0.02,-0.19,0.15,-1.08,0.37,
0.925,-2.22,-0.02,-0.19,0.13,-0.90,0.34,
0.925,-2.28,0.12,-0.88,0.13,-0.90,0.34,
0.927,-2.28,0.12,-0.88,0.11,-0.69,0.31,
0.93,-2.28,0.12,-0.88,0.09,-0.48,0.29,
0.93,-1.97,0.42,-1.27,0.09,-0.48,0.29,
0.938,-1.97,0.42,-1.27,0.08,-0.27,0.26,
0.94,-1.48,0.62,-1.50,0.08,-0.27,0.26,
0.94,-1.48,0.62,-1.50,0.07,-0.07,0.24,
0.941,-1.48,0.62,-1.50,0.06,0.11,0.21,
0.969,-0.93,0.79,-1.44,0.06,0.11,0.21,
0.969,-0.93,0.79,-1.44,0.05,0.27,0.19,
0.97,-0.48,0.78,-1.35,0.05,0.27,0.19,
0.97,-0.48,0.78,-1.35,0.04,0.42,0.16,
0.97,-0.48,0.78,-1.35,0.03,0.54,0.14,
0.971,-0.48,0.78,-1.35,0.01,0.63,0.13,
0.971,-0.15,0.69,-1.27,0.01,0.63,0.13,
0.971,0.14,0.65,-1.14,0.01,0.63,0.13,
0.971,0.14,0.65,-1.14,-0.01,0.70,0.12,
0.972,0.14,0.65,-1.14,-0.03,0.76,0.10,
0.972,0.14,0.65,-1.14,-0.06,0.79,0.10,
0.972,0.14,0.65,-1.14,-0.09,0.79,0.09,
0.973,0.14,0.65,-1.14,-0.11,0.76,0.08,
0.973,0.54,0.58,-0.80,-0.11,0.76,0.08,
0.973,0.54,0.58,-0.80,-0.13,0.72,0.08,
0.973,0.54,0.58,-0.80,-0.15,0.67,0.08,
0.974,0.63,0.59,-0.93,-0.15,0.67,0.08,
0.974,0.63,0.59,-0.93,-0.19,0.64,0.09,
0.974,0.63,0.59,-0.93,-0.24,0.62,0.10,
0.974,0.67,0.46,-1.02,-0.24,0.62,0.10,
0.975,0.67,0.46,-1.02,-0.30,0.60,0.12,
0.975,0.67,0.46,-1.02,-0.37,0.60,0.15,
0.975,0.75,0.25,-0.91,-0.37,0.60,0.15,
0.976,0.75,0.25,-0.91,-0.47,0.60,0.19,
0.981,0.75,0.25,-0.91,-0.58,0.59,0.21,
0.981,0.74,-0.03,-0.33,-0.58,0.59,0.21,
0.982,0.74,-0.03,-0.33,-0.70,0.58,0.23,
0.985,0.74,-0.03,-0.33,-0.83,0.55,0.26,
0.986,0.83,-0.60,0.47,-0.83,0.55,0.26,
0.986,0.83,-0.60,0.47,-0.96,0.52,0.28,
0.99,0.83,-0.60,0.47,-1.05,0.49,0.27,
0.991,1.03,-0.22,0.98,-1.05,0.49,0.27,
0.991,1.03,-0.22,0.98,-1.11,0.43,0.26,
0.995,1.03,-0.22,0.98,-1.12,0.36,0.24,
0.995,0.85,-0.24,0.90,-1.12,0.36,0.24,
0.997,0.85,-0.24,0.90,-1.08,0.27,0.21,
1.0,0.75,-0.09,0.38,-1.08,0.27,0.21,
1.001,0.75,-0.09,0.38,-0.99,0.18,0.17,
1.001,0.75,-0.09,0.38,-0.89,0.08,0.13,
1.004,0.75,-0.09,0.38,-0.76,-0.01,0.09,
1.004,0.52,-0.13,-0.35,-0.76,-0.01,0.09,
1.006,0.52,-0.13,-0.35,-0.64,-0.09,0.08,
1.009,0.52,-0.13,-0.35,-0.52,-0.14,0.06,
1.009,0.45,-0.07,-0.80,-0.52,-0.14,0.06,
1.011,0.45,-0.07,-0.80,-0.41,-0.17,0.06,
1.013,0.45,-0.07,-0.80,-0.32,-0.18,0.07,
1.014,0.48,-0.07,-0.95,-0.32,-0.18,0.07,
1.017,0.48,-0.07,-0.95,-0.24,-0.16,0.09,
1.019,0.48,-0.07,-0.95,-0.17,-0.11,0.10,
1.019,0.51,0.17,-0.88,-0.17,-0.11,0.10,
1.021,0.51,0.17,-0.88,-0.11,-0.07,0.11,
1.023,0.32,-0.02,-0.73,-0.11,-0.07,0.11,
1.024,0.32,-0.02,-0.73,-0.06,-0.02,0.11,
1.026,0.32,-0.02,-0.73,-0.03,0.03,0.12,
1.028,0.32,-0.02,-0.73,-0.01,0.08,0.12,
1.028,0.20,-0.09,-0.78,-0.01,0.08,0.12,
1.035,0.20,-0.09,-0.78,0.00,0.15,0.12,
1.036,0.09,-0.05,-0.86,0.00,0.15,0.12,
1.036,0.09,-0.05,-0.86,-0.00,0.21,0.10,
1.037,0.09,-0.05,-0.86,-0.02,0.25,0.07,
1.039,-0.28,-0.40,-0.79,-0.02,0.25,0.07,
1.039,-0.28,-0.40,-0.79,-0.04,0.29,0.04,
1.041,-0.28,-0.40,-0.79,-0.08,0.32,0.02,
1.043,-0.26,-0.64,-0.41,-0.08,0.32,0.02,
1.044,-0.26,-0.64,-0.41,-0.12,0.35,0.01,
1.046,-0.26,-0.64,-0.41,-0.16,0.39,-0.01,
1.049,0.13,-0.78,0.11,-0.16,0.39,-0.01,
1.049,0.13,-0.78,0.11,-0.19,0.42,-0.04,
1.051,0.13,-0.78,0.11,-0.21,0.44,-0.07,
1.055,-0.04,-0.73,0.31,-0.21,0.44,-0.07,
1.055,-0.04,-0.73,0.31,-0.23,0.47,-0.09,
1.056,-0.04,-0.73,0.31,-0.25,0.48,-0.10,
1.058,-0.04,-0.70,0.39,-0.25,0.48,-0.10,
1.058,-0.04,-0.70,0.39,-0.26,0.48,-0.11,
1.06,-0.04,-0.70,0.39,-0.26,0.49,-0.11,
1.063,-0.04,-0.70,0.39,-0.26,0.48,-0.12,
1.063,0.08,-0.77,0.45,-0.26,0.48,-0.12,
1.066,0.08,-0.77,0.45,-0.26,0.47,-0.13,
1.068,-0.01,-0.61,0.41,-0.26,0.47,-0.13,
1.069,-0.01,-0.61,0.41,-0.25,0.46,-0.14,
1.073,-0.01,-0.61,0.41,-0.24,0.44,-0.15,
1.073,-0.23,-0.37,0.02,-0.24,0.44,-0.15,
1.073,-0.23,-0.37,0.02,-0.24,0.43,-0.15,
1.076,-0.23,-0.37,0.02,-0.25,0.42,-0.15,
1.078,-0.32,-0.24,-0.28,-0.25,0.42,-0.15,
1.078,-0.32,-0.24,-0.28,-0.26,0.41,-0.14,
1.08,-0.32,-0.24,-0.28,-0.27,0.40,-0.13,
1.084,-0.23,-0.08,-0.46,-0.27,0.40,-0.13,
1.084,-0.23,-0.08,-0.46,-0.28,0.38,-0.12,
1.086,-0.23,-0.08,-0.46,-0.29,0.37,-0.12,
1.088,-0.24,0.04,-0.53,-0.29,0.37,-0.12,
1.089,-0.24,0.04,-0.53,-0.29,0.36,-0.11,
1.09,-0.24,0.04,-0.53,-0.29,0.36,-0.10,
1.093,-0.24,0.04,-0.53,-0.28,0.35,-0.10,
1.093,-0.10,-0.01,-0.49,-0.28,0.35,-0.10,
1.095,-0.10,-0.01,-0.49,-0.27,0.34,-0.10,
1.098,-0.10,-0.01,-0.49,-0.27,0.33,-0.09,
1.099,-0.21,0.07,-0.48,-0.27,0.33,-0.09,
1.101,-0.21,0.07,-0.48,-0.27,0.32,-0.07,
1.103,-0.21,0.07,-0.48,-0.27,0.32,-0.06,
1.126,-0.14,0.19,-0.50,-0.27,0.32,-0.06,
1.127,-0.14,0.19,-0.50,-0.28,0.32,-0.05,
1.127,-0.14,0.19,-0.50,-0.29,0.31,-0.04,
1.127,0.05,0.24,-0.29,-0.29,0.31,-0.04,
1.127,0.05,0.24,-0.29,-0.30,0.31,-0.04,
1.128,0.05,0.24,-0.29,-0.31,0.29,-0.04,
1.128,-0.01,0.23,0.08,-0.31,0.29,-0.04,
1.128,-0.01,0.23,0.08,-0.32,0.28,-0.03,
1.129,-0.01,0.23,0.08,-0.32,0.26,-0.02,
1.129,-0.23,0.09,0.44,-0.32,0.26,-0.02,
1.129,-0.23,0.09,0.44,-0.32,0.26,-0.01,
1.129,-0.23,0.09,0.44,-0.32,0.28,-0.00,
1.13,-0.39,-0.12,0.59,-0.32,0.28,-0.00,
1.13,-0.49,-0.25,0.64,-0.32,0.28,-0.00,
1.13,-0.49,-0.25,0.64,-0.31,0.31,0.00,
1.13,-0.49,-0.25,0.64,-0.31,0.37,0.01,
1.131,-0.49,-0.25,0.64,-0.31,0.43,0.01,
1.135,-0.50,-0.34,0.67,-0.31,0.43,0.01,
1.136,-0.50,-0.34,0.67,-0.30,0.49,0.02,
1.136,-0.50,-0.34,0.67,-0.30,0.55,0.02,
1.138,-0.52,-0.29,0.71,-0.30,0.55,0.02,
1.138,-0.52,-0.29,0.71,-0.30,0.60,0.02,
1.14,-0.52,-0.29,0.71,-0.30,0.64,0.01,
1.143,-0.52,-0.29,0.71,-0.30,0.67,0.01,
1.143,-0.47,-0.31,0.80,-0.30,0.67,0.01,
1.145,-0.47,-0.31,0.80,-0.30,0.69,-0.01,
1.148,-0.47,-0.31,0.80,-0.31,0.71,-0.01,
1.148,-0.54,-0.30,0.66,-0.31,0.71,-0.01,
1.155,-0.54,-0.30,0.66,-0.32,0.73,-0.02,
1.156,-0.54,-0.30,0.66,-0.32,0.74,-0.02,
1.156,-0.47,-0.22,0.54,-0.32,0.74,-0.02,
1.156,-0.47,-0.22,0.54,-0.33,0.75,-0.03,
1.158,-0.47,-0.22,0.54,-0.34,0.76,-0.04,
1.158,-0.36,-0.06,0.51,-0.34,0.76,-0.04,
1.16,-0.36,-0.06,0.51,-0.34,0.75,-0.05,
1.163,-0.37,0.27,0.43,-0.34,0.75,-0.05,
1.163,-0.37,0.27,0.43,-0.35,0.74,-0.05,
1.17,3.88,6.43,-0.54,-0.35,0.74,-0.05,
1.171,3.88,6.43,-0.54,-0.31,0.65,-0.03,
1.171,3.88,6.43,-0.54,0.01,0.14,0.15,
1.171,3.88,6.43,-0.54,0.02,0.09,0.24,
1.172,3.88,6.43,-0.54,-0.10,0.16,0.22,
1.173,5.03,0.71,-0.96,-0.10,0.16,0.22,
1.175,5.03,0.71,-0.96,-0.21,0.07,0.21,
1.178,5.03,0.71,-0.96,-0.34,-0.12,0.27,
1.178,2.15,2.72,1.91,-0.34,-0.12,0.27,
1.179,2.15,2.72,1.91,-0.44,-0.25,0.36,
1.182,2.19,0.50,2.25,-0.44,-0.25,0.36,
1.182,2.19,0.50,2.25,-0.52,-0.31,0.44,
1.185,2.19,0.50,2.25,-0.57,-0.26,0.52,
1.187,2.19,0.50,2.25,-0.57,-0.15,0.60,
1.187,2.36,-0.64,2.63,-0.57,-0.15,0.60,
1.19,2.36,-0.64,2.63,-0.51,-0.03,0.65,
1.192,1.63,-0.39,1.70,-0.51,-0.03,0.65,
1.192,1.63,-0.39,1.70,-0.41,0.09,0.69,
1.194,1.63,-0.39,1.70,-0.30,0.17,0.69,
1.197,1.63,-0.39,1.70,-0.18,0.23,0.68,
1.197,0.92,0.22,0.50,-0.18,0.23,0.68,
1.2,0.92,0.22,0.50,-0.09,0.28,0.64,
1.202,0.46,0.47,-0.25,-0.09,0.28,0.64,
1.202,0.46,0.47,-0.25,-0.02,0.31,0.56,
1.205,0.46,0.47,-0.25,0.02,0.28,0.45,
1.207,0.46,0.47,-0.25,0.05,0.20,0.33,
1.207,-0.61,-0.16,-0.31,0.05,0.20,0.33,
1.209,-0.61,-0.16,-0.31,0.09,0.09,0.19,
1.212,-1.40,-0.84,-0.16,0.09,0.09,0.19,
1.213,-1.40,-0.84,-0.16,0.13,-0.04,0.03,
1.215,-1.40,-0.84,-0.16,0.17,-0.16,-0.12,
1.218,-2.05,-0.87,-0.33,0.17,-0.16,-0.12,
1.219,-2.05,-0.87,-0.33,0.22,-0.25,-0.25,
1.222,-2.05,-0.87,-0.33,0.25,-0.31,-0.35,
1.222,-1.92,-0.32,-0.54,0.25,-0.31,-0.35,
1.223,-1.92,-0.32,-0.54,0.27,-0.33,-0.41,
1.224,-1.92,-0.32,-0.54,0.27,-0.30,-0.44,
1.227,-1.47,0.14,-0.50,0.27,-0.30,-0.44,
1.227,-1.47,0.14,-0.50,0.25,-0.24,-0.45,
1.229,-1.47,0.14,-0.50,0.22,-0.16,-0.44,
1.233,-1.34,0.20,-0.15,0.22,-0.16,-0.44,
1.233,-1.34,0.20,-0.15,0.18,-0.09,-0.41,
1.234,-1.34,0.20,-0.15,0.14,-0.02,-0.36,
1.237,-1.25,-0.02,0.37,0.14,-0.02,-0.36,
1.237,-1.25,-0.02,0.37,0.10,0.05,-0.32,
1.239,-1.25,-0.02,0.37,0.06,0.11,-0.27,
1.244,-1.14,-0.31,0.89,0.06,0.11,-0.27,
1.244,-1.14,-0.31,0.89,0.05,0.16,-0.23,
1.247,-1.14,-0.31,0.89,0.04,0.19,-0.19,
1.247,-1.14,-0.31,0.89,0.04,0.18,-0.16,
1.248,-0.96,-0.39,1.19,0.04,0.18,-0.16,
1.256,-0.96,-0.39,1.19,0.05,0.15,-0.15,
1.258,-0.83,-0.20,1.14,0.05,0.15,-0.15,
1.258,-0.83,-0.20,1.14,0.05,0.08,-0.14,
1.259,-0.83,-0.20,1.14,0.05,-0.00,-0.14,
1.259,-0.71,-0.04,0.86,0.05,-0.00,-0.14,
1.259,-0.71,-0.04,0.86,0.04,-0.10,-0.14,
1.26,-0.71,-0.04,0.86,0.03,-0.20,-0.14,
1.262,-0.74,0.05,0.55,0.03,-0.20,-0.14,
1.263,-0.74,0.05,0.55,0.02,-0.30,-0.15,
1.264,-0.74,0.05,0.55,0.01,-0.38,-0.15,
1.278,-0.82,-0.01,0.38,0.01,-0.38,-0.15,
1.279,-0.82,-0.01,0.38,0.01,-0.44,-0.15,
1.302,-0.82,-0.01,0.38,0.02,-0.49,-0.15,
1.302,-0.82,-0.01,0.38,0.03,-0.52,-0.14,
1.302,-0.88,-0.04,0.25,0.03,-0.52,-0.14,
1.302,-0.88,-0.04,0.25,0.05,-0.54,-0.13,
1.303,-0.88,-0.04,0.25,0.07,-0.55,-0.13,
1.303,-0.89,-0.06,0.20,0.07,-0.55,-0.13,
1.303,-0.89,-0.06,0.20,0.10,-0.56,-0.12,
1.303,-0.89,-0.06,0.20,0.13,-0.56,-0.12,
1.303,-0.96,-0.16,0.17,0.13,-0.56,-0.12,
1.303,-0.96,-0.16,0.17,0.15,-0.56,-0.12,
1.304,-0.96,-0.16,0.17,0.16,-0.55,-0.11,
1.304,-1.02,-0.26,0.20,0.16,-0.55,-0.11,
1.304,-1.02,-0.26,0.20,0.19,-0.53,-0.11,
1.304,-1.02,-0.26,0.20,0.21,-0.50,-0.12,
1.304,-0.79,-0.22,0.10,0.21,-0.50,-0.12,
1.304,-0.79,-0.22,0.10,0.23,-0.48,-0.13,
1.305,-0.79,-0.22,0.10,0.25,-0.46,-0.14,
1.305,-0.69,-0.03,-0.02,0.25,-0.46,-0.14,
1.305,-0.69,-0.03,-0.02,0.27,-0.45,-0.15,
1.305,-0.65,-0.05,-0.13,0.27,-0.45,-0.15,
1.305,-0.65,-0.05,-0.13,0.28,-0.44,-0.15,
1.305,-0.65,-0.05,-0.13,0.30,-0.42,-0.16,
1.306,-0.65,-0.05,-0.13,0.31,-0.40,-0.17,
1.307,-0.54,-0.16,-0.04,0.31,-0.40,-0.17,
1.31,-0.54,-0.16,-0.04,0.33,-0.37,-0.17,
1.311,-0.54,-0.16,-0.04,0.34,-0.35,-0.17,
1.312,-0.54,-0.26,0.01,0.34,-0.35,-0.17,
1.315,-0.54,-0.26,0.01,0.34,-0.33,-0.17,
1.317,-0.56,-0.41,0.22,0.34,-0.33,-0.17,
1.319,-0.56,-0.41,0.22,0.34,-0.32,-0.17,
1.319,-0.56,-0.41,0.22,0.33,-0.31,-0.17,
1.322,-0.56,-0.41,0.22,0.31,-0.31,-0.18,
1.322,-0.51,-0.55,0.47,0.31,-0.31,-0.18,
1.324,-0.51,-0.55,0.47,0.30,-0.31,-0.18,
1.327,-0.51,-0.55,0.47,0.28,-0.31,-0.19,
1.327,-0.53,-0.63,0.75,0.28,-0.31,-0.19,
1.328,-0.53,-0.63,0.75,0.27,-0.32,-0.20,
1.331,-0.53,-0.63,0.75,0.26,-0.32,-0.21,
1.331,-0.66,-0.58,0.79,0.26,-0.32,-0.21,
1.338,-0.66,-0.58,0.79,0.24,-0.32,-0.21,
1.339,-0.66,-0.58,0.79,0.23,-0.32,-0.22,
1.339,-0.77,-0.47,0.60,0.23,-0.32,-0.22,
1.339,-0.77,-0.47,0.60,0.22,-0.32,-0.23,
1.342,-0.77,-0.47,0.60,0.21,-0.32,-0.24,
1.342,-1.00,-0.31,0.18,0.21,-0.32,-0.24,
1.345,-1.00,-0.31,0.18,0.19,-0.32,-0.25,
1.346,-1.00,-0.31,0.18,0.18,-0.31,-0.25,
1.346,-1.02,-0.08,-0.11,0.18,-0.31,-0.25,
1.352,-1.02,-0.08,-0.11,0.17,-0.29,-0.27,
1.352,-1.02,-0.08,-0.11,0.16,-0.27,-0.28,
1.353,-0.94,0.00,-0.27,0.16,-0.27,-0.28,
1.353,-0.94,0.00,-0.27,0.17,-0.25,-0.30,
1.356,-0.94,0.00,-0.27,0.17,-0.23,-0.32,
1.356,-1.12,0.10,-0.54,0.17,-0.23,-0.32,
1.358,-1.12,0.10,-0.54,0.17,-0.20,-0.33,
1.36,-1.12,0.10,-0.54,0.17,-0.18,-0.34,
1.361,-1.19,0.12,-0.61,0.17,-0.18,-0.34,
1.363,-1.19,0.12,-0.61,0.17,-0.15,-0.36,
1.365,-1.04,0.07,-0.41,0.17,-0.15,-0.36,
1.366,-1.04,0.07,-0.41,0.18,-0.11,-0.36,
1.369,-1.04,0.07,-0.41,0.19,-0.08,-0.37,
1.37,-1.04,0.07,-0.41,0.20,-0.05,-0.35,
1.371,-0.58,0.76,-0.32,0.20,-0.05,-0.35,
1.373,-0.58,0.76,-0.32,0.19,0.03,-0.23,
1.376,-0.58,0.76,-0.32,0.11,0.20,0.06,
1.376,3.79,5.95,-1.71,0.11,0.20,0.06,
1.378,3.79,5.95,-1.71,0.04,0.40,0.39,
1.381,3.79,5.95,-1.71,0.07,0.49,0.61,
1.381,7.59,0.55,-0.01,0.07,0.49,0.61,
1.383,7.59,0.55,-0.01,0.18,0.47,0.63,
1.385,7.59,0.55,-0.01,0.29,0.31,0.53,
1.386,3.30,-2.35,2.94,0.29,0.31,0.53,
1.388,3.30,-2.35,2.94,0.37,0.03,0.41,
1.391,3.30,-2.35,2.94,0.38,-0.26,0.29,
1.391,-0.59,-0.81,1.86,0.38,-0.26,0.29,
1.393,-0.59,-0.81,1.86,0.34,-0.50,0.12,
1.396,-0.59,-0.81,1.86,0.28,-0.69,-0.08,
1.396,0.00,-0.58,0.19,0.28,-0.69,-0.08,
1.398,0.00,-0.58,0.19,0.23,-0.86,-0.29,
1.4,0.00,-0.58,0.19,0.18,-1.04,-0.47,
1.402,-0.76,-0.66,-0.39,0.18,-1.04,-0.47,
1.403,-0.76,-0.66,-0.39,0.15,-1.17,-0.61,
1.405,-0.76,-0.66,-0.39,0.13,-1.24,-0.71,
1.405,-1.56,-0.63,-1.08,0.13,-1.24,-0.71,
1.408,-1.56,-0.63,-1.08,0.12,-1.22,-0.78,
1.41,-1.56,-0.63,-1.08,0.13,-1.12,-0.81,
1.41,-1.87,-0.64,-1.70,0.13,-1.12,-0.81,
1.412,-1.87,-0.64,-1.70,0.14,-0.97,-0.81,
1.415,-2.07,-0.54,-2.17,0.14,-0.97,-0.81,
1.416,-2.07,-0.54,-2.17,0.15,-0.77,-0.78,
1.418,-2.07,-0.54,-2.17,0.16,-0.56,-0.72,
1.42,-2.07,-0.54,-2.17,0.15,-0.34,-0.64,
1.42,-1.67,-0.32,-2.22,0.15,-0.34,-0.64,
1.422,-1.67,-0.32,-2.22,0.12,-0.13,-0.57,
1.425,-1.67,-0.32,-2.22,0.09,0.05,-0.50,
1.425,-0.94,-0.16,-1.94,0.09,0.05,-0.50,
1.427,-0.94,-0.16,-1.94,0.03,0.21,-0.43,
1.43,-0.41,-0.08,-1.74,0.03,0.21,-0.43,
1.43,-0.41,-0.08,-1.74,-0.04,0.32,-0.36,
1.432,-0.41,-0.08,-1.74,-0.11,0.42,-0.31,
1.449,-0.00,-0.30,-1.16,-0.11,0.42,-0.31,
1.449,-0.00,-0.30,-1.16,-0.18,0.47,-0.27,
1.45,-0.00,-0.30,-1.16,-0.23,0.48,-0.24,
1.45,0.30,-0.67,-0.43,-0.23,0.48,-0.24,
1.45,0.30,-0.67,-0.43,-0.27,0.46,-0.22,
1.45,0.30,-0.67,-0.43,-0.30,0.42,-0.22,
1.45,0.30,-0.67,-0.43,-0.32,0.37,-0.22,
1.45,0.60,-0.97,0.13,-0.32,0.37,-0.22,
1.451,0.60,-0.97,0.13,-0.32,0.30,-0.24,
1.467,0.54,-0.86,0.23,-0.32,0.30,-0.24,
1.467,0.54,-0.86,0.23,-0.32,0.22,-0.26,
1.468,0.54,-0.86,0.23,-0.33,0.15,-0.26,
1.468,0.54,-0.64,-0.03,-0.33,0.15,-0.26,
1.468,0.54,-0.64,-0.03,-0.33,0.08,-0.27,
1.468,0.54,-0.64,-0.03,-0.34,0.03,-0.26,
1.469,0.61,-0.62,-0.00,-0.34,0.03,-0.26,
1.469,0.61,-0.62,-0.00,-0.34,-0.01,-0.26,
1.469,0.61,-0.62,-0.00,-0.33,-0.04,-0.25,
1.469,0.61,-0.62,-0.00,-0.33,-0.07,-0.24,
1.47,0.55,-0.64,0.09,-0.33,-0.07,-0.24,
1.47,0.55,-0.64,0.09,-0.32,-0.09,-0.21,
1.47,0.73,-0.88,0.24,-0.32,-0.09,-0.21,
1.47,0.73,-0.88,0.24,-0.32,-0.08,-0.20,
1.472,0.73,-0.88,0.24,-0.30,-0.08,-0.18,
1.475,0.73,-0.88,0.24,-0.30,-0.07,-0.15,
1.475,0.72,-0.85,0.28,-0.30,-0.07,-0.15,
1.477,0.72,-0.85,0.28,-0.30,-0.06,-0.12,
1.479,0.72,-0.85,0.28,-0.30,-0.05,-0.11,
1.48,0.87,-0.84,0.29,-0.30,-0.05,-0.11,
1.485,0.87,-0.84,0.29,-0.29,-0.04,-0.09,
1.486,0.92,-0.80,0.21,-0.29,-0.04,-0.09,
1.486,0.92,-0.80,0.21,-0.30,-0.04,-0.07,
1.487,0.92,-0.80,0.21,-0.30,-0.04,-0.05,
1.49,0.92,-0.80,0.21,-0.30,-0.03,-0.05,
1.49,1.09,-0.97,0.24,-0.30,-0.03,-0.05,
1.492,1.09,-0.97,0.24,-0.29,-0.03,-0.05,
1.495,0.93,-1.01,0.13,-0.29,-0.03,-0.05,
1.495,0.93,-1.01,0.13,-0.28,-0.03,-0.04,
1.497,0.93,-1.01,0.13,-0.28,-0.03,-0.02,
1.5,1.03,-1.12,-0.07,-0.28,-0.03,-0.02,
1.5,1.03,-1.12,-0.07,-0.28,-0.01,-0.02,
1.502,1.03,-1.12,-0.07,-0.28,0.01,-0.01,
1.505,0.87,-1.06,-0.32,-0.28,0.01,-0.01,
1.506,0.87,-1.06,-0.32,-0.28,0.03,-0.01,
1.508,0.87,-1.06,-0.32,-0.29,0.04,0.00,
1.51,0.84,-1.00,-0.62,-0.29,0.04,0.00,
1.51,0.84,-1.00,-0.62,-0.30,0.06,0.01,
1.512,0.84,-1.00,-0.62,-0.31,0.08,0.02,
1.515,0.94,-0.96,-0.75,-0.31,0.08,0.02,
1.516,0.94,-0.96,-0.75,-0.33,0.10,0.04,
1.517,0.94,-0.96,-0.75,-0.35,0.13,0.05,
1.52,0.88,-1.02,-0.66,-0.35,0.13,0.05,
1.521,0.88,-1.02,-0.66,-0.36,0.15,0.05,
1.522,0.88,-1.02,-0.66,-0.38,0.18,0.06,
1.524,0.79,-1.15,-0.59,-0.38,0.18,0.06,
1.525,0.79,-1.15,-0.59,-0.40,0.21,0.08,
1.527,0.79,-1.15,-0.59,-0.42,0.25,0.09,
1.529,0.79,-1.15,-0.59,-0.44,0.29,0.10,
1.529,0.74,-1.29,-0.43,-0.44,0.29,0.10,
1.531,0.74,-1.29,-0.43,-0.46,0.35,0.11,
1.536,0.66,-1.32,-0.28,-0.46,0.35,0.11,
1.537,0.66,-1.32,-0.28,-0.47,0.40,0.12,
1.537,0.66,-1.32,-0.28,-0.49,0.46,0.13,
1.539,0.58,-1.49,-0.07,-0.49,0.46,0.13,
1.54,0.58,-1.49,-0.07,-0.52,0.52,0.15,
1.542,0.58,-1.49,-0.07,-0.54,0.58,0.15,
1.544,0.38,-1.61,0.10,-0.54,0.58,0.15,
1.545,0.38,-1.61,0.10,-0.56,0.64,0.16,
1.546,0.38,-1.61,0.10,-0.57,0.70,0.17,
1.55,0.26,-1.71,0.31,-0.57,0.70,0.17,
1.55,0.26,-1.71,0.31,-0.58,0.76,0.18,
1.551,0.26,-1.71,0.31,-0.57,0.81,0.19,
1.554,0.26,-1.71,0.31,-0.56,0.87,0.20,
1.554,0.16,-1.82,0.50,-0.56,0.87,0.20,
1.556,0.16,-1.82,0.50,-0.55,0.91,0.21,
1.559,0.16,-1.82,0.50,-0.52,0.94,0.22,
1.559,-0.07,-1.89,0.65,-0.52,0.94,0.22,
1.561,-0.07,-1.89,0.65,-0.51,0.96,0.23,
1.564,-0.07,-1.89,0.65,-0.50,0.97,0.23,
1.564,0.01,-1.67,0.68,-0.50,0.97,0.23,
1.567,0.01,-1.67,0.68,-0.49,0.98,0.22,
1.569,0.16,-1.56,0.82,-0.49,0.98,0.22,
1.57,0.16,-1.56,0.82,-0.49,0.96,0.21,
1.571,0.16,-1.56,0.82,-0.50,0.94,0.20,
1.574,0.16,-1.56,0.82,-0.51,0.92,0.19,
1.574,0.21,-1.39,0.98,-0.51,0.92,0.19,
1.576,0.21,-1.39,0.98,-0.51,0.89,0.18,
1.579,0.21,-1.39,0.98,-0.52,0.87,0.18,
1.579,0.27,-1.44,1.09,-0.52,0.87,0.18,
1.581,0.27,-1.44,1.09,-0.52,0.85,0.17,
1.585,0.29,-1.53,1.18,-0.52,0.85,0.17,
1.586,0.29,-1.53,1.18,-0.51,0.84,0.18,
1.586,0.29,-1.53,1.18,-0.50,0.83,0.18,
1.589,0.43,-1.51,1.09,-0.50,0.83,0.18,
1.589,0.43,-1.51,1.09,-0.50,0.83,0.19,
1.592,0.43,-1.51,1.09,-0.49,0.83,0.20,
1.594,0.65,-1.30,0.92,-0.49,0.83,0.20,
1.594,0.65,-1.30,0.92,-0.49,0.83,0.22,
1.596,0.65,-1.30,0.92,-0.50,0.84,0.24,
1.599,0.90,-1.11,0.75,-0.50,0.84,0.24,
1.623,0.90,-1.11,0.75,-0.51,0.85,0.26,
1.624,0.90,-1.11,0.75,-0.54,0.87,0.28,
1.624,1.18,-0.85,0.50,-0.54,0.87,0.28,
1.624,1.18,-0.85,0.50,-0.57,0.90,0.30,
1.624,1.18,-0.85,0.50,-0.60,0.93,0.33,
1.625,1.18,-0.85,0.50,-0.65,0.96,0.36,
1.625,1.34,-0.70,0.28,-0.65,0.96,0.36,
1.625,1.34,-0.70,0.28,-0.69,0.99,0.39,
1.625,1.34,-0.70,0.28,-0.73,1.01,0.43,
1.626,1.38,-0.66,0.37,-0.73,1.01,0.43,
1.626,1.38,-0.66,0.37,-0.76,1.03,0.48,
1.626,1.38,-0.66,0.37,-0.78,1.05,0.52,
1.627,1.64,-0.68,0.62,-0.78,1.05,0.52,
1.627,1.64,-0.68,0.62,-0.80,1.06,0.56,
1.627,1.92,-0.76,0.80,-0.80,1.06,0.56,
1.627,1.92,-0.76,0.80,-0.81,1.07,0.61,
1.628,1.92,-0.76,0.80,-0.81,1.07,0.65,
1.63,1.95,-0.55,0.71,-0.81,1.07,0.65,
1.63,1.95,-0.55,0.71,-0.81,1.07,0.70,
1.632,1.95,-0.55,0.71,-0.82,1.07,0.76,
1.634,2.25,-0.22,0.50,-0.82,1.07,0.76,
1.635,2.25,-0.22,0.50,-0.83,1.06,0.82,
1.636,2.25,-0.22,0.50,-0.83,1.05,0.88,
1.639,2.25,-0.22,0.50,-0.84,1.03,0.94,
1.639,2.73,0.03,0.55,-0.84,1.03,0.94,
1.641,2.73,0.03,0.55,-0.85,1.00,0.99,
1.643,2.73,0.03,0.55,-0.85,0.96,1.05,
1.644,3.04,0.13,0.75,-0.85,0.96,1.05,
1.646,3.04,0.13,0.75,-0.86,0.91,1.11,
1.648,3.04,0.13,0.75,-0.87,0.86,1.17,
1.649,3.54,0.25,0.87,-0.87,0.86,1.17,
1.651,3.54,0.25,0.87,-0.88,0.80,1.21,
1.654,3.54,0.25,0.87,-0.90,0.73,1.26,
1.654,3.98,0.56,0.86,-0.90,0.73,1.26,
1.656,3.98,0.56,0.86,-0.93,0.64,1.30,
1.659,3.98,0.56,0.86,-0.96,0.55,1.35,
1.659,4.35,0.92,0.71,-0.96,0.55,1.35,
1.661,4.35,0.92,0.71,-1.00,0.46,1.41,
1.664,4.87,1.54,0.34,-1.00,0.46,1.41,
1.664,4.87,1.54,0.34,-1.03,0.39,1.49,
1.67,4.87,1.54,0.34,-1.05,0.33,1.57,
1.67,5.54,2.57,-0.30,-1.05,0.33,1.57,
1.671,5.54,2.57,-0.30,-1.05,0.30,1.66,
1.675,5.54,2.57,-0.30,-1.06,0.27,1.75,
1.675,5.54,2.57,-0.30,-1.06,0.23,1.83,
1.675,5.66,3.74,-1.34,-1.06,0.23,1.83,
1.68,4.88,4.52,-2.19,-1.06,0.23,1.83,
1.702,4.20,4.61,-2.72,-1.06,0.23,1.83,
1.703,4.20,4.61,-2.72,-1.06,0.16,1.91,
1.703,4.20,4.61,-2.72,-1.07,0.04,1.98,
1.703,4.20,4.61,-2.72,-1.08,-0.09,2.05,
1.703,4.20,4.61,-2.72,-1.08,-0.24,2.10,
1.703,4.20,4.61,-2.72,-1.06,-0.42,2.14,
1.703,4.20,4.61,-2.72,-1.02,-0.58,2.18,
1.703,3.61,4.32,-2.52,-1.02,-0.58,2.18,
1.704,3.61,4.32,-2.52,-0.95,-0.71,2.21,
1.704,3.61,4.32,-2.52,-0.84,-0.82,2.22,
1.704,2.92,3.95,-2.11,-0.84,-0.82,2.22,
1.704,2.92,3.95,-2.11,-0.71,-0.91,2.21,
1.704,2.92,3.95,-2.11,-0.58,-1.00,2.18,
1.704,1.89,3.55,-1.98,-0.58,-1.00,2.18,
1.704,1.89,3.55,-1.98,-0.44,-1.06,2.12,
1.704,1.89,3.55,-1.98,-0.29,-1.07,2.07,
1.705,0.98,3.11,-2.58,-0.29,-1.07,2.07,
1.709,0.18,2.91,-3.49,-0.29,-1.07,2.07,
1.709,0.18,2.91,-3.49,-0.12,-0.99,2.03,
1.709,0.18,2.91,-3.49,0.02,-0.91,1.99,
1.71,0.18,2.91,-3.49,0.12,-0.85,1.93,
1.713,0.18,2.91,-3.49,0.15,-0.80,1.86,
1.713,-0.64,3.03,-3.97,0.15,-0.80,1.86,
1.716,-0.64,3.03,-3.97,0.14,-0.69,1.79,
1.719,-0.64,3.03,-3.97,0.08,-0.49,1.73,
1.719,-1.45,2.85,-4.67,0.08,-0.49,1.73,
1.72,-1.45,2.85,-4.67,-0.10,-0.32,1.66,
1.722,-1.45,2.85,-4.67,-0.43,-0.24,1.56,
1.723,-2.94,2.17,-3.82,-0.43,-0.24,1.56,
1.725,-2.94,2.17,-3.82,-0.83,-0.16,1.44,
1.727,-2.94,2.17,-3.82,-1.24,-0.03,1.32,
1.728,-4.11,0.83,-2.10,-1.24,-0.03,1.32,
1.73,-4.11,0.83,-2.10,-1.56,0.21,1.24,
1.736,-4.94,-0.36,-1.23,-1.56,0.21,1.24,
1.736,-4.94,-0.36,-1.23,-1.76,0.57,1.23,
1.736,-4.94,-0.36,-1.23,-1.84,1.01,1.30,
1.737,-4.94,-0.36,-1.23,-1.83,1.48,1.40,
1.738,-4.41,-0.55,-1.68,-1.83,1.48,1.40,
1.742,-4.41,-0.55,-1.68,-1.76,1.89,1.51,
1.742,-4.41,-0.55,-1.68,-1.69,2.21,1.58,
1.743,-3.52,0.57,-2.56,-1.69,2.21,1.58,
1.745,-3.52,0.57,-2.56,-1.65,2.42,1.63,
1.747,-3.52,0.57,-2.56,-1.62,2.55,1.67,
1.748,-3.17,1.85,-3.36,-1.62,2.55,1.67,
1.752,-3.17,1.85,-3.36,-1.62,2.61,1.68,
1.752,-3.17,1.85,-3.36,-1.62,2.63,1.69,
1.753,-2.92,1.77,-3.43,-1.62,2.63,1.69,
1.759,-2.69,0.70,-2.40,-1.62,2.63,1.69,
1.759,-2.69,0.70,-2.40,-1.63,2.63,1.71,
1.759,-2.69,0.70,-2.40,-1.63,2.61,1.74,
1.759,-2.69,0.70,-2.40,-1.65,2.53,1.74,
1.762,-2.69,0.70,-2.40,-1.68,2.42,1.71,
1.762,-2.88,-0.36,-0.42,-1.68,2.42,1.71,
1.778,-2.88,-0.36,-0.42,-1.70,2.26,1.67,
1.778,-3.36,-0.88,1.23,-1.70,2.26,1.67,
1.778,-3.36,-0.88,1.23,-1.74,2.08,1.62,
1.779,-3.36,-0.88,1.23,-1.77,1.91,1.58,
1.779,-3.36,-0.88,1.23,-1.79,1.73,1.57,
1.779,-2.80,-0.84,2.15,-1.79,1.73,1.57,
1.779,-2.80,-0.84,2.15,-1.82,1.55,1.61,
1.78,-2.80,-0.84,2.15,-1.94,1.27,1.78,
1.78,-0.77,0.21,3.06,-1.94,1.27,1.78,
1.78,-0.77,0.21,3.06,-2.11,0.95,2.01,
1.783,-0.77,0.21,3.06,-2.16,0.79,2.06,
1.783,3.82,-0.49,4.69,-2.16,0.79,2.06,
1.785,3.82,-0.49,4.69,-2.09,0.67,2.01,
1.789,1.36,-0.79,5.44,-2.09,0.67,2.01,
1.789,1.36,-0.79,5.44,-1.97,0.47,1.95,
1.79,1.36,-0.79,5.44,-1.75,0.27,1.92,
1.793,1.36,-0.79,5.44,-1.53,0.10,1.86,
1.794,-0.20,-2.37,3.81,-1.53,0.10,1.86,
1.795,-0.20,-2.37,3.81,-1.38,-0.02,1.74,
1.797,-0.20,-2.37,3.81,-1.25,-0.09,1.56,
1.798,-0.59,-2.58,2.40,-1.25,-0.09,1.56,
1.801,-0.59,-2.58,2.40,-1.14,-0.16,1.36,
1.802,-0.59,-2.58,2.40,-1.08,-0.24,1.17,
1.803,-1.80,-2.05,1.42,-1.08,-0.24,1.17,
1.804,-1.80,-2.05,1.42,-1.04,-0.29,0.98,
1.807,-1.80,-2.05,1.42,-1.03,-0.30,0.79,
1.807,-2.04,-2.04,1.13,-1.03,-0.30,0.79,
1.809,-2.04,-2.04,1.13,-1.02,-0.25,0.63,
1.812,-2.04,-2.04,1.13,-1.02,-0.16,0.49,
1.812,-2.73,-1.81,1.16,-1.02,-0.16,0.49,
1.814,-2.73,-1.81,1.16,-1.01,-0.02,0.41,
1.817,-2.73,-1.81,1.16,-1.00,0.15,0.39,
1.819,-3.21,-1.57,0.97,-1.00,0.15,0.39,
1.82,-3.21,-1.57,0.97,-0.98,0.35,0.41,
1.823,-3.21,-1.57,0.97,-0.95,0.55,0.45,
1.824,-2.76,-1.13,0.58,-0.95,0.55,0.45,
1.826,-2.76,-1.13,0.58,-0.91,0.73,0.51,
1.827,-2.76,-1.13,0.58,-0.87,0.87,0.60,
1.828,-2.32,-0.54,0.36,-0.87,0.87,0.60,
1.829,-2.32,-0.54,0.36,-0.82,0.99,0.69,
1.832,-2.32,-0.54,0.36,-0.77,1.09,0.77,
1.832,-1.88,-0.23,0.23,-0.77,1.09,0.77,
1.835,-1.88,-0.23,0.23,-0.73,1.17,0.84,
1.837,-1.88,-0.23,0.23,-0.68,1.22,0.89,
1.837,-1.74,-0.59,0.30,-0.68,1.22,0.89,
1.839,-1.74,-0.59,0.30,-0.65,1.26,0.93,
1.841,-1.74,-0.59,0.30,-0.63,1.27,0.95,
1.842,-1.96,-1.39,0.46,-0.63,1.27,0.95,
1.844,-1.96,-1.39,0.46,-0.61,1.27,0.95,
1.846,-1.96,-1.39,0.46,-0.62,1.26,0.94,
1.846,-2.35,-1.91,0.46,-0.62,1.26,0.94,
1.849,-2.35,-1.91,0.46,-0.63,1.24,0.90,
1.853,-2.35,-1.91,0.46,-0.66,1.20,0.86,
1.854,-2.76,-2.02,0.34,-0.66,1.20,0.86,
1.854,-2.76,-2.02,0.34,-0.69,1.17,0.80,
1.857,-2.76,-2.02,0.34,-0.71,1.13,0.75,
1.857,-3.01,-1.97,0.23,-0.71,1.13,0.75,
1.864,-2.80,-1.93,0.34,-0.71,1.13,0.75,
1.864,-2.80,-1.93,0.34,-0.72,1.09,0.70,
1.864,-2.80,-1.93,0.34,-0.72,1.06,0.64,
1.865,-2.80,-1.93,0.34,-0.71,1.02,0.59,
1.871,-2.80,-1.93,0.34,-0.68,0.97,0.53,
1.871,-2.52,-1.70,0.62,-0.68,0.97,0.53,
1.872,-2.52,-1.70,0.62,-0.64,0.91,0.49,
1.872,-2.52,-1.70,0.62,-0.59,0.85,0.46,
1.872,-2.51,-1.36,0.91,-0.59,0.85,0.46,
1.874,-2.51,-1.36,0.91,-0.53,0.79,0.45,
1.876,-2.51,-1.36,0.91,-0.47,0.73,0.45,
1.877,-2.51,-1.20,1.28,-0.47,0.73,0.45,
1.879,-2.51,-1.20,1.28,-0.41,0.68,0.45,
1.881,-2.51,-1.20,1.28,-0.34,0.64,0.45,
1.881,-2.21,-1.16,1.81,-0.34,0.64,0.45,
1.883,-2.21,-1.16,1.81,-0.27,0.61,0.44,
1.886,-2.21,-1.16,1.81,-0.21,0.57,0.42,
1.887,-1.77,-1.00,2.21,-0.21,0.57,0.42,
1.889,-1.77,-1.00,2.21,-0.15,0.53,0.40,
1.899,-1.77,-1.00,2.21,-0.10,0.49,0.38,
1.899,-1.58,-0.88,2.08,-0.10,0.49,0.38,
1.9,-1.58,-0.88,2.08,-0.08,0.44,0.36,
1.9,-1.58,-0.88,2.08,-0.06,0.39,0.34,
1.9,-1.33,-0.85,1.71,-0.06,0.39,0.34,
1.9,-1.33,-0.85,1.71,-0.05,0.34,0.32,
1.903,-1.33,-0.85,1.71,-0.06,0.28,0.31,
1.904,-1.04,-0.83,1.29,-0.06,0.28,0.31,
1.905,-1.04,-0.83,1.29,-0.07,0.21,0.30,
1.907,-1.04,-0.83,1.29,-0.08,0.15,0.29,
1.907,-0.81,-0.63,0.71,-0.08,0.15,0.29,
1.908,-0.81,-0.63,0.71,-0.09,0.11,0.29,
1.911,-0.81,-0.63,0.71,-0.11,0.09,0.29,
1.911,-0.39,-0.29,0.01,-0.11,0.09,0.29,
1.914,-0.39,-0.29,0.01,-0.11,0.10,0.29,
1.916,-0.39,-0.29,0.01,-0.12,0.12,0.28,
1.916,-0.26,-0.10,-0.36,-0.12,0.12,0.28,
1.922,-0.26,-0.10,-0.36,-0.13,0.15,0.28,
1.922,-0.23,-0.09,-0.55,-0.13,0.15,0.28,
1.923,-0.23,-0.09,-0.55,-0.13,0.19,0.28,
1.923,-0.23,-0.09,-0.55,-0.13,0.25,0.27,
1.926,-0.23,-0.09,-0.55,-0.13,0.34,0.26,
1.926,-0.13,0.18,-0.78,-0.13,0.34,0.26,
1.928,-0.13,0.18,-0.78,-0.14,0.44,0.25,
1.954,-0.13,0.18,-0.78,-0.16,0.54,0.23,
1.955,-0.43,0.66,-1.31,-0.16,0.54,0.23,
1.955,-0.43,0.66,-1.31,-0.19,0.64,0.22,
1.956,-0.58,1.02,-1.56,-0.19,0.64,0.22,
1.956,-0.58,1.02,-1.56,-0.23,0.74,0.21,
1.957,-0.58,1.02,-1.56,-0.26,0.82,0.19,
1.957,-0.58,1.02,-1.56,-0.29,0.91,0.17,
1.958,-0.19,1.16,-1.48,-0.29,0.91,0.17,
1.958,-0.19,1.16,-1.48,-0.31,0.97,0.15,
1.958,-0.19,1.16,-1.48,-0.33,1.03,0.14,
1.959,0.08,1.49,-1.25,-0.33,1.03,0.14,
1.959,0.08,1.49,-1.25,-0.36,1.08,0.13,
1.959,0.54,2.18,-1.25,-0.36,1.08,0.13,
1.959,0.54,2.18,-1.25,-0.39,1.12,0.13,
1.96,0.54,2.18,-1.25,-0.42,1.14,0.13,
1.96,0.54,2.18,-1.25,-0.46,1.13,0.14,
1.96,1.01,2.76,-0.74,-0.46,1.13,0.14,
1.96,1.01,2.76,-0.74,-0.48,1.11,0.17,
1.96,1.01,2.76,-0.74,-0.50,1.08,0.20,
1.961,1.35,2.97,0.27,-0.50,1.08,0.20,
1.976,1.35,2.97,0.27,-0.50,1.04,0.24,
1.978,1.35,2.97,0.27,-0.48,1.01,0.26,
1.979,1.42,2.71,1.43,-0.48,1.01,0.26,
1.979,1.42,2.71,1.43,-0.44,0.99,0.29,
1.979,1.42,2.71,1.43,-0.39,0.97,0.31,
1.979,1.42,2.41,2.28,-0.39,0.97,0.31,
1.98,1.42,2.41,2.28,-0.33,0.95,0.32,
1.98,1.50,2.03,2.76,-0.33,0.95,0.32,
1.98,1.50,2.03,2.76,-0.26,0.92,0.31,
1.98,1.50,2.03,2.76,-0.19,0.88,0.29,
1.98,1.71,1.89,3.20,-0.19,0.88,0.29,
1.981,1.71,1.89,3.20,-0.11,0.83,0.26,
1.983,1.71,1.89,3.20,-0.02,0.77,0.21,
1.987,1.71,1.89,3.20,0.06,0.69,0.17,
1.988,1.70,1.87,3.36,0.06,0.69,0.17,
1.988,1.70,1.87,3.36,0.14,0.62,0.12,
1.992,1.70,1.87,3.36,0.22,0.56,0.07,
1.992,1.54,1.89,3.01,0.22,0.56,0.07,
1.994,1.54,1.89,3.01,0.28,0.52,0.01,
1.995,1.54,1.89,3.01,0.33,0.48,-0.05,
1.995,1.44,2.01,2.14,0.33,0.48,-0.05,
1.999,1.44,2.01,2.14,0.37,0.43,-0.10,
2.001,1.44,2.01,2.14,0.39,0.37,-0.14,
2.001,0.92,2.12,1.41,0.39,0.37,-0.14,
2.003,0.92,2.12,1.41,0.42,0.30,-0.19,
2.005,0.79,2.01,1.40,0.42,0.30,-0.19,
2.005,0.79,2.01,1.40,0.44,0.23,-0.24,
2.007,0.79,2.01,1.40,0.48,0.16,-0.30,
2.01,0.79,2.01,1.40,0.53,0.09,-0.35,
2.01,0.86,1.91,1.68,0.53,0.09,-0.35,
2.012,0.86,1.91,1.68,0.57,0.01,-0.39,
2.015,0.81,1.71,1.71,0.57,0.01,-0.39,
2.015,0.81,1.71,1.71,0.60,-0.05,-0.42,
2.017,0.81,1.71,1.71,0.62,-0.12,-0.44,
2.02,0.52,1.74,1.47,0.62,-0.12,-0.44,
2.021,0.52,1.74,1.47,0.63,-0.18,-0.45,
2.023,0.52,1.74,1.47,0.64,-0.24,-0.46,
2.025,0.52,1.74,1.47,0.65,-0.30,-0.46,
2.025,0.08,1.62,1.18,0.65,-0.30,-0.46,
2.027,0.08,1.62,1.18,0.66,-0.35,-0.46,
2.03,0.09,1.11,1.20,0.66,-0.35,-0.46,
2.03,0.09,1.11,1.20,0.68,-0.40,-0.46,
2.032,0.09,1.11,1.20,0.71,-0.45,-0.46,
2.035,-0.15,0.89,1.19,0.71,-0.45,-0.46,
2.036,-0.15,0.89,1.19,0.75,-0.49,-0.45,
2.041,-0.25,0.96,1.00,0.75,-0.49,-0.45,
2.043,-0.25,0.96,1.00,0.79,-0.52,-0.45,
2.043,-0.25,0.96,1.00,0.82,-0.54,-0.46,
2.043,-0.25,0.96,1.00,0.85,-0.55,-0.50,
2.045,-0.25,0.96,1.00,0.87,-0.57,-0.52,
2.045,-0.67,0.68,0.88,0.87,-0.57,-0.52,
2.047,-0.67,0.68,0.88,0.89,-0.60,-0.55,
2.051,-0.67,0.68,0.88,0.90,-0.61,-0.57,
2.051,-0.81,0.30,0.93,0.90,-0.61,-0.57,
2.053,-0.81,0.30,0.93,0.92,-0.63,-0.58,
2.055,-0.81,0.30,0.93,0.93,-0.62,-0.59,
2.055,-0.60,0.36,1.13,0.93,-0.62,-0.59,
2.057,-0.60,0.36,1.13,0.95,-0.62,-0.60,
2.06,-0.60,0.36,1.13,0.96,-0.62,-0.61,
2.06,-0.41,0.62,1.34,0.96,-0.62,-0.61,
2.062,-0.41,0.62,1.34,0.97,-0.63,-0.60,
2.064,-0.41,0.62,1.34,0.97,-0.64,-0.58,
2.065,-0.59,0.52,1.32,0.97,-0.64,-0.58,
2.068,-0.59,0.52,1.32,0.98,-0.64,-0.56,
2.07,-0.59,0.52,1.32,0.99,-0.63,-0.56,
2.07,-0.75,0.18,0.92,0.99,-0.63,-0.56,
2.072,-0.75,0.18,0.92,1.00,-0.60,-0.56,
2.074,-0.75,0.18,0.92,1.00,-0.58,-0.57,
2.075,-0.95,-0.10,0.07,1.00,-0.58,-0.57,
2.077,-0.95,-0.10,0.07,1.00,-0.55,-0.58,
2.079,-0.95,-0.10,0.07,0.99,-0.54,-0.59,
2.08,-0.96,-0.24,-0.55,0.99,-0.54,-0.59,
2.082,-0.96,-0.24,-0.55,0.99,-0.52,-0.66,
2.085,-0.96,-0.24,-0.55,0.99,-0.53,-0.75,
2.085,-1.88,-0.48,-0.84,0.99,-0.53,-0.75,
2.087,-1.88,-0.48,-0.84,0.98,-0.58,-0.83,
2.09,-1.88,-0.48,-0.84,0.95,-0.62,-0.92,
2.09,-2.92,-1.03,-1.44,0.95,-0.62,-0.92,
2.093,-2.92,-1.03,-1.44,0.90,-0.64,-0.96,
2.094,-2.92,-1.03,-1.44,0.84,-0.62,-0.98,
2.117,-2.92,-0.99,-1.72,0.84,-0.62,-0.98,
2.117,-2.92,-0.99,-1.72,0.79,-0.59,-1.01,
2.118,-2.34,-0.64,-1.44,0.79,-0.59,-1.01,
2.118,-2.34,-0.64,-1.44,0.74,-0.55,-1.03,
2.118,-2.34,-0.64,-1.44,0.71,-0.50,-1.04,
2.119,-2.18,-0.64,-1.24,0.71,-0.50,-1.04,
2.119,-2.18,-0.64,-1.24,0.68,-0.46,-1.04,
2.119,-2.18,-0.64,-1.24,0.67,-0.41,-1.05,
2.119,-2.18,-0.64,-1.24,0.66,-0.36,-1.09,
2.12,-2.56,-1.14,-1.14,0.66,-0.36,-1.09,
2.12,-2.56,-1.14,-1.14,0.65,-0.31,-1.09,
2.12,-2.56,-1.14,-1.14,0.65,-0.24,-1.07,
2.12,-2.71,-1.45,-1.03,0.65,-0.24,-1.07,
2.121,-2.71,-1.45,-1.03,0.65,-0.14,-1.05,
2.121,-2.71,-1.45,-1.03,0.64,-0.06,-1.06,
2.121,-1.90,-1.43,-0.61,0.64,-0.06,-1.06,
2.121,-1.90,-1.43,-0.61,0.64,-0.01,-1.05,
2.124,-1.58,-1.15,-0.27,0.64,-0.01,-1.05,
2.125,-1.58,-1.15,-0.27,0.64,0.02,-1.02,
2.126,-1.58,-1.15,-0.27,0.62,0.04,-1.00,
2.129,-1.08,-1.28,-0.00,0.62,0.04,-1.00,
2.129,-1.08,-1.28,-0.00,0.62,0.06,-0.96,
2.132,-1.08,-1.28,-0.00,0.61,0.07,-0.96,
2.139,-1.18,-1.80,0.57,0.61,0.07,-0.96,
2.14,-1.18,-1.80,0.57,0.60,0.03,-1.00,
2.14,-1.18,-1.80,0.57,0.59,-0.03,-1.03,
2.141,-1.18,-1.80,0.57,0.59,-0.09,-1.07,
2.141,-1.57,-2.02,0.68,0.59,-0.09,-1.07,
2.141,-1.57,-2.02,0.68,0.58,-0.16,-1.10,
2.145,-1.57,-2.02,0.68,0.58,-0.21,-1.16,
2.149,-1.21,-1.95,0.41,0.58,-0.21,-1.16,
2.149,-1.31,-1.50,-0.14,0.58,-0.21,-1.16,
2.158,-1.31,-1.50,-0.14,0.57,-0.27,-1.21,
2.158,-1.31,-1.50,-0.14,0.55,-0.32,-1.26,
2.158,-1.31,-1.50,-0.14,0.53,-0.37,-1.29,
2.159,-1.25,-1.49,-0.60,0.53,-0.37,-1.29,
2.159,-1.25,-1.49,-0.60,0.52,-0.39,-1.31,
2.159,-1.25,-1.49,-0.60,0.50,-0.39,-1.32,
2.159,-1.25,-1.49,-0.60,0.49,-0.37,-1.31,
2.159,-1.01,-1.76,-0.83,0.49,-0.37,-1.31,
2.161,-1.01,-1.76,-0.83,0.49,-0.34,-1.30,
2.164,-1.01,-1.76,-0.83,0.48,-0.30,-1.29,
2.164,-0.69,-2.06,-1.02,0.48,-0.30,-1.29,
2.167,-0.69,-2.06,-1.02,0.47,-0.26,-1.27,
2.17,-0.49,-2.22,-1.36,0.47,-0.26,-1.27,
2.17,-0.49,-2.22,-1.36,0.44,-0.22,-1.24,
2.173,-0.49,-2.22,-1.36,0.41,-0.19,-1.21,
2.174,-0.49,-2.22,-1.36,0.36,-0.15,-1.16,
2.174,-0.25,-2.30,-1.78,0.36,-0.15,-1.16,
2.176,-0.25,-2.30,-1.78,0.29,-0.12,-1.10,
2.179,-0.25,-2.30,-1.78,0.22,-0.06,-1.00,
2.179,0.61,-2.24,-1.87,0.22,-0.06,-1.00,
2.182,0.61,-2.24,-1.87,0.16,0.02,-0.89,
2.185,0.61,-2.24,-1.87,0.11,0.09,-0.76,
2.185,1.96,-2.19,-1.25,0.11,0.09,-0.76,
2.188,1.96,-2.19,-1.25,0.07,0.15,-0.61,
2.189,3.99,-1.00,-0.59,0.07,0.15,-0.61,
2.189,3.99,-1.00,-0.59,0.03,0.20,-0.42,
2.191,3.99,-1.00,-0.59,0.02,0.25,-0.18,
2.194,6.49,-1.54,-0.67,0.02,0.25,-0.18,
2.194,6.49,-1.54,-0.67,0.01,0.39,-0.03,
2.196,6.49,-1.54,-0.67,-0.01,0.53,0.06,
2.199,5.49,-1.74,0.79,-0.01,0.53,0.06,
2.199,5.49,-1.74,0.79,-0.02,0.54,0.14,
2.201,5.49,-1.74,0.79,-0.06,0.44,0.18,
2.204,5.49,-1.74,0.79,-0.09,0.35,0.15,
2.204,5.44,-2.18,1.08,-0.09,0.35,0.15,
2.206,5.44,-2.18,1.08,-0.09,0.26,0.06,
2.208,4.85,-2.66,1.31,-0.09,0.26,0.06,
2.209,4.85,-2.66,1.31,-0.07,0.17,-0.05,
2.211,4.85,-2.66,1.31,-0.01,0.03,-0.15,
2.213,4.85,-2.66,1.31,0.06,-0.14,-0.21,
2.214,4.10,-2.74,1.04,0.06,-0.14,-0.21,
2.216,4.10,-2.74,1.04,0.14,-0.30,-0.27,
2.219,4.74,-2.01,0.42,0.14,-0.30,-0.27,
2.219,4.74,-2.01,0.42,0.22,-0.42,-0.29,
2.221,4.74,-2.01,0.42,0.27,-0.52,-0.31,
2.223,4.74,-2.01,0.42,0.29,-0.62,-0.30,
2.224,5.08,-1.20,0.04,0.29,-0.62,-0.30,
2.226,5.08,-1.20,0.04,0.30,-0.71,-0.28,
2.228,5.04,-0.82,-0.19,0.30,-0.71,-0.28,
2.229,5.04,-0.82,-0.19,0.28,-0.78,-0.26,
2.231,5.04,-0.82,-0.19,0.25,-0.83,-0.24,
2.233,5.04,-0.82,-0.19,0.23,-0.86,-0.21,
2.233,4.20,-1.47,-0.10,0.23,-0.86,-0.21,
2.24,4.20,-1.47,-0.10,0.21,-0.88,-0.18,
2.241,4.20,-1.47,-0.10,0.17,-0.84,-0.15,
2.241,2.90,-1.80,-0.26,0.17,-0.84,-0.15,
2.242,2.90,-1.80,-0.26,0.13,-0.75,-0.12,
2.246,1.61,-1.41,-0.50,0.13,-0.75,-0.12,
2.247,1.61,-1.41,-0.50,0.09,-0.63,-0.08,
2.247,1.61,-1.41,-0.50,0.06,-0.51,-0.04,
2.249,1.61,-1.41,-0.50,0.03,-0.38,0.00,
2.252,0.76,-0.91,-1.03,0.03,-0.38,0.00,
2.253,0.76,-0.91,-1.03,-0.01,-0.26,0.04,
2.254,0.76,-0.91,-1.03,-0.05,-0.16,0.08,
2.255,-0.25,-0.53,-1.49,-0.05,-0.16,0.08,
2.265,-0.25,-0.53,-1.49,-0.08,-0.07,0.13,
2.266,-0.25,-0.53,-1.49,-0.10,0.02,0.17,
2.266,-1.16,-0.72,-1.46,-0.10,0.02,0.17,
2.294,-1.16,-0.72,-1.46,-0.12,0.11,0.20,
2.295,-1.16,-0.72,-1.46,-0.13,0.17,0.23,
2.296,-2.08,-0.95,-0.94,-0.13,0.17,0.23,
2.296,-2.08,-0.95,-0.94,-0.14,0.20,0.26,
2.297,-2.08,-0.95,-0.94,-0.15,0.21,0.29,
2.297,-2.58,-1.21,-0.70,-0.15,0.21,0.29,
2.297,-2.58,-1.21,-0.70,-0.17,0.22,0.31,
2.298,-2.80,-1.06,-0.66,-0.17,0.22,0.31,
2.298,-2.80,-1.06,-0.66,-0.21,0.22,0.33,
2.298,-2.80,-1.06,-0.66,-0.27,0.20,0.35,
2.299,-2.80,-1.06,-0.66,-0.32,0.19,0.37,
2.299,-2.89,-1.25,-0.60,-0.32,0.19,0.37,
2.3,-2.89,-1.25,-0.60,-0.35,0.21,0.39,
2.3,-2.89,-1.25,-0.60,-0.38,0.24,0.41,
2.3,-2.65,-1.36,-0.81,-0.38,0.24,0.41,
2.301,-2.43,-1.26,-1.20,-0.38,0.24,0.41,
2.301,-2.43,-1.26,-1.20,-0.41,0.28,0.44,
2.301,-2.43,-1.26,-1.20,-0.43,0.32,0.47,
2.302,-2.43,-1.26,-1.20,-0.46,0.36,0.50,
2.302,-2.43,-1.26,-1.20,-0.51,0.39,0.53,
2.303,-1.78,-0.80,-1.65,-0.51,0.39,0.53,
2.303,-1.78,-0.80,-1.65,-0.56,0.42,0.55,
2.303,-1.78,-0.80,-1.65,-0.62,0.45,0.57,
2.304,-0.96,-0.89,-2.01,-0.62,0.45,0.57,
2.304,-0.96,-0.89,-2.01,-0.68,0.46,0.60,
2.304,-0.96,-0.89,-2.01,-0.73,0.44,0.64,
2.305,-0.34,-1.17,-2.02,-0.73,0.44,0.64,
2.305,-0.34,-1.17,-2.02,-0.78,0.39,0.66,
2.308,0.52,-1.12,-1.66,-0.78,0.39,0.66,
2.309,0.52,-1.12,-1.66,-0.82,0.33,0.68,
2.31,0.52,-1.12,-1.66,-0.85,0.26,0.69,
2.313,0.52,-1.12,-1.66,-0.88,0.19,0.69,
2.313,1.02,-1.01,-1.26,-0.88,0.19,0.69,
2.315,1.02,-1.01,-1.26,-0.90,0.11,0.70,
2.32,1.02,-1.01,-1.26,-0.92,0.05,0.71,
2.32,1.03,-0.73,-0.90,-0.92,0.05,0.71,
2.321,1.03,-0.73,-0.90,-0.94,-0.02,0.71,
2.322,1.03,-0.73,-0.90,-0.96,-0.07,0.71,
2.323,0.98,-0.28,-0.79,-0.96,-0.07,0.71,
2.326,0.98,-0.28,-0.79,-0.99,-0.10,0.71,
2.328,0.98,-0.28,-0.79,-1.01,-0.13,0.73,
2.329,0.58,-0.34,-0.41,-1.01,-0.13,0.73,
2.331,0.58,-0.34,-0.41,-1.02,-0.14,0.74,
2.332,0.58,-0.34,-0.41,-1.03,-0.14,0.75,
2.333,0.12,-0.37,0.21,-1.03,-0.14,0.75,
2.336,0.12,-0.37,0.21,-1.03,-0.13,0.75,
2.337,-0.19,-0.50,0.85,-1.03,-0.13,0.75,
2.338,-0.19,-0.50,0.85,-1.03,-0.10,0.76,
2.34,-0.19,-0.50,0.85,-1.02,-0.05,0.76,
2.342,-0.19,-0.50,0.85,-1.01,0.01,0.77,
2.342,-0.41,-0.59,1.20,-1.01,0.01,0.77,
2.344,-0.41,-0.59,1.20,-1.00,0.10,0.80,
2.347,-0.41,-0.59,1.20,-0.98,0.18,0.83,
2.347,-0.62,-0.08,1.36,-0.98,0.18,0.83,
2.349,-0.62,-0.08,1.36,-0.97,0.27,0.85,
2.355,-0.62,-0.08,1.36,-0.95,0.35,0.88,
2.355,-0.70,0.25,1.31,-0.95,0.35,0.88,
2.355,-0.70,0.25,1.31,-0.91,0.45,0.91,
2.357,-0.68,0.64,1.32,-0.91,0.45,0.91,
2.357,-0.68,0.64,1.32,-0.90,0.52,0.94,
2.36,-0.68,0.64,1.32,-0.88,0.59,0.97,
2.362,-0.68,0.64,1.32,-0.85,0.63,1.01,
2.362,0.02,0.23,1.82,-0.85,0.63,1.01,
2.366,0.02,0.23,1.82,-0.81,0.67,1.03,
2.378,0.02,0.23,1.82,-0.76,0.70,1.06,
2.379,0.43,0.10,2.62,-0.76,0.70,1.06,
2.379,0.43,0.10,2.62,-0.69,0.72,1.08,
2.38,0.43,0.10,2.62,-0.62,0.72,1.09,
2.381,0.89,-0.36,3.00,-0.62,0.72,1.09,
2.381,0.89,-0.36,3.00,-0.54,0.70,1.09,
2.382,0.89,-0.36,3.00,-0.46,0.68,1.11,
2.382,1.64,-1.12,3.05,-0.46,0.68,1.11,
2.383,1.64,-1.12,3.05,-0.38,0.65,1.13,
2.383,1.64,-1.12,3.05,-0.31,0.64,1.15,
2.384,1.79,-0.73,2.64,-0.31,0.64,1.15,
2.386,1.79,-0.73,2.64,-0.26,0.62,1.16,
2.388,1.79,-0.73,2.64,-0.22,0.60,1.16,
2.389,2.35,-1.09,1.81,-0.22,0.60,1.16,
2.389,2.35,-1.09,1.81,-0.18,0.58,1.17,
2.392,2.35,-1.09,1.81,-0.16,0.58,1.17,
2.392,2.44,-0.57,1.17,-0.16,0.58,1.17,
2.395,2.44,-0.57,1.17,-0.13,0.59,1.16,
2.397,2.37,-0.10,0.63,-0.13,0.59,1.16,
2.397,2.37,-0.10,0.63,-0.10,0.58,1.14,
2.399,2.37,-0.10,0.63,-0.09,0.55,1.13,
2.402,2.37,-0.10,0.63,-0.08,0.50,1.11,
2.402,1.90,0.32,0.29,-0.08,0.50,1.11,
2.404,1.90,0.32,0.29,-0.08,0.44,1.09,
2.407,1.90,0.32,0.29,-0.07,0.39,1.06,
2.407,1.46,0.31,0.23,-0.07,0.39,1.06,
2.409,1.46,0.31,0.23,-0.08,0.36,1.03,
2.411,1.46,0.31,0.23,-0.08,0.33,1.00,
2.412,0.85,0.87,-0.10,-0.08,0.33,1.00,
2.414,0.85,0.87,-0.10,-0.10,0.30,0.98,
2.416,0.85,0.87,-0.10,-0.13,0.26,0.97,
2.417,-0.05,1.66,-0.68,-0.13,0.26,0.97,
2.42,-0.05,1.66,-0.68,-0.18,0.22,0.96,
2.422,-0.08,1.43,-0.75,-0.18,0.22,0.96,
2.422,-0.08,1.43,-0.75,-0.22,0.18,0.94,
2.424,-0.08,1.43,-0.75,-0.25,0.13,0.92,
2.441,-0.86,1.35,-0.55,-0.25,0.13,0.92,
2.441,-0.86,1.35,-0.55,-0.26,0.07,0.89,
2.442,-0.86,1.35,-0.55,-0.27,0.02,0.87,
2.442,-1.53,1.29,-0.52,-0.27,0.02,0.87,
2.442,-1.53,1.29,-0.52,-0.27,-0.04,0.84,
2.442,-1.53,1.29,-0.52,-0.28,-0.08,0.80,
2.443,-1.44,0.83,-0.25,-0.28,-0.08,0.80,
2.443,-1.44,0.83,-0.25,-0.30,-0.14,0.75,
2.45,-2.38,0.45,0.02,-0.30,-0.14,0.75,
2.452,-1.85,0.66,0.16,-0.30,-0.14,0.75,
2.452,-1.85,0.66,0.16,-0.32,-0.23,0.67,
2.453,-1.85,0.66,0.16,-0.33,-0.29,0.63,
2.453,-1.85,0.66,0.16,-0.32,-0.33,0.59,
2.453,-1.85,0.66,0.16,-0.30,-0.37,0.57,
2.454,-1.85,0.66,0.16,-0.27,-0.42,0.55,
2.456,-1.24,0.77,-0.13,-0.27,-0.42,0.55,
2.458,-1.47,1.10,-0.47,-0.27,-0.42,0.55,
2.459,-1.47,1.10,-0.47,-0.32,-0.53,0.49,
2.46,-1.47,1.10,-0.47,-0.37,-0.60,0.46,
2.46,-1.47,1.10,-0.47,-0.37,-0.65,0.45,
2.461,-1.47,1.10,-0.47,-0.39,-0.71,0.45,
2.462,-0.94,1.63,-0.70,-0.39,-0.71,0.45,
2.462,-0.94,1.63,-0.70,-0.46,-0.79,0.44,
2.466,-0.94,1.63,-0.70,-0.55,-0.86,0.43,
2.467,-0.23,-1.21,0.33,-0.55,-0.86,0.43,
2.467,-0.23,-1.21,0.33,-0.44,-0.83,0.42,
2.473,-0.23,-1.21,0.33,-0.28,-0.80,0.43,
2.474,-0.23,-1.21,0.33,-0.33,-0.90,0.44,
2.475,-1.18,2.25,0.23,-0.33,-0.90,0.44,
2.475,-1.18,2.25,0.23,-0.48,-1.00,0.42,
2.479,-1.18,2.25,0.23,-0.50,-0.97,0.39,
2.479,-1.18,2.25,0.23,-0.48,-0.93,0.38,
2.479,0.33,0.71,1.15,-0.48,-0.93,0.38,
2.481,0.33,0.71,1.15,-0.48,-0.93,0.40,
2.481,-0.37,-0.41,1.62,-0.48,-0.93,0.40,
2.483,-0.37,-0.41,1.62,-0.39,-0.89,0.43,
2.486,-0.37,-0.41,1.62,-0.12,-0.88,0.43,
2.487,0.83,-1.26,0.30,-0.12,-0.88,0.43,
2.488,0.83,-1.26,0.30,-0.25,-1.20,0.37,
2.491,0.83,-1.26,0.30,-0.48,-1.45,0.29,
2.491,0.04,1.86,-1.07,-0.48,-1.45,0.29,
2.493,0.04,1.86,-1.07,-0.48,-1.50,0.25,
2.496,0.04,1.86,-1.07,-0.45,-1.51,0.21,
2.496,0.17,-0.64,-0.67,-0.45,-1.51,0.21,
2.498,0.17,-0.64,-0.67,-0.51,-1.55,0.16,
2.501,-0.95,-1.09,0.39,-0.51,-1.55,0.16,
2.501,-0.95,-1.09,0.39,-0.52,-1.52,0.16,
2.503,-0.95,-1.09,0.39,-0.47,-1.40,0.20,
2.506,-0.95,-1.09,0.39,-0.42,-1.25,0.21,
2.506,-0.23,-1.12,0.09,-0.42,-1.25,0.21,
2.508,-0.23,-1.12,0.09,-0.48,-1.17,0.19,
2.511,-0.23,-1.12,0.09,-0.54,-1.10,0.18,
2.511,-0.09,0.91,-0.04,-0.54,-1.10,0.18,
2.513,-0.09,0.91,-0.04,-0.58,-1.06,0.17,
2.516,-0.09,0.91,-0.04,-0.57,-1.02,0.16,
2.516,0.22,-2.16,0.45,-0.57,-1.02,0.16,
2.518,0.22,-2.16,0.45,-0.39,-0.88,0.17,
2.521,0.22,-2.16,0.45,-0.38,-0.82,0.22,
2.521,-1.37,-0.08,0.37,-0.38,-0.82,0.22,
2.523,-1.37,-0.08,0.37,-0.54,-0.81,0.25,
2.525,-1.37,-0.08,0.37,-0.58,-0.70,0.25,
2.526,0.19,-0.56,1.03,-0.58,-0.70,0.25,
2.528,0.19,-0.56,1.03,-0.54,-0.64,0.24,
2.531,0.19,-0.56,1.03,-0.63,-0.77,0.22,
2.531,1.25,-0.23,0.41,-0.63,-0.77,0.22,
2.533,1.25,-0.23,0.41,-0.62,-0.86,0.17,
2.54,0.89,-0.01,-0.05,-0.62,-0.86,0.17,
2.541,0.89,-0.01,-0.05,-0.56,-0.86,0.13,
2.541,0.89,-0.01,-0.05,-0.57,-0.77,0.17,
2.541,-1.54,0.26,0.75,-0.57,-0.77,0.17,
2.542,-1.54,0.26,0.75,-0.57,-0.58,0.27,
2.549,-1.54,0.26,0.75,-0.60,-0.37,0.36,
2.549,-0.19,-0.59,0.96,-0.60,-0.37,0.36,
2.55,-0.19,-0.59,0.96,-0.63,-0.20,0.42,
2.55,-0.19,-0.59,0.96,-0.64,-0.10,0.44,
2.561,-0.19,-0.59,0.96,-0.59,-0.06,0.46,
2.561,-0.08,-1.55,0.71,-0.59,-0.06,0.46,
2.561,-0.08,-1.55,0.71,-0.59,-0.09,0.46,
2.561,-0.08,-1.55,0.71,-0.53,-0.08,0.46,
2.561,-0.21,0.35,0.20,-0.53,-0.08,0.46,
2.562,-0.21,0.35,0.20,-0.54,-0.09,0.45,
2.562,0.50,0.86,0.02,-0.54,-0.09,0.45,
2.562,0.50,0.86,0.02,-0.54,-0.09,0.42,
2.563,0.50,0.86,0.02,-0.50,-0.10,0.41,
2.565,0.53,0.64,0.19,-0.50,-0.10,0.41,
2.566,0.53,0.64,0.19,-0.48,-0.16,0.42,
2.568,0.53,0.64,0.19,-0.47,-0.21,0.44,
2.57,0.53,0.64,0.19,-0.52,-0.24,0.46,
2.571,0.70,1.72,0.30,-0.52,-0.24,0.46,
2.573,0.70,1.72,0.30,-0.50,-0.18,0.48,
2.575,0.70,1.72,0.30,-0.49,-0.13,0.50,
2.575,0.34,0.61,0.17,-0.49,-0.13,0.50,
2.577,0.34,0.61,0.17,-0.48,-0.08,0.53,
2.58,0.34,0.61,0.17,-0.43,-0.01,0.56,
2.58,-0.05,-0.27,-0.30,-0.43,-0.01,0.56,
2.582,-0.05,-0.27,-0.30,-0.44,0.04,0.58,
2.585,-0.05,-0.27,-0.30,-0.43,0.12,0.60,
2.586,-0.12,0.48,-0.72,-0.43,0.12,0.60,
2.587,-0.12,0.48,-0.72,-0.47,0.16,0.60,
2.59,-0.12,0.48,-0.72,-0.43,0.21,0.58,
2.606,0.24,-1.40,-0.45,-0.43,0.21,0.58,
2.606,0.24,-1.40,-0.45,-0.28,0.28,0.58,
2.606,0.24,-1.40,-0.45,-0.46,0.18,0.58,
2.607,-0.28,1.74,-0.55,-0.46,0.18,0.58,
2.607,-0.28,1.74,-0.55,-0.47,0.21,0.56,
2.607,0.38,1.21,-0.36,-0.47,0.21,0.56,
2.607,0.38,1.21,-0.36,-0.47,0.24,0.54,
2.608,0.38,1.21,-0.36,-0.50,0.24,0.55,
2.608,0.18,0.47,0.31,-0.50,0.24,0.55,
2.608,0.18,0.47,0.31,-0.45,0.26,0.57,
2.608,0.18,0.47,0.31,-0.47,0.22,0.59,
2.612,0.18,0.47,0.31,-0.42,0.23,0.59,
2.612,0.64,0.71,0.70,-0.42,0.23,0.59,
2.613,0.64,0.71,0.70,-0.39,0.23,0.58,
2.615,-0.47,1.92,0.95,-0.39,0.23,0.58,
2.615,-0.47,1.92,0.95,-0.38,0.20,0.58,
2.618,-0.47,1.92,0.95,-0.36,0.20,0.59,
2.621,-0.47,1.92,0.95,-0.25,0.24,0.60,
2.621,0.17,0.21,0.67,-0.25,0.24,0.60,
2.623,0.17,0.21,0.67,-0.27,0.20,0.59,
2.625,0.17,0.21,0.67,-0.26,0.16,0.56,
2.625,-0.02,1.31,0.89,-0.26,0.16,0.56,
2.627,-0.02,1.31,0.89,-0.19,0.13,0.53,
2.63,0.17,-0.31,0.06,-0.19,0.13,0.53,
2.63,0.17,-0.31,0.06,-0.11,0.10,0.50,
2.632,0.17,-0.31,0.06,-0.10,0.05,0.45,
2.636,-0.12,1.92,0.06,-0.10,0.05,0.45,
2.636,-0.12,1.92,0.06,-0.14,-0.02,0.39,
2.637,-0.12,1.92,0.06,-0.15,-0.10,0.34,
2.64,0.65,-0.26,-0.06,-0.15,-0.10,0.34,
2.641,0.65,-0.26,-0.06,-0.13,-0.15,0.30,
2.642,0.65,-0.26,-0.06,-0.15,-0.22,0.28,
2.644,0.65,-0.26,-0.06,-0.12,-0.24,0.28,
2.645,0.56,0.07,0.05,-0.12,-0.24,0.28,
2.647,0.56,0.07,0.05,-0.13,-0.23,0.27,
2.65,0.56,0.07,0.05,-0.18,-0.22,0.28,
2.65,0.81,0.33,-0.23,-0.18,-0.22,0.28,
2.66,0.81,0.33,-0.23,-0.17,-0.17,0.30,
2.661,1.04,-0.19,-0.21,-0.17,-0.17,0.30,
2.661,1.04,-0.19,-0.21,-0.19,-0.13,0.32,
2.662,1.04,-0.19,-0.21,-0.20,-0.09,0.33,
2.662,1.04,-0.19,-0.21,-0.20,-0.05,0.33,
2.663,0.84,-0.77,-0.29,-0.20,-0.05,0.33,
2.663,0.84,-0.77,-0.29,-0.20,-0.02,0.33,
2.672,0.83,-0.71,-0.46,-0.20,-0.02,0.33,
2.672,0.83,-0.71,-0.46,-0.23,0.01,0.32,
2.673,0.83,-0.71,-0.46,-0.24,0.04,0.28,
2.673,0.83,-0.71,-0.46,-0.22,0.08,0.22,
2.673,0.42,-0.85,-0.61,-0.22,0.08,0.22,
2.674,0.42,-0.85,-0.61,-0.22,0.10,0.15,
2.683,0.42,-0.85,-0.61,-0.22,0.11,0.09,
2.684,-0.35,-1.21,-0.47,-0.22,0.11,0.09,
2.684,-0.35,-1.21,-0.47,-0.21,0.11,0.04,
2.684,-0.35,-1.21,-0.47,-0.12,0.15,0.00,
2.684,-0.60,-2.18,-0.28,-0.12,0.15,0.00,
2.685,-0.60,-2.18,-0.28,-0.02,0.18,-0.03,
2.685,-0.60,-2.18,-0.28,-0.07,0.16,-0.05,
2.685,-1.14,0.44,-0.17,-0.07,0.16,-0.05,
2.691,-1.14,0.44,-0.17,-0.10,0.11,-0.06,
2.691,-1.14,0.44,-0.17,-0.08,0.09,-0.05,
2.691,-0.37,1.14,0.25,-0.08,0.09,-0.05,
2.692,-0.37,1.14,0.25,-0.09,0.06,-0.03,
2.694,-0.37,1.14,0.25,-0.07,0.04,0.01,
2.694,-0.43,1.16,0.63,-0.07,0.04,0.01,
2.697,-0.43,1.16,0.63,-0.06,0.04,0.05,
2.7,-0.43,1.16,0.63,-0.04,0.05,0.11,
2.7,-1.53,1.63,0.57,-0.04,0.05,0.11,
2.702,-1.53,1.63,0.57,-0.04,0.07,0.16,
2.704,-1.49,1.68,0.22,-0.04,0.07,0.16,
2.704,-1.49,1.68,0.22,-0.03,0.10,0.18,
2.706,-1.49,1.68,0.22,-0.03,0.12,0.19,
2.71,-1.49,1.68,0.22,-0.02,0.11,0.20,
2.71,-1.96,1.86,-0.15,-0.02,0.11,0.20,
2.711,-1.96,1.86,-0.15,-0.03,0.08,0.21,
2.714,-1.96,1.86,-0.15,-0.04,0.04,0.20,
2.714,-2.05,2.36,-0.85,-0.04,0.04,0.20,
2.716,-2.05,2.36,-0.85,-0.06,0.00,0.18,
2.719,-2.05,2.36,-0.85,-0.08,-0.04,0.17,
2.72,-2.08,2.53,-0.98,-0.08,-0.04,0.17,
2.721,-2.08,2.53,-0.98,-0.10,-0.07,0.17,
2.724,-2.08,2.53,-0.98,-0.11,-0.09,0.16,
2.724,-1.69,2.50,-0.80,-0.11,-0.09,0.16,
2.726,-1.69,2.50,-0.80,-0.12,-0.11,0.15,
2.729,-1.69,2.50,-0.80,-0.13,-0.12,0.14,
2.729,-1.30,2.91,-0.67,-0.13,-0.12,0.14,
2.731,-1.30,2.91,-0.67,-0.15,-0.13,0.13,
2.734,-1.30,2.91,-0.67,-0.16,-0.13,0.12,
2.734,-0.63,2.77,-0.38,-0.16,-0.13,0.12,
2.737,-0.63,2.77,-0.38,-0.16,-0.13,0.10,
2.739,-0.10,2.28,-0.03,-0.16,-0.13,0.10,
2.739,-0.10,2.28,-0.03,-0.17,-0.13,0.09,
2.741,-0.10,2.28,-0.03,-0.17,-0.11,0.08,
2.744,-0.10,2.28,-0.03,-0.16,-0.09,0.07,
2.744,0.29,2.12,0.17,-0.16,-0.09,0.07,
2.746,0.29,2.12,0.17,-0.16,-0.07,0.06,
2.749,0.29,2.12,0.17,-0.15,-0.04,0.04,
2.749,0.72,1.87,0.34,-0.15,-0.04,0.04,
2.755,0.72,1.87,0.34,-0.15,-0.00,0.03,
2.755,0.91,1.53,0.49,-0.15,-0.00,0.03,
2.756,0.91,1.53,0.49,-0.14,0.04,0.01,
2.77,0.91,1.53,0.49,-0.13,0.09,-0.00,
2.77,0.76,1.33,0.60,-0.13,0.09,-0.00,
2.77,0.76,1.33,0.60,-0.12,0.14,-0.02,
2.77,0.76,1.33,0.60,-0.11,0.19,-0.03,
2.771,0.76,1.33,0.60,-0.09,0.24,-0.05,
2.771,0.58,1.31,0.79,-0.09,0.24,-0.05,
2.771,0.58,1.31,0.79,-0.08,0.28,-0.07,
2.771,0.58,1.31,0.79,-0.07,0.33,-0.08,
2.771,0.17,1.38,0.99,-0.07,0.33,-0.08,
2.771,0.17,1.38,0.99,-0.05,0.37,-0.08,
2.774,0.17,1.38,0.99,-0.03,0.41,-0.09,
2.774,0.04,1.31,1.02,-0.03,0.41,-0.09,
2.776,0.04,1.31,1.02,-0.01,0.44,-0.09,
2.779,0.04,1.31,1.02,-0.00,0.43,-0.09,
2.78,-0.04,1.35,0.80,-0.00,0.43,-0.09,
2.782,-0.04,1.35,0.80,0.01,0.40,-0.09,
2.784,-0.04,1.35,0.80,0.02,0.37,-0.09,
2.785,-0.29,1.39,0.60,0.02,0.37,-0.09,
2.786,-0.29,1.39,0.60,0.03,0.33,-0.09,
2.788,-0.29,1.39,0.60,0.04,0.30,-0.09,
2.789,-0.62,1.31,0.47,0.04,0.30,-0.09,
2.792,-0.62,1.31,0.47,0.05,0.26,-0.09,
2.793,-0.62,1.31,0.47,0.05,0.22,-0.10,
2.794,-0.62,1.27,0.45,0.05,0.22,-0.10,
2.796,-0.62,1.27,0.45,0.06,0.17,-0.11,
2.798,-0.62,1.27,0.45,0.07,0.11,-0.12,
2.798,-0.52,1.26,0.27,0.07,0.11,-0.12,
2.8,-0.52,1.26,0.27,0.08,0.06,-0.13,
2.804,-0.52,1.26,0.27,0.08,0.01,-0.14,
2.804,-0.48,1.19,0.07,0.08,0.01,-0.14,
2.805,-0.48,1.19,0.07,0.08,-0.03,-0.15,
2.808,-0.47,1.33,-0.09,0.08,-0.03,-0.15,
2.809,-0.47,1.33,-0.09,0.08,-0.07,-0.15,
2.81,-0.47,1.33,-0.09,0.08,-0.08,-0.15,
2.813,-0.47,1.33,-0.09,0.08,-0.08,-0.16,
2.813,-0.52,1.64,-0.26,0.08,-0.08,-0.16,
2.815,-0.52,1.64,-0.26,0.08,-0.08,-0.16,
2.819,-0.65,1.39,-0.42,0.08,-0.08,-0.16,
2.82,-0.65,1.39,-0.42,0.08,-0.07,-0.16,
2.821,-0.65,1.39,-0.42,0.08,-0.03,-0.17,
2.824,-0.65,1.39,-0.42,0.06,0.03,-0.17,
2.825,-0.83,0.41,-2.12,0.06,0.03,-0.17,
2.825,-0.83,0.41,-2.12,-0.01,0.32,-0.18,
2.828,-0.83,0.41,-2.12,-0.02,0.52,-0.17,
2.829,-1.06,-0.60,-1.30,-0.02,0.52,-0.17,
2.83,-1.06,-0.60,-1.30,-0.01,0.47,-0.14,
2.833,-1.06,-0.60,-1.30,0.03,0.33,-0.13,
2.834,-0.13,-0.69,1.65,0.03,0.33,-0.13,
2.836,-0.13,-0.69,1.65,0.06,0.23,-0.14,
2.838,-0.13,-0.69,1.65,0.08,0.17,-0.18,
2.838,0.76,-0.80,0.35,0.08,0.17,-0.18,
2.84,0.76,-0.80,0.35,0.08,0.16,-0.23,
2.843,0.76,-0.80,0.35,0.08,0.16,-0.28,
2.843,0.84,-1.54,0.15,0.08,0.16,-0.28,
2.845,0.84,-1.54,0.15,0.08,0.17,-0.28,
2.848,0.84,-1.54,0.15,0.06,0.20,0.13,
2.848,-6.65,-10.95,-0.64,0.06,0.20,0.13,
2.85,-6.65,-10.95,-0.64,-0.01,0.12,0.60,
2.857,-0.06,-11.73,0.35,-0.01,0.12,0.60,
2.858,-0.06,-11.73,0.35,-0.02,0.11,0.84,
2.858,-0.06,-11.73,0.35,-0.04,0.19,0.91,
2.858,-0.06,-11.73,0.35,-0.05,0.24,0.87,
2.858,2.27,-5.27,1.06,-0.05,0.24,0.87,
2.868,2.27,-5.27,1.06,-0.04,0.25,0.77,
2.868,2.27,-5.27,1.06,-0.03,0.24,0.67,
2.868,1.47,-0.52,0.94,-0.03,0.24,0.67,
2.869,1.47,-0.52,0.94,-0.02,0.24,0.58,
2.876,1.47,-0.52,0.94,-0.01,0.25,0.47,
2.877,1.74,2.31,0.07,-0.01,0.25,0.47,
2.877,1.74,2.31,0.07,-0.02,0.26,0.38,
2.877,1.74,2.31,0.07,-0.02,0.24,0.29,
2.877,2.51,3.53,-0.18,-0.02,0.24,0.29,
2.878,2.51,3.53,-0.18,-0.02,0.21,0.23,
2.878,2.51,3.53,-0.18,-0.01,0.20,0.16,
2.878,3.11,3.23,-0.14,-0.01,0.20,0.16,
2.881,3.11,3.23,-0.14,-0.00,0.21,0.09,
2.883,3.11,3.23,-0.14,0.01,0.23,0.03,
2.884,3.14,1.92,0.07,0.01,0.23,0.03,
2.885,3.14,1.92,0.07,0.01,0.26,-0.01,
2.888,3.14,1.92,0.07,0.02,0.31,-0.03,
2.888,1.51,0.40,0.05,0.02,0.31,-0.03,
2.894,1.51,0.40,0.05,0.03,0.35,-0.02,
2.894,1.51,0.40,0.05,0.03,0.38,-0.01,
2.894,0.20,-0.47,0.06,0.03,0.38,-0.01,
2.895,0.20,-0.47,0.06,0.03,0.40,0.01,
2.897,0.20,-0.47,0.06,0.03,0.41,0.01,
2.897,-0.08,-0.79,0.05,0.03,0.41,0.01,
2.899,-0.08,-0.79,0.05,0.03,0.40,0.01,
2.902,-0.29,-1.01,0.23,0.03,0.40,0.01,
2.903,-0.29,-1.01,0.23,0.03,0.38,0.01,
2.905,-0.29,-1.01,0.23,0.03,0.34,0.01,
2.907,-0.29,-1.01,0.23,0.03,0.30,-0.00,
2.907,-0.49,-1.34,0.21,0.03,0.30,-0.00,
2.91,-0.49,-1.34,0.21,0.02,0.26,-0.01,
2.912,-0.49,-1.34,0.21,0.01,0.23,-0.04,
2.912,0.34,-2.91,-0.34,0.01,0.23,-0.04,
2.914,0.34,-2.91,-0.34,-0.02,0.30,-0.15,
2.917,0.34,-2.91,-0.34,-0.06,0.41,-0.20,
2.917,-0.03,-2.77,-1.20,-0.06,0.41,-0.20,
2.92,-0.03,-2.77,-1.20,-0.06,0.36,-0.17,
2.938,-0.68,-0.58,1.42,-0.06,0.36,-0.17,
2.938,-0.68,-0.58,1.42,-0.04,0.20,-0.11,
2.939,-0.68,-0.58,1.42,-0.02,0.07,-0.07,
2.939,-0.68,-0.58,1.42,0.00,0.03,-0.04,
2.939,-0.82,0.36,0.76,0.00,0.03,-0.04,
2.939,-0.82,0.36,0.76,0.01,0.05,-0.04,
2.94,-0.82,0.36,0.76,0.02,0.07,-0.04,
2.94,-0.97,0.84,0.25,0.02,0.07,-0.04,
2.94,-0.97,0.84,0.25,0.02,0.09,-0.04,
2.94,-0.97,0.84,0.25,0.03,0.09,-0.04,
2.941,-0.77,1.05,0.06,0.03,0.09,-0.04,
2.941,-0.77,1.05,0.06,0.03,0.08,-0.04,
2.947,-0.77,1.05,0.06,0.02,0.08,-0.04,
2.947,-0.21,1.02,-0.17,0.02,0.08,-0.04,
2.948,-0.21,1.02,-0.17,0.02,0.07,-0.04,
2.948,-0.21,1.02,-0.17,0.02,0.04,-0.03,
2.948,-0.09,0.50,-0.05,0.02,0.04,-0.03,
2.956,-0.09,0.50,-0.05,0.02,0.02,-0.03,
2.956,-0.25,-0.04,0.20,0.02,0.02,-0.03,
2.956,-0.25,-0.04,0.20,0.03,0.00,-0.03,
2.957,-0.25,-0.04,0.20,0.03,0.00,-0.03,
2.971,-0.25,-0.04,0.20,0.03,0.01,-0.03,
2.971,-0.13,-0.21,0.31,0.03,0.01,-0.03,
2.971,-0.13,-0.21,0.31,0.04,0.01,-0.04,
2.972,0.14,-0.22,0.42,0.04,0.01,-0.04,
2.972,0.27,-0.17,0.39,0.04,0.01,-0.04,
2.972,0.27,-0.17,0.39,0.04,-0.00,-0.04,
2.972,0.27,-0.17,0.39,0.04,0.00,-0.04,
2.973,0.27,-0.17,0.39,0.05,-0.01,-0.05,
2.973,0.27,-0.17,0.39,0.06,-0.01,-0.06,
2.973,0.27,-0.17,0.39,0.06,-0.01,-0.07,
2.973,0.52,-0.09,0.37,0.06,-0.01,-0.07,
2.975,0.52,-0.09,0.37,0.06,0.00,-0.08,
2.978,0.52,-0.09,0.37,0.07,0.02,-0.09,
2.979,0.44,0.06,-0.07,0.07,0.02,-0.09,
2.979,0.44,0.06,-0.07,0.06,0.05,-0.10,
2.983,0.29,0.23,-0.36,0.06,0.05,-0.10,
2.983,0.29,0.23,-0.36,0.05,0.10,-0.10,
2.984,0.29,0.23,-0.36,0.05,0.14,-0.10,
2.987,-0.24,0.28,-0.40,0.05,0.14,-0.10,
2.987,-0.24,0.28,-0.40,0.04,0.16,-0.09,
2.989,-0.24,0.28,-0.40,0.03,0.17,-0.08,
2.991,-0.24,0.28,-0.40,0.03,0.18,-0.08,
2.992,-0.44,0.10,-0.18,0.03,0.18,-0.08,
2.994,-0.44,0.10,-0.18,0.02,0.17,-0.08,
2.997,-0.57,-0.05,-0.01,0.02,0.17,-0.08,
2.997,-0.57,-0.05,-0.01,0.03,0.17,-0.07,
2.999,-0.57,-0.05,-0.01,0.03,0.16,-0.07,
3.002,-0.58,-0.09,0.02,0.03,0.16,-0.07,
3.002,-0.58,-0.09,0.02,0.03,0.14,-0.06,
3.004,-0.58,-0.09,0.02,0.03,0.12,-0.06,
3.007,-0.51,-0.08,-0.06,0.03,0.12,-0.06,
3.007,-0.51,-0.08,-0.06,0.03,0.11,-0.05,
3.009,-0.51,-0.08,-0.06,0.03,0.10,-0.05,
3.011,-0.51,-0.08,-0.06,0.02,0.09,-0.04,
3.012,-0.45,-0.15,-0.12,0.02,0.09,-0.04,
3.014,-0.45,-0.15,-0.12,0.02,0.09,-0.04,
3.016,-0.45,-0.15,-0.12,0.01,0.09,-0.03,
3.016,-0.39,-0.27,-0.10,0.01,0.09,-0.03,
3.019,-0.39,-0.27,-0.10,0.01,0.08,-0.03,
3.022,-0.19,-0.43,0.07,0.01,0.08,-0.03,
3.022,-0.19,-0.43,0.07,0.01,0.07,-0.03,
3.024,-0.19,-0.43,0.07,0.01,0.07,-0.03,
3.027,-0.19,-0.43,0.07,0.01,0.07,-0.03,
3.027,0.08,-0.52,0.28,0.01,0.07,-0.03,
3.029,0.08,-0.52,0.28,0.01,0.09,-0.03,
3.031,0.27,-0.55,0.37,0.01,0.09,-0.03,
3.032,0.27,-0.55,0.37,0.01,0.10,-0.03,
3.034,0.27,-0.55,0.37,0.02,0.10,-0.04,
3.037,0.31,-0.37,0.07,0.02,0.10,-0.04,
3.037,0.31,-0.37,0.07,0.01,0.11,-0.04,
3.039,0.31,-0.37,0.07,0.00,0.17,-0.05,
3.041,0.31,-0.37,0.07,-0.00,0.24,-0.04,
3.042,0.42,-0.12,-0.23,-0.00,0.24,-0.04,
3.044,0.42,-0.12,-0.23,-0.01,0.28,-0.05,
3.046,0.42,-0.12,-0.23,0.00,0.29,-0.05,
3.046,0.67,-0.10,0.75,0.00,0.29,-0.05,
3.048,0.67,-0.10,0.75,0.02,0.26,-0.06,
3.051,0.25,-0.27,0.99,0.02,0.26,-0.06,
3.052,0.25,-0.27,0.99,0.03,0.21,-0.07,
3.058,0.25,-0.27,0.99,0.05,0.16,-0.09,
3.059,0.25,-0.27,0.99,0.06,0.13,-0.10,
3.059,-0.03,-0.26,0.75,0.06,0.13,-0.10,
3.06,-0.03,-0.26,0.75,0.06,0.09,-0.11,
3.062,-0.03,-0.26,0.75,0.07,0.07,-0.12,
3.062,0.05,-0.10,0.39,0.07,0.07,-0.12,
3.064,0.05,-0.10,0.39,0.07,0.06,-0.13,
3.068,0.05,-0.10,0.39,0.07,0.08,-0.12,
3.069,-0.04,0.06,-0.21,0.07,0.08,-0.12,
3.077,-0.04,0.06,-0.21,0.06,0.10,-0.12,
3.078,-0.04,0.06,-0.21,0.05,0.12,-0.11,
3.078,-0.11,0.15,-0.38,0.05,0.12,-0.11,
3.079,-0.11,0.15,-0.38,0.04,0.13,-0.11,
3.079,-0.11,0.15,-0.38,0.04,0.14,-0.11,
3.079,-0.07,0.17,-0.16,0.04,0.14,-0.11,
3.08,-0.07,0.17,-0.16,0.04,0.14,-0.11,
3.081,-0.04,0.09,0.07,0.04,0.14,-0.11,
3.081,-0.04,0.09,0.07,0.04,0.15,-0.12,
3.083,-0.04,0.09,0.07,0.04,0.15,-0.12,
3.088,-0.11,0.18,0.37,0.04,0.15,-0.12,
3.115,-0.11,0.18,0.37,0.05,0.15,-0.12,
3.115,-0.11,0.18,0.37,0.06,0.16,-0.11,
3.116,0.03,0.20,0.31,0.06,0.16,-0.11,
3.116,0.03,0.20,0.31,0.07,0.17,-0.12,
3.116,0.03,0.20,0.31,0.07,0.19,-0.12,
3.117,0.03,0.20,0.31,0.07,0.22,-0.12,
3.117,0.03,0.20,0.31,0.06,0.25,-0.13,
3.117,0.15,0.19,-0.50,0.06,0.25,-0.13,
3.118,0.15,0.19,-0.50,0.05,0.27,-0.13,
3.118,0.13,0.19,-0.63,0.05,0.27,-0.13,
3.118,0.13,0.19,-0.63,0.04,0.27,-0.12,
3.119,-0.09,0.05,0.04,0.04,0.27,-0.12,
3.119,-0.09,0.05,0.04,0.04,0.26,-0.11,
3.119,-0.09,0.05,0.04,0.04,0.24,-0.11,
3.12,-0.09,0.05,0.04,0.05,0.22,-0.11,
3.12,-0.29,-0.19,0.36,0.05,0.22,-0.11,
3.12,-0.29,-0.19,0.36,0.06,0.21,-0.11,
3.121,-0.29,-0.19,0.36,0.06,0.22,-0.11,
3.121,-0.47,-0.24,0.20,0.06,0.22,-0.11,
3.121,-0.47,-0.24,0.20,0.07,0.21,-0.11,
3.122,-0.47,-0.24,0.20,0.07,0.18,-0.10,
3.122,-0.72,-0.19,0.12,0.07,0.18,-0.10,
3.125,-0.72,-0.19,0.12,0.07,0.14,-0.09,
3.125,-0.79,-0.13,0.01,0.07,0.14,-0.09,
3.126,-0.79,-0.13,0.01,0.07,0.10,-0.08,
3.129,-0.79,-0.13,0.01,0.07,0.07,-0.07,
3.131,-0.74,-0.16,-0.06,0.07,0.07,-0.07,
3.132,-0.74,-0.16,-0.06,0.07,0.05,-0.06,
3.134,-0.74,-0.16,-0.06,0.07,0.02,-0.06,
3.136,-0.74,-0.16,-0.06,0.07,0.01,-0.06,
3.139,-0.57,-0.23,-0.09,0.07,0.01,-0.06,
3.139,-0.57,-0.23,-0.09,0.06,-0.00,-0.06,
3.14,-0.57,-0.23,-0.09,0.07,-0.02,-0.06,
3.141,-0.47,-0.15,-0.03,0.07,-0.02,-0.06,
3.142,-0.47,-0.15,-0.03,0.06,-0.03,-0.05,
3.145,-0.47,-0.15,-0.03,0.06,-0.03,-0.05,
3.146,-0.17,-0.14,0.10,0.06,-0.03,-0.05,
3.148,-0.17,-0.14,0.10,0.06,-0.04,-0.05,
3.15,-0.17,-0.14,0.10,0.07,-0.03,-0.06,
3.151,0.15,-0.12,0.17,0.07,-0.03,-0.06,
3.17,0.15,-0.12,0.17,0.07,-0.02,-0.06,
3.17,0.15,-0.12,0.17,0.07,-0.01,-0.07,
3.171,0.27,-0.09,0.18,0.07,-0.01,-0.07,
3.172,0.27,-0.09,0.18,0.07,0.00,-0.07,
3.172,0.27,-0.09,0.18,0.08,0.01,-0.08,
3.173,0.18,-0.00,0.16,0.08,0.01,-0.08,
3.173,0.18,-0.00,0.16,0.08,0.02,-0.08,
3.173,0.18,-0.00,0.16,0.08,0.03,-0.07,
3.174,-0.03,-0.12,0.12,0.08,0.03,-0.07,
3.174,-0.03,-0.12,0.12,0.08,0.03,-0.07,
3.174,-0.03,-0.12,0.12,0.08,0.03,-0.07,
3.175,-0.15,-0.24,0.00,0.08,0.03,-0.07,
3.176,-0.15,-0.24,0.00,0.08,0.03,-0.07,
3.177,-0.15,-0.24,0.00,0.08,0.03,-0.07,
3.178,-0.25,-0.31,0.01,0.08,0.03,-0.07,
3.178,-0.25,-0.31,0.01,0.08,0.02,-0.07,
3.18,-0.26,-0.23,0.05,0.08,0.02,-0.07,
3.18,-0.26,-0.23,0.05,0.08,0.01,-0.07,
3.182,-0.26,-0.23,0.05,0.08,0.00,-0.07,
3.186,-0.26,-0.23,0.05,0.08,0.00,-0.07,
3.189,-0.20,-0.08,0.18,0.08,0.00,-0.07,
3.191,-0.20,-0.08,0.18,0.08,-0.00,-0.07,
3.192,-0.20,-0.08,0.18,0.09,-0.01,-0.08,
3.192,0.04,0.20,0.34,0.09,-0.01,-0.08,
3.192,0.04,0.20,0.34,0.10,-0.01,-0.09,
3.198,0.04,0.20,0.34,0.11,-0.01,-0.11,
3.199,0.43,0.53,0.53,0.11,-0.01,-0.11,
3.199,0.43,0.53,0.53,0.12,-0.02,-0.12,
3.2,0.43,0.53,0.53,0.13,-0.03,-0.11,
3.2,0.02,0.66,0.15,0.13,-0.03,-0.11,
3.204,0.02,0.66,0.15,0.13,-0.03,-0.11,
3.205,0.02,0.66,0.15,0.12,-0.02,-0.11,
3.205,-0.09,0.71,-0.36,0.12,-0.02,-0.11,
3.207,-0.09,0.71,-0.36,0.12,-0.00,-0.10,
3.209,-0.09,0.71,-0.36,0.11,0.02,-0.09,
3.21,-0.52,0.40,-0.61,0.11,0.02,-0.09,
3.212,-0.52,0.40,-0.61,0.10,0.03,-0.08,
3.214,-0.52,0.40,-0.61,0.09,0.03,-0.06,
3.214,-0.86,0.16,-0.52,0.09,0.03,-0.06,
3.217,-0.86,0.16,-0.52,0.08,-0.00,-0.04,
3.22,-0.86,0.16,-0.52,0.07,-0.04,-0.02,
3.22,-1.20,-0.02,-0.04,0.07,-0.04,-0.02,
3.222,-1.20,-0.02,-0.04,0.08,-0.08,-0.00,
3.224,-1.20,-0.02,-0.04,0.08,-0.12,0.00,
3.224,-0.81,-0.16,0.33,0.08,-0.12,0.00,
3.227,-0.81,-0.16,0.33,0.08,-0.13,-0.00,
3.229,-0.81,-0.16,0.33,0.07,-0.12,-0.01,
3.229,-0.09,-0.48,0.10,0.07,-0.12,-0.01,
3.232,-0.09,-0.48,0.10,0.07,-0.11,-0.02,
3.235,-0.23,-0.54,0.36,0.07,-0.11,-0.02,
3.235,-0.23,-0.54,0.36,0.07,-0.13,-0.01,
3.238,-0.23,-0.54,0.36,0.08,-0.17,0.01,
3.242,-0.23,-0.54,0.36,0.07,-0.22,0.02,
3.242,-0.20,-0.54,0.25,0.07,-0.22,0.02,
3.249,-0.19,-0.18,0.03,0.07,-0.22,0.02,
3.25,-0.19,-0.18,0.03,0.08,-0.21,0.03,
3.25,-0.19,-0.18,0.03,0.07,-0.21,0.04,
3.25,-0.19,-0.18,0.03,0.08,-0.24,0.02,
3.251,-0.19,-0.18,0.03,0.08,-0.24,0.01,
3.251,0.17,-0.18,-0.07,0.08,-0.24,0.01,
3.271,0.17,-0.18,-0.07,0.09,-0.17,-0.00,
3.272,0.17,-0.18,-0.07,0.07,-0.12,-0.01,
3.272,-0.08,-0.11,-0.53,0.07,-0.12,-0.01,
3.272,-0.08,-0.11,-0.53,0.06,-0.11,-0.01,
3.272,0.14,0.08,-0.24,0.06,-0.11,-0.01,
3.273,0.14,0.08,-0.24,0.05,-0.12,-0.01,
3.273,0.14,0.08,-0.24,0.04,-0.14,-0.01,
3.273,0.14,0.08,-0.24,0.02,-0.11,-0.01,
3.273,-0.02,-0.07,-0.64,0.02,-0.11,-0.01,
3.274,-0.02,-0.07,-0.64,0.01,-0.07,0.00,
3.274,-0.02,-0.07,-0.64,0.03,-0.04,0.02,
3.274,-0.53,0.04,0.54,0.03,-0.04,0.02,
3.274,-0.53,0.04,0.54,0.05,-0.05,0.03,
3.275,-0.45,-0.00,1.65,0.05,-0.05,0.03,
3.275,-0.45,-0.00,1.65,0.08,-0.08,0.03,
3.278,-0.45,-0.00,1.65,0.10,-0.13,0.04,
3.28,-0.57,-0.38,0.48,0.10,-0.13,0.04,
3.28,-0.57,-0.38,0.48,0.11,-0.15,0.04,
3.281,-0.57,-0.38,0.48,0.09,-0.12,0.05,
3.284,-0.85,-0.49,-1.23,0.09,-0.12,0.05,
3.284,-0.85,-0.49,-1.23,0.07,-0.04,0.07,
3.289,-0.85,-0.49,-1.23,0.04,0.08,0.08,
3.29,-0.26,-0.90,-1.60,0.04,0.08,0.08,
3.29,-0.26,-0.90,-1.60,0.01,0.19,0.09,
3.291,-0.26,-0.90,-1.60,-0.02,0.24,0.11,
3.294,0.07,-0.45,1.03,-0.02,0.24,0.11,
3.294,0.07,-0.45,1.03,-0.01,0.22,0.12,
3.296,0.07,-0.45,1.03,0.02,0.15,0.14,
3.299,0.07,-0.45,1.03,0.04,0.11,0.14,
3.299,0.06,-0.18,1.56,0.04,0.11,0.14,
3.301,0.06,-0.18,1.56,0.05,0.07,0.15,
3.304,0.06,-0.18,1.56,0.04,0.05,0.12,
3.305,0.74,-0.84,-0.40,0.04,0.05,0.12,
3.306,0.74,-0.84,-0.40,0.03,0.03,0.09,
3.309,0.48,-0.53,-0.43,0.03,0.03,0.09,
3.309,0.48,-0.53,-0.43,0.02,0.03,0.07,
3.311,0.48,-0.53,-0.43,0.01,0.06,0.05,
3.314,0.20,-0.42,-0.64,0.01,0.06,0.05,
3.314,0.20,-0.42,-0.64,-0.01,0.09,0.05,
3.316,0.20,-0.42,-0.64,-0.02,0.10,0.04,
3.322,0.11,-0.38,-0.11,-0.02,0.10,0.04,
3.322,0.11,-0.38,-0.11,-0.02,0.10,0.04,
3.323,0.11,-0.38,-0.11,-0.02,0.08,0.04,
3.324,0.15,-0.30,0.59,-0.02,0.08,0.04,
3.324,0.15,-0.30,0.59,-0.02,0.04,0.04,
3.326,0.15,-0.30,0.59,-0.01,-0.01,0.02,
3.333,0.63,-0.54,0.51,-0.01,-0.01,0.02,
3.333,0.63,-0.54,0.51,-0.00,-0.05,-0.01,
3.333,0.63,-0.54,0.51,0.00,-0.07,-0.03,
3.334,0.63,-0.54,0.51,0.01,-0.08,-0.05,
3.334,0.48,-0.38,0.58,0.01,-0.08,-0.05,
3.345,0.48,-0.38,0.58,0.02,-0.09,-0.07,
3.345,0.49,-0.31,0.92,0.02,-0.09,-0.07,
3.346,0.49,-0.31,0.92,0.04,-0.08,-0.09,
3.346,0.49,-0.31,0.92,0.06,-0.07,-0.10,
3.346,0.65,-0.29,1.12,0.06,-0.07,-0.10,
3.346,0.65,-0.29,1.12,0.07,-0.07,-0.12,
3.347,0.65,-0.29,1.12,0.10,-0.07,-0.13,
3.364,0.65,-0.29,1.12,0.12,-0.07,-0.15,
3.364,0.65,-0.29,1.12,0.16,-0.08,-0.18,
3.365,1.03,0.09,1.58,0.16,-0.08,-0.18,
3.365,1.03,0.09,1.58,0.19,-0.12,-0.21,
3.365,1.68,0.02,1.79,0.19,-0.12,-0.21,
3.366,1.68,0.02,1.79,0.21,-0.15,-0.25,
3.366,1.68,0.02,1.79,0.20,-0.17,-0.29,
3.366,1.86,-0.56,0.03,0.20,-0.17,-0.29,
3.366,1.86,-0.56,0.03,0.20,-0.19,-0.32,
3.367,1.86,-0.56,0.03,0.17,-0.22,-0.35,
3.367,1.28,-0.79,-0.32,0.17,-0.22,-0.35,
3.367,1.28,-0.79,-0.32,0.14,-0.26,-0.37,
3.368,1.28,-0.79,-0.32,0.11,-0.27,-0.37,
3.369,-0.01,-0.93,-0.91,0.11,-0.27,-0.37,
3.371,-0.01,-0.93,-0.91,0.10,-0.21,-0.36,
3.374,-0.64,-0.34,-0.04,0.10,-0.21,-0.36,
3.374,-0.64,-0.34,-0.04,0.10,-0.13,-0.35,
3.376,-0.64,-0.34,-0.04,0.08,-0.08,-0.34,
3.379,-2.08,-0.10,-1.58,0.08,-0.08,-0.34,
3.379,-2.08,-0.10,-1.58,0.05,-0.11,-0.31,
3.38,-2.08,-0.10,-1.58,0.02,-0.14,-0.25,
3.383,-2.08,-0.10,-1.58,-0.03,-0.13,-0.20,
3.383,-2.69,0.67,-1.86,-0.03,-0.13,-0.20,
3.386,-2.69,0.67,-1.86,-0.07,-0.08,-0.16,
3.388,-2.69,0.67,-1.86,-0.12,-0.02,-0.13,
3.389,-2.55,0.67,-2.35,-0.12,-0.02,-0.13,
3.39,-2.55,0.67,-2.35,-0.17,0.01,-0.08,
3.393,-2.55,0.67,-2.35,-0.19,-0.03,-0.01,
3.393,-3.04,0.25,-1.15,-0.19,-0.03,-0.01,
3.395,-3.04,0.25,-1.15,-0.24,-0.13,0.05,
3.399,-1.96,-1.66,-5.28,-0.24,-0.13,0.05,
3.399,-1.96,-1.66,-5.28,-0.36,-0.27,0.08,
3.4,-1.96,-1.66,-5.28,-0.60,-0.38,0.07,
3.404,0.78,-3.52,-19.26,-0.60,-0.38,0.07,
3.406,0.78,-3.52,-19.26,-1.04,-0.44,0.02,
3.407,0.78,-3.52,-19.26,-1.48,-0.43,-0.06,
3.408,1.84,-0.30,-3.05,-1.48,-0.43,-0.06,
3.408,1.84,-0.30,-3.05,-1.59,-0.32,-0.15,
3.41,1.84,-0.30,-3.05,-1.38,-0.19,-0.18,
3.413,0.02,1.60,20.45,-1.38,-0.19,-0.18,
3.413,0.02,1.60,20.45,-0.91,-0.08,-0.15,
3.415,0.02,1.60,20.45,-0.43,0.00,-0.12,
3.432,1.62,0.46,18.62,-0.43,0.00,-0.12,
3.432,1.62,0.46,18.62,0.03,-0.00,-0.10,
3.433,1.62,0.46,18.62,0.37,-0.07,-0.10,
3.433,1.38,1.71,7.93,0.37,-0.07,-0.10,
3.433,1.38,1.71,7.93,0.56,-0.14,-0.11,
3.434,1.38,1.71,7.93,0.62,-0.16,-0.13,
3.434,1.38,1.71,7.93,0.56,-0.06,-0.16,
3.434,1.37,1.71,-2.62,0.56,-0.06,-0.16,
3.434,1.37,1.71,-2.62,0.42,0.13,-0.16,
3.435,1.37,1.71,-2.62,0.26,0.33,-0.12,
3.435,0.07,-0.06,-6.91,0.26,0.33,-0.12,
3.435,0.07,-0.06,-6.91,0.12,0.43,-0.07,
3.438,0.07,-0.06,-6.91,0.02,0.40,-0.07,
3.439,0.58,-0.72,-3.95,0.02,0.40,-0.07,
3.44,0.58,-0.72,-3.95,-0.02,0.31,-0.11,
3.443,0.58,-0.72,-3.95,-0.03,0.26,-0.15,
3.443,-0.15,-1.11,-0.72,-0.03,0.26,-0.15,
3.445,-0.15,-1.11,-0.72,-0.01,0.25,-0.18,
3.448,-0.15,-1.11,-0.72,0.03,0.27,-0.18,
3.448,-1.42,-0.79,0.96,0.03,0.27,-0.18,
3.45,-1.42,-0.79,0.96,0.06,0.30,-0.16,
3.461,-1.08,-0.31,1.88,0.06,0.30,-0.16,
3.463,-1.08,-0.31,1.88,0.09,0.31,-0.13,
3.463,-1.08,-0.31,1.88,0.12,0.28,-0.11,
3.464,-1.08,-0.31,1.88,0.14,0.24,-0.10,
3.464,-0.16,0.04,1.85,0.14,0.24,-0.10,
3.465,-0.16,0.04,1.85,0.16,0.21,-0.10,
3.465,-0.16,0.04,1.85,0.16,0.21,-0.10,
3.466,0.39,-0.01,0.65,0.16,0.21,-0.10,
3.466,0.39,-0.01,0.65,0.16,0.23,-0.11,
3.468,0.39,-0.01,0.65,0.15,0.25,-0.11,
3.468,0.46,-0.27,-0.13,0.15,0.25,-0.11,
3.477,0.46,-0.27,-0.13,0.15,0.27,-0.11,
3.478,0.46,-0.27,-0.13,0.13,0.29,-0.11,
3.478,0.33,-0.52,-0.71,0.13,0.29,-0.11,
3.479,0.33,-0.52,-0.71,0.11,0.31,-0.12,
3.479,0.33,-0.52,-0.71,0.10,0.34,-0.12,
3.48,0.19,-0.62,-0.98,0.10,0.34,-0.12,
3.481,0.19,-0.62,-0.98,0.08,0.38,-0.13,
3.482,0.19,-0.62,-0.98,0.06,0.43,-0.15,
3.483,0.62,-0.71,-1.10,0.06,0.43,-0.15,
3.485,0.62,-0.71,-1.10,0.04,0.48,-0.17,
3.487,0.62,-0.71,-1.10,0.01,0.54,-0.19,
3.488,0.78,-0.74,-0.98,0.01,0.54,-0.19,
3.492,0.78,-0.74,-0.98,-0.01,0.59,-0.19,
3.492,0.78,-0.74,-0.98,-0.02,0.62,-0.19,
3.493,0.45,-0.81,-0.37,-0.02,0.62,-0.19,
3.495,0.45,-0.81,-0.37,-0.02,0.63,-0.18,
3.498,0.45,-0.81,-0.37,-0.03,0.63,-0.18,
3.499,0.17,-0.83,0.30,-0.03,0.63,-0.18,
3.499,0.17,-0.83,0.30,-0.02,0.63,-0.17,
3.502,0.17,-0.83,0.30,-0.02,0.61,-0.17,
3.503,-0.12,-0.78,0.46,-0.02,0.61,-0.17,
3.505,-0.12,-0.78,0.46,-0.02,0.58,-0.18,
3.507,-0.12,-0.78,0.46,-0.02,0.54,-0.18,
3.507,-0.47,-0.73,0.31,-0.02,0.54,-0.18,
3.509,-0.47,-0.73,0.31,-0.02,0.49,-0.18,
3.513,-0.47,-0.73,0.31,-0.02,0.44,-0.18,
3.513,-0.78,-0.75,0.36,-0.02,0.44,-0.18,
3.515,-0.78,-0.75,0.36,-0.02,0.39,-0.17,
3.517,-0.78,-0.75,0.36,-0.02,0.33,-0.17,
3.517,-1.04,-0.71,0.52,-0.02,0.33,-0.17,
3.522,-1.04,-0.71,0.52,-0.02,0.28,-0.15,
3.523,-1.04,-0.71,0.52,-0.01,0.23,-0.14,
3.525,-1.24,-0.70,0.72,-0.01,0.23,-0.14,
3.525,-1.24,-0.70,0.72,0.00,0.18,-0.12,
3.527,-1.24,-0.70,0.72,0.01,0.15,-0.10,
3.528,-1.37,-0.71,0.77,0.01,0.15,-0.10,
3.53,-1.37,-0.71,0.77,0.03,0.12,-0.09,
3.532,-1.39,-0.45,0.68,0.03,0.12,-0.09,
3.532,-1.39,-0.45,0.68,0.03,0.09,-0.07,
3.535,-1.39,-0.45,0.68,0.04,0.06,-0.05,
3.541,-1.19,0.07,0.56,0.04,0.06,-0.05,
3.542,-1.19,0.07,0.56,0.05,0.03,-0.03,
3.542,-1.19,0.07,0.56,0.06,-0.00,-0.01,
3.543,-0.84,0.77,0.28,0.06,-0.00,-0.01,
3.548,-0.84,0.77,0.28,0.07,-0.02,0.00,
3.552,0.27,1.67,0.01,0.07,-0.02,0.00,
3.553,1.63,2.66,-0.23,0.07,-0.02,0.00,
3.553,1.63,2.66,-0.23,0.08,-0.05,0.01,
3.554,1.63,2.66,-0.23,0.09,-0.08,0.00,
3.554,1.63,2.66,-0.23,0.10,-0.09,-0.04,
3.554,1.63,2.66,-0.23,0.11,-0.05,-0.09,
3.567,-0.25,2.97,-1.17,0.11,-0.05,-0.09,
3.568,-0.25,2.97,-1.17,0.13,-0.00,-0.12,
3.568,-0.25,2.97,-1.17,0.12,-0.00,-0.11,
3.569,-0.25,2.97,-1.17,0.07,-0.01,-0.05,
3.57,-0.25,2.97,-1.17,0.02,0.02,0.01,
3.57,-2.51,1.40,-2.19,0.02,0.02,0.01,
3.57,-2.51,1.40,-2.19,0.00,0.06,0.05,
3.57,-2.51,1.40,-2.19,0.01,0.04,0.06,
3.571,-2.17,-1.06,0.00,0.01,0.04,0.06,
3.571,-2.17,-1.06,0.00,0.04,-0.06,0.07,
3.573,-1.91,-2.18,1.39,0.04,-0.06,0.07,
3.573,-1.91,-2.18,1.39,0.06,-0.19,0.08,
3.574,-1.91,-2.18,1.39,0.08,-0.32,0.10,
3.577,-1.91,-2.18,1.39,0.10,-0.44,0.11,
3.577,-0.76,-1.78,1.38,0.10,-0.44,0.11,
3.58,-0.76,-1.78,1.38,0.10,-0.53,0.10,
3.582,-0.76,-1.78,1.38,0.08,-0.55,0.08,
3.599,0.28,-0.90,-0.09,0.08,-0.55,0.08,
3.599,0.28,-0.90,-0.09,0.07,-0.50,0.07,
3.599,0.28,-0.90,-0.09,0.05,-0.42,0.06,
3.6,0.96,0.03,-0.70,0.05,-0.42,0.06,
3.6,0.96,0.03,-0.70,0.04,-0.31,0.05,
3.6,0.96,0.03,-0.70,0.03,-0.22,0.04,
3.601,1.44,0.51,-0.41,0.03,-0.22,0.04,
3.601,1.44,0.51,-0.41,0.03,-0.14,0.04,
3.601,1.44,0.51,-0.41,0.03,-0.07,0.03,
3.601,1.45,0.70,-0.00,0.03,-0.07,0.03,
3.602,1.45,0.70,-0.00,0.04,-0.01,0.01,
3.602,0.88,1.67,0.20,0.04,-0.01,0.01,
3.602,0.88,1.67,0.20,0.05,0.05,0.02,
3.605,0.88,1.67,0.20,0.06,0.12,0.01,
3.608,0.74,1.15,0.35,0.06,0.12,0.01,
3.608,0.74,1.15,0.35,0.07,0.18,-0.01,
3.609,0.74,1.15,0.35,0.09,0.22,-0.03,
3.611,0.19,-0.03,0.31,0.09,0.22,-0.03,
3.612,0.19,-0.03,0.31,0.09,0.22,-0.05,
3.613,0.19,-0.03,0.31,0.09,0.19,-0.06,
3.616,-0.66,-0.85,-0.20,0.09,0.19,-0.06,
3.617,-0.66,-0.85,-0.20,0.08,0.16,-0.05,
3.619,-0.66,-0.85,-0.20,0.07,0.13,-0.03,
3.623,-1.24,-1.09,-0.08,0.07,0.13,-0.03,
3.624,-1.24,-1.09,-0.08,0.06,0.09,-0.01,
3.624,-1.24,-1.09,-0.08,0.06,0.06,0.00,
3.626,-1.39,-0.80,0.29,0.06,0.06,0.00,
3.626,-1.39,-0.80,0.29,0.06,0.02,0.02,
3.628,-1.39,-0.80,0.29,0.06,-0.03,0.03,
3.631,-1.11,-0.24,0.46,0.06,-0.03,0.03,
3.632,-1.11,-0.24,0.46,0.07,-0.07,0.04,
3.634,-1.11,-0.24,0.46,0.07,-0.11,0.05,
3.644,-0.65,-0.46,-0.01,0.07,-0.11,0.05,
3.645,-0.65,-0.46,-0.01,0.06,-0.18,0.06,
3.645,-0.65,-0.46,-0.01,0.06,-0.21,0.07,
3.645,-0.65,-0.46,-0.01,0.06,-0.20,0.07,
3.646,-0.65,-0.46,-0.01,0.08,-0.18,0.07,
3.646,-0.38,0.18,0.15,0.08,-0.18,0.07,
3.646,-0.38,0.18,0.15,0.09,-0.15,0.07,
3.647,-0.39,0.56,0.25,0.09,-0.15,0.07,
3.649,-0.39,0.56,0.25,0.10,-0.14,0.08,
3.654,-0.39,0.56,0.25,0.10,-0.13,0.08,
3.654,-0.31,0.48,-0.26,0.10,-0.13,0.08,
3.655,-0.31,0.48,-0.26,0.09,-0.13,0.09,
3.661,-0.31,0.48,-0.26,0.08,-0.13,0.08,
3.661,0.07,0.21,-0.62,0.08,-0.13,0.08,
3.661,0.07,0.21,-0.62,0.06,-0.12,0.07,
3.662,0.07,0.21,-0.62,0.04,-0.11,0.06,
3.662,0.34,-0.04,-0.65,0.04,-0.11,0.06,
3.664,0.34,-0.04,-0.65,0.03,-0.08,0.05,
3.666,0.40,-0.26,-0.35,0.03,-0.08,0.05,
3.666,0.40,-0.26,-0.35,0.02,-0.05,0.04,
3.668,0.40,-0.26,-0.35,0.02,-0.03,0.04,
3.671,0.35,-0.34,0.21,0.02,-0.03,0.04,
3.672,0.35,-0.34,0.21,0.02,-0.01,0.04,
3.673,0.35,-0.34,0.21,0.02,0.01,0.03,
3.675,0.35,-0.34,0.21,0.03,0.02,0.03,
3.676,0.30,-0.22,0.61,0.03,0.02,0.03,
3.679,0.30,-0.22,0.61,0.04,0.03,0.02,
3.681,0.30,-0.22,0.61,0.04,0.06,0.01,
3.682,0.30,-0.14,0.19,0.04,0.06,0.01,
3.684,0.30,-0.14,0.19,0.04,0.11,0.00,
3.686,0.30,-0.14,0.19,0.04,0.13,0.00,
3.686,0.26,-0.13,0.14,0.04,0.13,0.00,
3.689,0.26,-0.13,0.14,0.04,0.14,-0.00,
3.691,0.20,-0.21,0.27,0.04,0.14,-0.00,
3.691,0.20,-0.21,0.27,0.04,0.16,-0.01,
3.693,0.20,-0.21,0.27,0.05,0.17,-0.01,
3.696,0.20,-0.21,0.27,0.05,0.19,-0.01,
3.696,-0.14,-0.23,0.26,0.05,0.19,-0.01,
3.698,-0.14,-0.23,0.26,0.06,0.21,-0.01,
3.7,-0.14,-0.23,0.26,0.06,0.24,-0.01,
3.701,-0.23,-0.15,0.32,0.06,0.24,-0.01,
3.703,-0.23,-0.15,0.32,0.06,0.26,-0.01,
3.706,-0.23,-0.15,0.32,0.07,0.25,-0.00,
3.706,-0.52,-0.12,0.47,0.07,0.25,-0.00,
3.708,-0.52,-0.12,0.47,0.07,0.22,0.01,
3.71,-0.52,-0.12,0.47,0.08,0.19,0.02,
3.711,-0.85,-0.17,0.66,0.08,0.19,0.02,
3.713,-0.85,-0.17,0.66,0.09,0.14,0.04,
3.715,-0.85,-0.17,0.66,0.09,0.09,0.05,
3.715,-1.02,-0.16,0.70,0.09,0.09,0.05,
3.718,-1.02,-0.16,0.70,0.10,0.04,0.06,
3.721,-1.02,-0.16,0.70,0.11,0.00,0.07,
3.722,-0.98,-0.04,0.58,0.11,0.00,0.07,
3.723,-0.98,-0.04,0.58,0.11,-0.03,0.09,
3.725,-1.10,-0.41,0.66,0.11,-0.03,0.09,
3.726,-1.10,-0.41,0.66,0.12,-0.06,0.09,
3.728,-1.10,-0.41,0.66,0.13,-0.11,0.10,
3.73,-1.10,-0.41,0.66,0.14,-0.12,0.12,
3.731,-0.89,-0.02,0.34,0.14,-0.12,0.12,
3.733,-0.89,-0.02,0.34,0.13,-0.10,0.14,
3.735,-0.71,-0.11,0.39,0.13,-0.10,0.14,
3.736,-0.71,-0.11,0.39,0.14,-0.09,0.17,
3.741,-0.71,-0.11,0.39,0.14,-0.07,0.18,
3.741,-0.71,-0.11,0.39,0.15,-0.04,0.19,
3.742,-0.79,-0.32,0.57,0.15,-0.04,0.19,
3.748,-0.79,-0.32,0.57,0.16,-0.03,0.21,
3.748,-0.99,-0.50,0.68,0.16,-0.03,0.21,
3.749,-0.99,-0.50,0.68,0.16,-0.08,0.23,
3.778,-0.99,-0.50,0.68,0.17,-0.15,0.23,
3.779,-0.51,-0.21,0.59,0.17,-0.15,0.23,
3.779,-0.51,-0.21,0.59,0.18,-0.23,0.22,
3.779,-0.51,-0.21,0.59,0.19,-0.30,0.21,
3.779,-0.51,-0.21,0.59,0.20,-0.35,0.19,
3.78,-0.25,0.28,0.20,0.20,-0.35,0.19,
3.78,-0.25,0.28,0.20,0.21,-0.36,0.18,
3.78,-0.25,0.28,0.20,0.20,-0.32,0.18,
3.781,-0.10,0.44,-0.41,0.20,-0.32,0.18,
3.781,-0.10,0.44,-0.41,0.20,-0.26,0.19,
3.781,-0.10,0.44,-0.41,0.19,-0.19,0.20,
3.781,0.41,0.25,-0.56,0.19,-0.19,0.20,
3.782,0.41,0.25,-0.56,0.18,-0.12,0.20,
3.782,1.15,-0.07,-0.35,0.18,-0.12,0.20,
3.782,1.15,-0.07,-0.35,0.17,-0.06,0.19,
3.783,1.15,-0.07,-0.35,0.16,-0.00,0.18,
3.783,1.15,-0.07,-0.35,0.16,0.05,0.15,
3.783,1.67,-0.35,-0.21,0.16,0.05,0.15,
3.783,1.67,-0.35,-0.21,0.16,0.09,0.12,
3.784,1.67,-0.35,-0.21,0.15,0.12,0.09,
3.784,1.74,-0.45,-0.07,0.15,0.12,0.09,
3.784,1.74,-0.45,-0.07,0.15,0.15,0.07,
3.784,1.74,-0.45,-0.07,0.14,0.18,0.04,
3.785,1.38,-0.45,-0.03,0.14,0.18,0.04,
3.789,1.38,-0.45,-0.03,0.14,0.21,0.03,
3.79,1.38,-0.45,-0.03,0.14,0.25,0.01,
3.79,0.76,-0.36,0.19,0.14,0.25,0.01,
3.793,0.76,-0.36,0.19,0.14,0.28,0.01,
3.795,0.76,-0.36,0.19,0.15,0.30,0.01,
3.796,0.17,-0.28,0.36,0.15,0.30,0.01,
3.798,0.17,-0.28,0.36,0.15,0.31,0.01,
3.8,0.17,-0.28,0.36,0.16,0.31,0.02,
3.8,-0.40,-0.32,0.48,0.16,0.31,0.02,
3.802,-0.40,-0.32,0.48,0.17,0.30,0.02,
3.805,-0.40,-0.32,0.48,0.17,0.28,0.03,
3.805,-0.86,-0.37,0.52,0.17,0.28,0.03,
3.807,-0.86,-0.37,0.52,0.18,0.25,0.04,
3.809,-0.86,-0.37,0.52,0.18,0.22,0.04,
3.81,-1.05,-0.39,0.54,0.18,0.22,0.04,
3.812,-1.05,-0.39,0.54,0.19,0.18,0.05,
3.814,-1.05,-0.39,0.54,0.19,0.15,0.06,
3.814,-0.96,-0.29,0.68,0.19,0.15,0.06,
3.816,-0.96,-0.29,0.68,0.21,0.11,0.06,
3.822,-0.88,-0.26,0.95,0.21,0.11,0.06,
3.824,-0.88,-0.26,0.95,0.22,0.07,0.07,
3.826,-0.88,-0.26,0.95,0.24,0.02,0.08,
3.826,-0.88,-0.26,0.95,0.25,-0.01,0.09,
3.826,-0.70,-0.45,0.97,0.25,-0.01,0.09,
3.827,-0.70,-0.45,0.97,0.26,-0.05,0.09,
3.829,-0.70,-0.45,0.97,0.27,-0.08,0.09,
3.83,-0.28,-0.59,0.87,0.27,-0.08,0.09,
3.832,-0.28,-0.59,0.87,0.27,-0.11,0.09,
3.835,0.31,-0.53,0.77,0.27,-0.11,0.09,
3.836,0.31,-0.53,0.77,0.28,-0.13,0.08,
3.838,0.31,-0.53,0.77,0.28,-0.15,0.07,
3.841,0.94,-0.26,0.59,0.28,-0.15,0.07,
3.842,0.94,-0.26,0.59,0.29,-0.17,0.05,
3.844,0.94,-0.26,0.59,0.29,-0.17,0.03,
3.844,1.36,0.10,0.29,0.29,-0.17,0.03,
3.845,1.36,0.10,0.29,0.30,-0.16,0.01,
3.847,1.36,0.10,0.29,0.31,-0.14,-0.01,
3.849,1.36,0.10,0.29,0.31,-0.11,-0.04,
3.849,1.40,0.31,-0.15,0.31,-0.11,-0.04,
3.852,1.40,0.31,-0.15,0.31,-0.07,-0.05,
3.857,1.06,0.36,-0.42,0.31,-0.07,-0.05,
3.859,1.06,0.36,-0.42,0.30,-0.02,-0.07,
3.859,1.06,0.36,-0.42,0.29,0.03,-0.08,
3.859,0.56,0.12,-0.34,0.29,0.03,-0.08,
3.86,0.56,0.12,-0.34,0.28,0.07,-0.09,
3.861,0.56,0.12,-0.34,0.28,0.09,-0.08,
3.866,-0.05,-0.36,0.02,0.28,0.09,-0.08,
3.866,-0.05,-0.36,0.02,0.27,0.11,-0.07,
3.867,-0.05,-0.36,0.02,0.27,0.12,-0.07,
3.869,-0.05,-0.36,0.02,0.27,0.11,-0.06,
3.869,-0.67,-0.69,0.36,0.27,0.11,-0.06,
3.876,-0.67,-0.69,0.36,0.28,0.09,-0.05,
3.877,-0.67,-0.69,0.36,0.28,0.07,-0.04,
3.877,-1.07,-0.63,0.51,0.28,0.07,-0.04,
3.877,-1.07,-0.63,0.51,0.29,0.04,-0.03,
3.879,-1.25,-0.25,0.43,0.29,0.04,-0.03,
3.879,-1.25,-0.25,0.43,0.29,0.01,-0.02,
3.881,-1.25,-0.25,0.43,0.30,-0.02,-0.01,
3.884,-1.41,0.20,0.13,0.30,-0.02,-0.01,
3.884,-1.41,0.20,0.13,0.30,-0.06,0.01,
3.886,-1.41,0.20,0.13,0.30,-0.09,0.03,
3.889,-1.55,0.47,-0.28,0.30,-0.09,0.03,
3.89,-1.55,0.47,-0.28,0.30,-0.11,0.05,
3.894,-1.55,0.47,-0.28,0.30,-0.12,0.07,
3.894,-1.55,0.47,-0.28,0.29,-0.12,0.08,
3.894,-1.42,0.68,-0.57,0.29,-0.12,0.08,
3.896,-1.42,0.68,-0.57,0.28,-0.11,0.10,
3.899,-1.42,0.68,-0.57,0.28,-0.12,0.12,
3.899,-1.41,0.60,-0.57,0.28,-0.12,0.12,
3.901,-1.41,0.60,-0.57,0.27,-0.13,0.13,
3.904,-1.41,0.60,-0.57,0.27,-0.13,0.15,
3.904,-1.21,0.47,-0.56,0.27,-0.13,0.15,
3.907,-1.21,0.47,-0.56,0.26,-0.14,0.16,
3.909,-1.21,0.47,-0.56,0.25,-0.16,0.18,
3.909,-1.16,0.20,-0.62,0.25,-0.16,0.18,
3.911,-1.16,0.20,-0.62,0.24,-0.18,0.20,
3.937,-1.16,0.20,-0.62,0.23,-0.19,0.21,
3.938,-1.14,-0.05,-0.71,0.23,-0.19,0.21,
3.938,-1.14,-0.05,-0.71,0.22,-0.18,0.23,
3.938,-1.14,-0.05,-0.71,0.20,-0.11,0.24,
3.939,-0.62,0.04,-1.29,0.20,-0.11,0.24,
3.939,-0.62,0.04,-1.29,0.18,-0.02,0.24,
3.939,-0.62,0.04,-1.29,0.17,-0.04,0.25,
3.939,-0.41,-0.08,-0.22,0.17,-0.04,0.25,
3.939,-0.41,-0.08,-0.22,0.18,-0.08,0.26,
3.94,-0.41,-0.08,-0.22,0.18,-0.10,0.27,
3.94,-0.19,-0.38,0.12,0.18,-0.10,0.27,
3.94,-0.19,-0.38,0.12,0.19,-0.10,0.27,
3.94,-0.19,-0.38,0.12,0.18,-0.09,0.26,
3.941,-0.04,-0.57,-0.35,0.18,-0.09,0.26,
3.941,-0.04,-0.57,-0.35,0.17,-0.06,0.26,
3.941,-0.33,-0.49,-0.42,0.17,-0.06,0.26,
3.941,-0.33,-0.49,-0.42,0.16,-0.04,0.27,
3.942,-0.33,-0.49,-0.42,0.15,-0.01,0.28,
3.944,-0.33,-0.49,-0.42,0.15,0.01,0.30,
3.945,-0.58,-0.29,0.03,0.15,0.01,0.30,
3.946,-0.58,-0.29,0.03,0.15,0.02,0.31,
3.949,-0.58,-0.29,0.03,0.16,0.02,0.32,
3.95,-0.57,-0.08,0.31,0.16,0.02,0.32,
3.952,-0.57,-0.08,0.31,0.16,0.01,0.32,
3.96,-0.79,-0.02,0.44,0.16,0.01,0.32,
3.961,-0.79,-0.02,0.44,0.17,-0.00,0.33,
3.962,-0.79,-0.02,0.44,0.18,-0.01,0.34,
3.962,-0.79,-0.02,0.44,0.19,-0.01,0.36,
3.962,-1.18,0.04,0.64,0.19,-0.01,0.36,
3.963,-1.18,0.04,0.64,0.20,-0.02,0.39,
3.964,-1.18,0.04,0.64,0.21,-0.03,0.41,
3.965,-1.50,0.06,0.71,0.21,-0.03,0.41,
3.966,-1.50,0.06,0.71,0.22,-0.05,0.44,
3.969,-1.50,0.06,0.71,0.23,-0.09,0.46,
3.969,-1.65,0.02,0.58,0.23,-0.09,0.46,
3.977,-1.65,0.02,0.58,0.23,-0.13,0.49,
3.977,-1.65,0.02,0.58,0.23,-0.19,0.51,
3.978,-1.66,-0.06,0.33,0.23,-0.19,0.51,
3.978,-1.66,-0.06,0.33,0.23,-0.24,0.53,
3.978,-1.66,-0.06,0.33,0.22,-0.28,0.54,
3.978,-1.43,-0.30,0.08,0.22,-0.28,0.54,
3.98,-1.43,-0.30,0.08,0.22,-0.32,0.56,
3.983,-1.43,-0.30,0.08,0.21,-0.34,0.57,
3.983,-0.90,-0.37,-0.07,0.21,-0.34,0.57,
3.985,-0.90,-0.37,-0.07,0.21,-0.35,0.57,
3.988,-0.90,-0.37,-0.07,0.20,-0.36,0.58,
3.988,-0.31,-0.38,-0.03,0.20,-0.36,0.58,
3.991,-0.31,-0.38,-0.03,0.20,-0.36,0.58,
3.993,-0.31,-0.38,-0.03,0.20,-0.35,0.57,
3.993,0.20,-0.34,0.09,0.20,-0.35,0.57,
3.995,0.20,-0.34,0.09,0.20,-0.33,0.57,
3.998,0.20,-0.34,0.09,0.19,-0.30,0.56,
3.998,0.55,-0.24,0.16,0.19,-0.30,0.56,
4.001,0.55,-0.24,0.16,0.19,-0.27,0.55,
4.003,0.55,-0.24,0.16,0.19,-0.23,0.55,
4.003,0.73,-0.13,0.10,0.19,-0.23,0.55,
4.006,0.73,-0.13,0.10,0.19,-0.19,0.54,
4.008,0.73,-0.13,0.10,0.19,-0.15,0.54,
4.008,0.71,0.03,-0.05,0.19,-0.15,0.54,
4.01,0.71,0.03,-0.05,0.18,-0.11,0.53,
4.013,0.71,0.03,-0.05,0.18,-0.07,0.53,
4.013,0.45,0.11,-0.10,0.18,-0.07,0.53,
4.015,0.45,0.11,-0.10,0.18,-0.02,0.53,
4.018,0.08,0.17,-0.09,0.18,-0.02,0.53,
4.018,0.08,0.17,-0.09,0.18,0.01,0.53,
4.021,0.08,0.17,-0.09,0.18,0.04,0.53,
4.023,-0.32,0.15,-0.04,0.18,0.04,0.53,
4.024,-0.32,0.15,-0.04,0.18,0.06,0.54,
4.025,-0.32,0.15,-0.04,0.18,0.07,0.54,
4.028,-0.32,0.15,-0.04,0.18,0.07,0.55,
4.028,-0.70,0.05,-0.02,0.18,0.07,0.55,
4.03,-0.70,0.05,-0.02,0.18,0.06,0.56,
4.032,-0.70,0.05,-0.02,0.18,0.05,0.57,
4.033,-1.00,-0.09,0.02,0.18,0.05,0.57,
4.035,-1.00,-0.09,0.02,0.18,0.03,0.58,
4.038,-1.12,-0.20,0.18,0.18,0.03,0.58,
4.039,-1.12,-0.20,0.18,0.18,0.01,0.60,
4.04,-1.12,-0.20,0.18,0.18,-0.01,0.61,
4.043,-1.12,-0.20,0.18,0.19,-0.04,0.62,
4.043,-1.05,-0.25,0.52,0.19,-0.04,0.62,
4.045,-1.05,-0.25,0.52,0.20,-0.07,0.63,
4.048,-0.81,-0.24,0.75,0.20,-0.07,0.63,
4.048,-0.81,-0.24,0.75,0.21,-0.09,0.64,
4.05,-0.81,-0.24,0.75,0.22,-0.12,0.64,
4.052,-0.52,-0.21,0.55,0.22,-0.12,0.64,
4.053,-0.52,-0.21,0.55,0.23,-0.14,0.64,
4.06,-0.52,-0.21,0.55,0.24,-0.15,0.64,
4.06,-0.09,-0.12,0.21,0.24,-0.15,0.64,
4.061,-0.09,-0.12,0.21,0.24,-0.16,0.64,
4.061,-0.09,-0.12,0.21,0.23,-0.17,0.63,
4.063,-0.09,-0.12,0.21,0.23,-0.17,0.63,
4.063,0.54,-0.26,0.16,0.23,-0.17,0.63,
4.071,0.54,-0.26,0.16,0.23,-0.17,0.62,
4.072,0.54,-0.26,0.16,0.23,-0.15,0.62,
4.072,1.02,-0.50,0.43,0.23,-0.15,0.62,
4.072,1.02,-0.50,0.43,0.23,-0.13,0.61,
4.087,1.08,-0.25,0.59,0.23,-0.13,0.61,
4.088,1.08,-0.25,0.59,0.24,-0.09,0.59,
4.089,1.08,-0.25,0.59,0.24,-0.04,0.56,
4.089,1.08,-0.25,0.59,0.25,-0.01,0.54,
4.111,0.82,0.08,0.49,0.25,-0.01,0.54,
4.111,0.82,0.08,0.49,0.25,0.02,0.53,
4.111,0.82,0.08,0.49,0.26,0.05,0.52,
4.112,0.50,0.19,0.19,0.26,0.05,0.52,
4.112,0.50,0.19,0.19,0.25,0.10,0.52,
4.112,0.32,0.04,-0.30,0.25,0.10,0.52,
4.113,0.32,0.04,-0.30,0.24,0.17,0.52,
4.113,0.32,0.04,-0.30,0.23,0.20,0.52,
4.113,0.32,0.04,-0.30,0.24,0.20,0.53,
4.114,0.26,-0.02,0.58,0.24,0.20,0.53,
4.114,0.26,-0.02,0.58,0.25,0.18,0.53,
4.114,0.26,-0.02,0.58,0.26,0.18,0.51,
4.114,0.42,-0.32,0.52,0.26,0.18,0.51,
4.115,0.42,-0.32,0.52,0.26,0.17,0.50,
4.115,0.15,-0.30,0.53,0.26,0.17,0.50,
4.115,0.15,-0.30,0.53,0.26,0.15,0.50,
4.116,0.15,-0.30,0.53,0.27,0.15,0.49,
4.116,-0.02,-0.29,0.31,0.27,0.15,0.49,
4.116,-0.02,-0.29,0.31,0.27,0.16,0.49,
4.117,-0.02,-0.29,0.31,0.27,0.18,0.48,
4.117,-0.04,-0.28,0.27,0.27,0.18,0.48,
4.117,-0.04,-0.28,0.27,0.27,0.20,0.47,
4.117,-0.04,-0.28,0.27,0.28,0.20,0.48,
4.118,-0.74,0.33,0.43,0.28,0.20,0.48,
4.118,-0.74,0.33,0.43,0.28,0.17,0.50,
4.121,-0.74,0.33,0.43,0.28,0.15,0.52,
4.131,-0.92,0.72,-0.01,0.28,0.15,0.52,
4.131,-0.74,0.59,-0.20,0.28,0.15,0.52,
4.131,-0.74,0.59,-0.20,0.28,0.13,0.54,
4.132,-0.74,0.59,-0.20,0.27,0.11,0.55,
4.132,-0.74,0.59,-0.20,0.26,0.10,0.55,
4.132,-0.74,0.59,-0.20,0.25,0.08,0.55,
4.133,-0.74,0.59,-0.20,0.25,0.05,0.55,
4.133,-0.57,0.42,-0.01,0.25,0.05,0.55,
4.135,-0.57,0.42,-0.01,0.24,0.03,0.55,
4.138,-0.57,0.42,-0.01,0.23,0.00,0.55,
4.138,-0.36,0.33,0.17,0.23,0.00,0.55,
4.14,-0.36,0.33,0.17,0.23,-0.01,0.55,
4.144,-0.13,0.19,0.28,0.23,-0.01,0.55,
4.144,-0.13,0.19,0.28,0.23,-0.02,0.55,
4.145,-0.13,0.19,0.28,0.23,-0.03,0.55,
4.147,-0.13,0.19,0.28,0.22,-0.03,0.55,
4.147,0.15,0.07,0.28,0.22,-0.03,0.55,
4.149,0.15,0.07,0.28,0.22,-0.04,0.55,
4.152,0.15,0.07,0.28,0.22,-0.04,0.55,
4.152,0.34,0.09,0.08,0.22,-0.04,0.55,
4.155,0.34,0.09,0.08,0.21,-0.04,0.54,
4.157,0.37,0.20,-0.08,0.21,-0.04,0.54,
4.158,0.37,0.20,-0.08,0.21,-0.04,0.54,
4.159,0.37,0.20,-0.08,0.20,-0.02,0.53,
4.161,0.23,0.26,-0.06,0.20,-0.02,0.53,
4.162,0.23,0.26,-0.06,0.20,0.01,0.53,
4.164,0.23,0.26,-0.06,0.20,0.04,0.53,
4.167,0.23,0.26,-0.06,0.20,0.06,0.53,
4.167,0.08,0.28,0.05,0.20,0.06,0.53,
4.169,0.08,0.28,0.05,0.19,0.08,0.54,
4.178,0.02,0.35,0.22,0.19,0.08,0.54,
4.179,0.02,0.35,0.22,0.19,0.08,0.54,
4.179,0.02,0.35,0.22,0.19,0.08,0.55,
4.18,-0.18,0.46,0.35,0.19,0.08,0.55,
4.18,-0.18,0.46,0.35,0.19,0.07,0.55,
4.18,-0.18,0.46,0.35,0.20,0.07,0.56,
4.182,-0.53,0.61,0.27,0.20,0.07,0.56,
4.182,-0.53,0.61,0.27,0.21,0.09,0.57,
4.188,-0.84,0.79,0.16,0.21,0.09,0.57,
4.189,-0.84,0.79,0.16,0.21,0.12,0.58,
4.189,-0.84,0.79,0.16,0.21,0.16,0.60,
4.196,-1.01,1.04,0.18,0.21,0.16,0.60,
4.197,-1.01,1.04,0.18,0.22,0.20,0.62,
4.197,-1.01,1.04,0.18,0.21,0.22,0.64,
4.197,-1.01,1.04,0.18,0.21,0.23,0.66,
4.198,-1.01,1.04,0.18,0.21,0.24,0.68,
4.198,-1.17,1.26,0.14,0.21,0.24,0.68,
4.199,-1.17,1.26,0.14,0.21,0.25,0.71,
4.202,-1.17,1.26,0.14,0.20,0.27,0.74,
4.202,-1.51,1.42,0.04,0.20,0.27,0.74,
4.203,-1.51,1.42,0.04,0.20,0.29,0.77,
4.207,-1.51,1.42,0.04,0.20,0.33,0.81,
4.208,-1.84,1.48,0.12,0.20,0.33,0.81,
4.209,-1.84,1.48,0.12,0.21,0.38,0.85,
4.211,-2.05,1.35,0.17,0.21,0.38,0.85,
4.211,-2.05,1.35,0.17,0.23,0.45,0.89,
4.213,-2.05,1.35,0.17,0.28,0.52,0.93,
4.216,-2.05,1.35,0.17,0.33,0.60,0.97,
4.216,-1.99,1.15,-0.80,0.33,0.60,0.97,
4.218,-1.99,1.15,-0.80,0.37,0.69,1.00,
4.221,-2.02,1.01,-2.83,0.37,0.69,1.00,
4.222,-2.02,1.01,-2.83,0.36,0.78,1.02,
4.224,-2.02,1.01,-2.83,0.31,0.89,1.04,
4.226,-2.02,1.01,-2.83,0.22,1.01,1.04,
4.226,-2.73,1.05,-3.47,0.22,1.01,1.04,
4.228,-2.73,1.05,-3.47,0.13,1.13,1.05,
4.231,-2.73,1.05,-3.47,0.08,1.25,1.06,
4.231,-3.63,1.39,-1.33,0.08,1.25,1.06,
4.236,-3.63,1.39,-1.33,0.06,1.34,1.08,
4.236,-3.63,1.39,-1.33,0.08,1.42,1.11,
4.236,-4.01,1.99,1.09,0.08,1.42,1.11,
4.24,-4.01,1.99,1.09,0.12,1.48,1.14,
4.242,-3.80,2.44,1.34,0.12,1.48,1.14,
4.243,-3.80,2.44,1.34,0.18,1.55,1.17,
4.264,-3.80,2.44,1.34,0.23,1.61,1.20,
4.264,-3.80,2.44,1.34,0.26,1.67,1.23,
4.264,-3.44,2.75,-0.16,0.26,1.67,1.23,
4.265,-3.44,2.75,-0.16,0.28,1.71,1.26,
4.265,-3.44,2.75,-0.16,0.27,1.75,1.30,
4.265,-3.31,2.96,-1.66,0.27,1.75,1.30,
4.265,-3.31,2.96,-1.66,0.26,1.79,1.34,
4.265,-3.31,2.96,-1.66,0.24,1.83,1.39,
4.265,-3.24,3.02,-2.09,0.24,1.83,1.39,
4.266,-3.24,3.02,-2.09,0.22,1.90,1.43,
4.266,-3.24,3.02,-2.09,0.22,1.99,1.46,
4.266,-3.11,2.86,-1.71,0.22,1.99,1.46,
4.266,-3.11,2.86,-1.71,0.22,2.08,1.48,
4.266,-3.11,2.86,-1.71,0.24,2.16,1.50,
4.266,-3.04,2.53,-1.35,0.24,2.16,1.50,
4.271,-3.04,2.53,-1.35,0.24,2.24,1.50,
4.273,-3.04,2.53,-1.35,0.24,2.33,1.48,
4.274,-3.30,2.11,-1.14,0.24,2.33,1.48,
4.28,-3.30,2.11,-1.14,0.26,2.42,1.46,
4.28,-3.75,1.64,-1.06,0.26,2.42,1.46,
4.281,-3.75,1.64,-1.06,0.27,2.50,1.43,
4.281,-3.75,1.64,-1.06,0.28,2.55,1.42,
4.281,-3.75,1.64,-1.06,0.30,2.60,1.40,
4.282,-4.00,1.19,-1.31,0.30,2.60,1.40,
4.283,-4.00,1.19,-1.31,0.31,2.62,1.38,
4.286,-4.32,0.57,-1.65,0.31,2.62,1.38,
4.286,-4.32,0.57,-1.65,0.32,2.62,1.36,
4.29,-4.32,0.57,-1.65,0.32,2.59,1.31,
4.291,-4.32,0.57,-1.65,0.30,2.54,1.25,
4.292,-5.11,-0.14,-1.83,0.30,2.54,1.25,
4.293,-5.11,-0.14,-1.83,0.28,2.50,1.17,
4.295,-5.11,-0.14,-1.83,0.25,2.44,1.07,
4.296,-6.69,-0.98,-1.29,0.25,2.44,1.07,
4.298,-6.69,-0.98,-1.29,0.23,2.40,0.99,
4.3,-6.69,-0.98,-1.29,0.19,2.37,0.92,
4.3,-8.51,-1.62,-0.09,0.19,2.37,0.92,
4.302,-8.51,-1.62,-0.09,0.16,2.35,0.89,
4.305,-8.51,-1.62,-0.09,0.15,2.34,0.89,
4.307,-8.97,-2.43,1.39,0.15,2.34,0.89,
4.307,-8.97,-2.43,1.39,0.14,2.34,0.88,
4.31,-8.97,-2.43,1.39,0.16,2.35,0.85,
4.31,-7.91,-3.43,2.46,0.16,2.35,0.85,
4.312,-7.91,-3.43,2.46,0.18,2.37,0.80,
4.315,-7.91,-3.43,2.46,0.22,2.40,0.72,
4.315,-6.62,-4.42,2.60,0.22,2.40,0.72,
4.317,-6.62,-4.42,2.60,0.25,2.45,0.61,
4.32,-6.62,-4.42,2.60,0.28,2.50,0.48,
4.32,-6.06,-5.18,2.20,0.28,2.50,0.48,
4.323,-6.06,-5.18,2.20,0.30,2.54,0.35,
4.325,-6.41,-5.52,1.62,0.30,2.54,0.35,
4.325,-6.41,-5.52,1.62,0.32,2.58,0.21,
4.328,-6.41,-5.52,1.62,0.33,2.61,0.06,
4.331,-6.41,-5.52,1.62,0.33,2.63,-0.08,
4.331,-6.98,-5.61,1.32,0.33,2.63,-0.08,
4.333,-6.98,-5.61,1.32,0.33,2.64,-0.23,
4.336,-7.29,-5.60,1.47,0.33,2.64,-0.23,
4.336,-7.29,-5.60,1.47,0.33,2.64,-0.37,
4.339,-7.29,-5.60,1.47,0.33,2.63,-0.51,
4.341,-7.29,-5.60,1.47,0.34,2.61,-0.64,
4.342,-7.92,-5.67,2.08,0.34,2.61,-0.64,
4.343,-7.92,-5.67,2.08,0.35,2.57,-0.75,
4.345,-7.92,-5.67,2.08,0.37,2.51,-0.84,
4.345,-8.54,-5.82,2.58,0.37,2.51,-0.84,
4.347,-8.54,-5.82,2.58,0.38,2.45,-0.92,
4.35,-8.54,-5.82,2.58,0.40,2.38,-1.00,
4.35,-8.69,-5.96,2.82,0.40,2.38,-1.00,
4.352,-8.69,-5.96,2.82,0.42,2.32,-1.07,
4.355,-8.48,-6.01,2.95,0.42,2.32,-1.07,
4.355,-8.48,-6.01,2.95,0.44,2.26,-1.13,
4.358,-8.48,-6.01,2.95,0.46,2.20,-1.19,
4.36,-7.87,-5.83,2.98,0.46,2.20,-1.19,
4.36,-7.87,-5.83,2.98,0.49,2.14,-1.25,
4.362,-7.87,-5.83,2.98,0.51,2.07,-1.31,
4.365,-6.71,-5.32,3.01,0.51,2.07,-1.31,
4.365,-6.71,-5.32,3.01,0.53,2.00,-1.38,
4.367,-6.71,-5.32,3.01,0.55,1.92,-1.46,
4.37,-6.71,-5.32,3.01,0.57,1.84,-1.53,
4.37,-5.85,-4.72,2.94,0.57,1.84,-1.53,
4.377,-5.85,-4.72,2.94,0.59,1.76,-1.60,
4.377,-5.27,-4.18,2.75,0.59,1.76,-1.60,
4.378,-5.27,-4.18,2.75,0.60,1.70,-1.67,
4.379,-5.27,-4.18,2.75,0.61,1.63,-1.73,
4.382,-4.81,-3.67,2.58,0.61,1.63,-1.73,
4.383,-4.81,-3.67,2.58,0.62,1.58,-1.79,
4.383,-4.81,-3.67,2.58,0.64,1.53,-1.85,
4.385,-4.81,-3.67,2.58,0.65,1.47,-1.90,
4.386,-4.26,-3.17,2.58,0.65,1.47,-1.90,
4.387,-4.26,-3.17,2.58,0.67,1.43,-1.95,
4.397,-4.26,-3.17,2.58,0.69,1.38,-1.99,
4.398,-3.50,-2.66,2.64,0.69,1.38,-1.99,
4.398,-3.50,-2.66,2.64,0.72,1.33,-2.04,
4.398,-3.50,-2.66,2.64,0.75,1.28,-2.08,
4.398,-2.42,-1.99,2.33,0.75,1.28,-2.08,
4.399,-2.42,-1.99,2.33,0.77,1.23,-2.12,
4.4,-2.42,-1.99,2.33,0.79,1.19,-2.15,
4.4,-1.20,-1.18,1.33,0.79,1.19,-2.15,
4.402,-1.20,-1.18,1.33,0.80,1.16,-2.17,
4.406,-1.20,-1.18,1.33,0.80,1.14,-2.18,
4.407,-0.10,-0.36,-0.03,0.80,1.14,-2.18,
4.411,-0.10,-0.36,-0.03,0.79,1.12,-2.18,
4.424,0.92,0.25,-1.22,0.79,1.12,-2.18,
4.424,0.92,0.25,-1.22,0.78,1.12,-2.18,
4.425,0.92,0.25,-1.22,0.77,1.12,-2.16,
4.425,1.90,0.62,-1.83,0.77,1.12,-2.16,
4.425,1.90,0.62,-1.83,0.76,1.15,-2.14,
4.425,1.90,0.62,-1.83,0.75,1.18,-2.11,
4.425,2.77,0.80,-1.86,0.75,1.18,-2.11,
4.425,2.77,0.80,-1.86,0.75,1.22,-2.07,
4.426,2.77,0.80,-1.86,0.75,1.26,-2.02,
4.426,3.48,0.87,-1.63,0.75,1.26,-2.02,
4.426,3.48,0.87,-1.63,0.76,1.30,-1.96,
4.427,3.48,0.87,-1.63,0.77,1.35,-1.89,
4.43,4.15,0.87,-1.61,0.77,1.35,-1.89,
4.43,4.15,0.87,-1.61,0.78,1.39,-1.81,
4.433,4.15,0.87,-1.61,0.78,1.43,-1.73,
4.435,4.15,0.87,-1.61,0.77,1.48,-1.64,
4.436,4.85,0.93,-1.87,0.77,1.48,-1.64,
4.437,4.85,0.93,-1.87,0.76,1.53,-1.56,
4.439,4.85,0.93,-1.87,0.74,1.58,-1.48,
4.44,5.62,1.12,-2.03,0.74,1.58,-1.48,
4.441,5.62,1.12,-2.03,0.72,1.63,-1.39,
4.444,5.62,1.12,-2.03,0.70,1.69,-1.31,
4.444,6.41,1.45,-1.76,0.70,1.69,-1.31,
4.446,6.41,1.45,-1.76,0.69,1.74,-1.23,
4.449,6.41,1.45,-1.76,0.68,1.80,-1.15,
4.449,7.27,1.79,-1.24,0.68,1.80,-1.15,
4.451,7.27,1.79,-1.24,0.67,1.85,-1.07,
4.454,7.27,1.79,-1.24,0.67,1.91,-0.98,
4.454,8.14,2.02,-0.80,0.67,1.91,-0.98,
4.459,8.14,2.02,-0.80,0.66,1.96,-0.90,
4.459,8.14,2.02,-0.80,0.66,2.02,-0.82,
4.459,8.89,2.06,-0.45,0.66,2.02,-0.82,
4.464,8.89,2.06,-0.45,0.65,2.07,-0.73,
4.466,8.89,2.06,-0.45,0.64,2.12,-0.65,
4.467,9.49,1.77,-0.17,0.64,2.12,-0.65,
4.467,9.49,1.77,-0.17,0.63,2.16,-0.57,
4.469,9.49,1.77,-0.17,0.60,2.20,-0.49,
4.469,9.72,1.22,0.11,0.60,2.20,-0.49,
4.477,9.72,1.22,0.11,0.58,2.22,-0.42,
4.478,9.39,0.55,0.59,0.58,2.22,-0.42,
4.478,9.39,0.55,0.59,0.54,2.24,-0.34,
4.478,9.39,0.55,0.59,0.51,2.24,-0.27,
4.48,9.39,0.55,0.59,0.48,2.22,-0.18,
4.48,8.29,0.03,1.37,0.48,2.22,-0.18,
4.481,8.29,0.03,1.37,0.46,2.18,-0.09,
4.485,8.29,0.03,1.37,0.43,2.12,0.02,
4.485,6.90,-0.32,2.08,0.43,2.12,0.02,
4.487,6.90,-0.32,2.08,0.41,2.04,0.13,
4.489,5.79,-0.63,2.56,0.41,2.04,0.13,
4.489,5.79,-0.63,2.56,0.38,1.95,0.25,
4.491,5.79,-0.63,2.56,0.36,1.84,0.37,
4.493,5.79,-0.63,2.56,0.33,1.72,0.49,
4.493,5.14,-0.76,2.79,0.33,1.72,0.49,
4.496,5.14,-0.76,2.79,0.30,1.60,0.60,
4.499,5.14,-0.76,2.79,0.27,1.47,0.71,
4.499,4.93,-0.87,3.04,0.27,1.47,0.71,
4.501,4.93,-0.87,3.04,0.24,1.34,0.81,
4.504,4.93,-0.87,3.04,0.21,1.20,0.90,
4.504,5.07,-1.14,3.42,0.21,1.20,0.90,
4.506,5.07,-1.14,3.42,0.18,1.07,0.97,
4.509,5.07,-1.14,3.42,0.15,0.96,1.04,
4.509,5.55,-1.64,3.96,0.15,0.96,1.04,
4.511,5.55,-1.64,3.96,0.23,0.87,1.11,
4.513,5.55,-1.64,3.96,0.42,0.73,1.19,
4.514,6.63,-1.74,4.51,0.42,0.73,1.19,
4.516,6.63,-1.74,4.51,0.62,0.42,1.22,
4.518,6.63,-1.74,4.51,0.71,-0.07,1.25,
4.519,7.63,-0.54,2.69,0.71,-0.07,1.25,
4.521,7.63,-0.54,2.69,0.68,-0.62,1.33,
4.524,7.63,-0.54,2.69,0.63,-1.03,1.48,
4.524,7.20,-0.21,-1.46,0.63,-1.03,1.48,
4.526,7.20,-0.21,-1.46,0.62,-1.20,1.66,
4.529,7.77,-0.26,-5.65,0.62,-1.20,1.66,
4.529,7.77,-0.26,-5.65,0.58,-1.20,1.76,
4.531,7.77,-0.26,-5.65,0.43,-1.18,1.65,
4.533,6.08,-0.32,-6.16,0.43,-1.18,1.65,
4.533,6.08,-0.32,-6.16,0.11,-1.22,1.39,
4.536,6.08,-0.32,-6.16,-0.27,-1.21,1.10,
4.54,6.08,-0.32,-6.16,-0.62,-1.07,0.87,
4.54,-2.49,3.81,-2.61,-0.62,-1.07,0.87,
4.542,-2.49,3.81,-2.61,-0.89,-0.84,0.71,
4.545,-9.21,13.26,2.36,-0.89,-0.84,0.71,
4.546,-9.21,13.26,2.36,-1.07,-0.59,0.64,
4.547,-9.21,13.26,2.36,-1.13,-0.38,0.78,
4.549,-6.91,29.60,7.76,-1.13,-0.38,0.78,
4.549,-6.91,29.60,7.76,-1.09,-0.53,1.29,
4.551,-6.91,29.60,7.76,-1.01,-0.72,1.89,
4.554,-5.76,29.55,7.69,-1.01,-0.72,1.89,
4.554,-5.76,29.55,7.69,-0.87,-0.52,2.19,
4.558,-5.76,29.55,7.69,-0.68,0.15,2.27,
4.559,-13.39,13.00,9.64,-0.68,0.15,2.27,
4.56,-13.39,13.00,9.64,-0.38,0.86,2.39,
4.563,-13.39,13.00,9.64,-0.05,1.12,2.49,
4.565,-13.39,13.00,9.64,0.25,0.85,2.53,
4.565,-14.13,-0.44,11.41,0.25,0.85,2.53,
4.568,-14.13,-0.44,11.41,0.46,0.21,2.52,
4.569,-14.13,-0.44,11.41,0.52,-0.61,2.45,
4.57,-5.71,-7.83,4.41,0.52,-0.61,2.45,
4.571,-5.71,-7.83,4.41,0.46,-1.44,2.31,
4.578,1.26,-12.00,-4.14,0.46,-1.44,2.31,
4.593,1.26,-12.00,-4.14,0.34,-2.08,2.17,
4.593,1.26,-12.00,-4.14,0.18,-2.46,2.10,
4.593,1.26,-12.00,-4.14,-0.03,-2.54,2.12,
4.593,3.36,-14.25,-8.99,-0.03,-2.54,2.12,
4.594,3.36,-14.25,-8.99,-0.24,-2.36,2.20,
4.594,5.80,-14.99,-7.71,-0.24,-2.36,2.20,
4.594,5.80,-14.99,-7.71,-0.41,-1.95,2.33,
4.594,5.80,-14.99,-7.71,-0.56,-1.35,2.47,
4.594,5.80,-14.99,-7.71,-0.62,-0.70,2.60,
4.594,10.59,-7.45,-0.85,-0.62,-0.70,2.60,
4.595,10.59,-7.45,-0.85,-0.59,-0.23,2.60,
4.595,10.59,-7.45,-0.85,-0.48,0.01,2.45,
4.595,13.54,4.46,7.03,-0.48,0.01,2.45,
4.595,13.54,4.46,7.03,-0.32,0.17,2.19,
4.598,9.56,7.52,6.99,-0.32,0.17,2.19,
4.598,9.56,7.52,6.99,-0.15,0.37,1.93,
4.6,9.56,7.52,6.99,-0.03,0.61,1.76,
4.603,9.56,7.52,6.99,0.04,0.86,1.67,
4.604,4.34,2.90,2.45,0.04,0.86,1.67,
4.609,4.34,2.90,2.45,0.06,1.07,1.63,
4.609,4.34,2.90,2.45,0.03,1.19,1.61,
4.61,0.62,-2.83,-0.67,0.03,1.19,1.61,
4.612,0.62,-2.83,-0.67,-0.02,1.14,1.60,
4.614,-1.51,-3.40,-0.57,-0.02,1.14,1.60,
4.615,-1.51,-3.40,-0.57,-0.06,0.96,1.62,
4.617,-1.51,-3.40,-0.57,-0.09,0.75,1.65,
4.618,-1.51,-3.40,-0.57,-0.12,0.55,1.67,
4.618,-2.08,-1.05,-0.09,-0.12,0.55,1.67,
4.62,-2.08,-1.05,-0.09,-0.13,0.40,1.70,
4.623,-1.74,1.02,-0.21,-0.13,0.40,1.70,
4.624,-1.74,1.02,-0.21,-0.14,0.30,1.72,
4.626,-1.74,1.02,-0.21,-0.16,0.25,1.74,
4.628,-1.74,1.02,-0.21,-0.17,0.22,1.76,
4.628,-1.38,1.39,-0.03,-0.17,0.22,1.76,
4.63,-1.38,1.39,-0.03,-0.16,0.22,1.78,
4.633,-1.38,1.39,-0.03,-0.15,0.22,1.79,
4.633,-1.10,0.60,0.97,-0.15,0.22,1.79,
4.635,-1.10,0.60,0.97,-0.12,0.20,1.81,
4.638,-1.10,0.60,0.97,-0.09,0.19,1.82,
4.638,-0.51,-0.71,1.76,-0.09,0.19,1.82,
4.641,-0.51,-0.71,1.76,-0.06,0.16,1.81,
4.644,0.89,-1.15,1.51,-0.06,0.16,1.81,
4.644,0.89,-1.15,1.51,-0.04,0.11,1.78,
4.645,0.89,-1.15,1.51,-0.02,0.06,1.75,
4.649,1.83,-1.08,0.07,-0.02,0.06,1.75,
4.649,1.83,-1.08,0.07,-0.02,0.01,1.71,
4.65,1.83,-1.08,0.07,-0.03,-0.03,1.66,
4.653,1.83,-1.08,0.07,-0.05,-0.04,1.62,
4.654,1.98,-0.82,-1.22,-0.05,-0.04,1.62,
4.659,1.98,-0.82,-1.22,-0.07,-0.03,1.57,
4.66,1.98,-0.82,-1.22,-0.09,-0.01,1.52,
4.66,1.55,-0.76,-1.36,-0.09,-0.01,1.52,
4.661,1.55,-0.76,-1.36,-0.11,0.01,1.49,
4.662,1.08,-0.80,-0.65,-0.11,0.01,1.49,
4.662,1.08,-0.80,-0.65,-0.13,0.03,1.46,
4.664,1.08,-0.80,-0.65,-0.14,0.05,1.43,
4.668,1.08,-0.80,-0.65,-0.15,0.07,1.41,
4.669,0.91,-0.73,0.03,-0.15,0.07,1.41,
4.671,0.91,-0.73,0.03,-0.15,0.09,1.39,
4.678,0.91,-0.73,0.03,-0.15,0.10,1.36,
4.679,0.92,-0.38,0.29,-0.15,0.10,1.36,
4.679,0.92,-0.38,0.29,-0.14,0.12,1.34,
4.68,0.92,-0.38,0.29,-0.15,0.14,1.32,
4.68,0.80,-0.30,-0.00,-0.15,0.14,1.32,
4.681,0.80,-0.30,-0.00,-0.15,0.17,1.30,
4.682,0.61,-0.38,-0.39,-0.15,0.17,1.30,
4.682,0.61,-0.38,-0.39,-0.16,0.20,1.28,
4.684,0.61,-0.38,-0.39,-0.17,0.23,1.27,
4.687,0.31,-0.42,-0.58,-0.17,0.23,1.27,
4.687,0.31,-0.42,-0.58,-0.18,0.25,1.26,
4.689,0.31,-0.42,-0.58,-0.19,0.27,1.24,
4.693,-0.01,-0.28,-0.47,-0.19,0.27,1.24,
4.693,-0.01,-0.28,-0.47,-0.19,0.29,1.24,
4.694,-0.01,-0.28,-0.47,-0.19,0.30,1.23,
4.697,-0.24,-0.30,-0.24,-0.19,0.30,1.23,
4.697,-0.24,-0.30,-0.24,-0.20,0.33,1.23,
4.699,-0.24,-0.30,-0.24,-0.20,0.34,1.23,
4.702,-0.14,-0.12,0.29,-0.20,0.34,1.23,
4.702,-0.14,-0.12,0.29,-0.20,0.34,1.23,
4.704,-0.14,-0.12,0.29,-0.19,0.34,1.22,
4.707,0.12,0.14,0.51,-0.19,0.34,1.22,
4.708,0.12,0.14,0.51,-0.16,0.36,1.21,
4.71,0.12,0.14,0.51,-0.13,0.40,1.20,
4.712,0.34,-0.31,0.12,-0.13,0.40,1.20,
4.712,0.34,-0.31,0.12,-0.12,0.47,1.20,
4.714,0.34,-0.31,0.12,-0.15,0.51,1.18,
4.717,0.61,-0.55,0.45,-0.15,0.51,1.18,
4.717,0.61,-0.55,0.45,-0.17,0.49,1.17,
4.719,0.61,-0.55,0.45,-0.17,0.45,1.15,
4.723,0.61,-0.55,0.45,-0.18,0.42,1.13,
4.723,0.66,-0.71,0.46,-0.18,0.42,1.13,
4.725,0.66,-0.71,0.46,-0.18,0.40,1.11,
4.727,0.66,-0.71,0.46,-0.18,0.41,1.09,
4.727,0.60,-0.43,0.20,-0.18,0.41,1.09,
4.729,0.60,-0.43,0.20,-0.19,0.44,1.07,
4.732,0.60,-0.43,0.20,-0.19,0.47,1.06,
4.732,0.54,-0.13,-0.05,-0.19,0.47,1.06,
4.734,0.54,-0.13,-0.05,-0.20,0.51,1.04,
4.737,0.31,-0.33,-0.03,-0.20,0.51,1.04,
4.737,0.31,-0.33,-0.03,-0.21,0.53,1.03,
4.762,0.31,-0.33,-0.03,-0.22,0.54,1.02,
4.763,0.31,-0.33,-0.03,-0.22,0.55,1.02,
4.763,0.01,-0.42,0.22,-0.22,0.55,1.02,
4.763,-0.25,-0.23,0.26,-0.22,0.55,1.02,
4.763,-0.25,-0.23,0.26,-0.22,0.55,1.01,
4.764,-0.25,-0.23,0.26,-0.23,0.55,1.01,
4.764,-0.25,-0.23,0.26,-0.24,0.55,1.01,
4.764,-0.25,-0.23,0.26,-0.25,0.56,1.01,
4.764,-0.29,-0.09,0.01,-0.25,0.56,1.01,
4.765,-0.29,-0.09,0.01,-0.26,0.57,1.01,
4.765,-0.53,-0.22,-0.04,-0.26,0.57,1.01,
4.765,-0.53,-0.22,-0.04,-0.27,0.60,1.01,
4.765,-0.53,-0.22,-0.04,-0.27,0.64,1.02,
4.766,-0.53,-0.22,-0.04,-0.26,0.67,1.03,
4.766,-0.77,-0.19,0.09,-0.26,0.67,1.03,
4.766,-0.77,-0.19,0.09,-0.26,0.69,1.04,
4.766,-0.77,-0.19,0.09,-0.25,0.69,1.05,
4.767,-0.95,0.18,0.18,-0.25,0.69,1.05,
4.769,-0.95,0.18,0.18,-0.25,0.69,1.06,
4.771,-0.95,0.18,0.18,-0.25,0.71,1.08,
4.772,-1.21,0.22,-0.26,-0.25,0.71,1.08,
4.783,-1.21,0.22,-0.26,-0.25,0.73,1.10,
4.783,-1.21,0.22,-0.26,-0.26,0.73,1.12,
4.784,-1.30,0.22,-0.58,-0.26,0.73,1.12,
4.784,-1.30,0.22,-0.58,-0.27,0.74,1.14,
4.784,-1.30,0.22,-0.58,-0.28,0.74,1.15,
4.784,-1.18,0.22,-0.50,-0.28,0.74,1.15,
4.785,-1.18,0.22,-0.50,-0.28,0.72,1.16,
4.787,-1.22,0.19,-0.34,-0.28,0.72,1.16,
4.788,-1.22,0.19,-0.34,-0.29,0.72,1.18,
4.795,-1.22,0.19,-0.34,-0.29,0.75,1.20,
4.795,-1.22,0.19,-0.34,-0.29,0.80,1.22,
4.795,-1.21,-0.01,-0.53,-0.29,0.80,1.22,
4.796,-1.21,-0.01,-0.53,-0.31,0.81,1.23,
4.796,-1.21,-0.01,-0.53,-0.33,0.81,1.24,
4.796,-1.05,0.30,-0.86,-0.33,0.81,1.24,
4.798,-1.05,0.30,-0.86,-0.36,0.82,1.25,
4.802,-1.05,0.30,-0.86,-0.38,0.84,1.26,
4.802,-1.04,0.35,-1.04,-0.38,0.84,1.26,
4.805,-1.04,0.35,-1.04,-0.40,0.86,1.28,
4.807,-1.04,0.35,-1.04,-0.41,0.88,1.29,
4.807,-1.02,0.60,-0.66,-0.41,0.88,1.29,
4.81,-1.02,0.60,-0.66,-0.41,0.88,1.30,
4.812,-1.02,0.60,-0.66,-0.42,0.90,1.31,
4.812,-1.26,0.77,-0.80,-0.42,0.90,1.31,
4.814,-1.26,0.77,-0.80,-0.43,0.92,1.32,
4.816,-1.26,0.77,-0.80,-0.44,0.94,1.34,
4.816,-1.70,0.87,-1.25,-0.44,0.94,1.34,
4.818,-1.70,0.87,-1.25,-0.46,0.97,1.37,
4.821,-1.70,0.87,-1.25,-0.48,0.98,1.40,
4.821,-1.94,0.97,-1.36,-0.48,0.98,1.40,
4.823,-1.94,0.97,-1.36,-0.49,0.98,1.43,
4.826,-1.94,0.97,-1.36,-0.51,0.97,1.46,
4.826,-1.93,0.99,-1.22,-0.51,0.97,1.46,
4.828,-1.93,0.99,-1.22,-0.53,0.97,1.48,
4.831,-1.93,0.99,-1.22,-0.54,0.96,1.50,
4.831,-1.65,1.05,-1.05,-0.54,0.96,1.50,
4.833,-1.65,1.05,-1.05,-0.55,0.95,1.52,
4.835,-1.65,1.05,-1.05,-0.56,0.93,1.53,
4.836,-1.59,1.16,-0.91,-0.56,0.93,1.53,
4.838,-1.59,1.16,-0.91,-0.57,0.94,1.56,
4.841,-1.80,0.92,-1.03,-0.57,0.94,1.56,
4.842,-1.80,0.92,-1.03,-0.58,0.97,1.58,
4.843,-1.80,0.92,-1.03,-0.59,0.99,1.60,
4.846,-1.80,0.92,-1.03,-0.60,0.99,1.61,
4.846,-1.85,1.33,-1.01,-0.60,0.99,1.61,
4.848,-1.85,1.33,-1.01,-0.62,1.00,1.63,
4.851,-1.85,1.33,-1.01,-0.63,1.02,1.65,
4.851,-2.10,1.72,-1.16,-0.63,1.02,1.65,
4.853,-2.10,1.72,-1.16,-0.64,1.05,1.67,
4.857,-2.10,1.72,-1.16,-0.67,1.06,1.67,
4.858,-2.41,2.84,-1.17,-0.67,1.06,1.67,
4.858,-2.41,2.84,-1.17,-0.72,1.08,1.69,
4.866,-3.00,3.68,-0.27,-0.72,1.08,1.69,
4.866,-3.36,3.37,1.29,-0.72,1.08,1.69,
4.866,-3.36,3.37,1.29,-0.77,1.09,1.71,
4.867,-3.36,3.37,1.29,-0.79,1.09,1.74,
4.868,-3.36,3.37,1.29,-0.79,1.06,1.77,
4.868,-3.36,3.37,1.29,-0.79,1.01,1.80,
4.871,-3.64,3.07,0.77,-0.79,1.01,1.80,
4.871,-3.64,3.07,0.77,-0.79,0.96,1.84,
4.874,-3.64,3.07,0.77,-0.81,0.92,1.89,
4.877,-3.83,2.95,-0.48,-0.81,0.92,1.89,
4.877,-3.83,2.95,-0.48,-0.83,0.90,1.94,
4.877,-3.83,2.95,-0.48,-0.86,0.89,1.99,
4.88,-3.67,2.79,-0.74,-0.86,0.89,1.99,
4.88,-3.67,2.79,-0.74,-0.88,0.88,2.04,
4.882,-3.67,2.79,-0.74,-0.90,0.88,2.10,
4.885,-3.67,2.79,-0.74,-0.91,0.88,2.15,
4.885,-3.28,2.50,-0.67,-0.91,0.88,2.15,
4.887,-3.28,2.50,-0.67,-0.92,0.88,2.19,
4.89,-2.88,2.10,-0.94,-0.92,0.88,2.19,
4.892,-2.88,2.10,-0.94,-0.94,0.89,2.22,
4.893,-2.88,2.10,-0.94,-0.96,0.90,2.25,
4.895,-2.88,2.10,-0.94,-0.97,0.90,2.29,
4.895,-2.60,1.38,-1.02,-0.97,0.90,2.29,
4.897,-2.60,1.38,-1.02,-0.98,0.91,2.32,
4.9,-2.60,1.38,-1.02,-1.00,0.91,2.35,
4.9,-1.95,0.28,-0.48,-1.00,0.91,2.35,
4.902,-1.95,0.28,-0.48,-1.00,0.91,2.37,
4.917,-1.95,0.28,-0.48,-1.01,0.89,2.37,
4.917,-0.82,-0.30,0.08,-1.01,0.89,2.37,
4.917,-0.82,-0.30,0.08,-1.02,0.87,2.37,
4.917,-0.82,-0.30,0.08,-1.02,0.86,2.35,
4.917,-0.09,-0.35,0.61,-1.02,0.86,2.35,
4.917,-0.09,-0.35,0.61,-1.01,0.85,2.34,
4.918,-0.09,-0.35,0.61,-1.01,0.86,2.32,
4.918,0.01,-0.41,0.86,-1.01,0.86,2.32,
4.918,0.01,-0.41,0.86,-1.00,0.86,2.30,
4.921,0.01,-0.41,0.86,-1.00,0.85,2.28,
4.922,-0.32,-0.53,0.98,-1.00,0.85,2.28,
4.924,-0.32,-0.53,0.98,-1.01,0.83,2.27,
4.926,-0.59,-0.46,1.03,-1.01,0.83,2.27,
4.926,-0.59,-0.46,1.03,-1.01,0.81,2.27,
4.928,-0.59,-0.46,1.03,-1.02,0.79,2.27,
4.93,-0.59,-0.46,1.03,-1.01,0.77,2.27,
4.93,-0.90,-0.31,0.97,-1.01,0.77,2.27,
4.933,-0.90,-0.31,0.97,-1.01,0.75,2.27,
4.935,-1.41,-0.34,0.97,-1.01,0.75,2.27,
4.935,-1.41,-0.34,0.97,-1.00,0.71,2.28,
4.937,-1.41,-0.34,0.97,-0.99,0.66,2.30,
4.94,-1.76,-0.97,0.71,-0.99,0.66,2.30,
4.941,-1.76,-0.97,0.71,-0.98,0.60,2.32,
4.943,-1.76,-0.97,0.71,-0.98,0.56,2.34,
4.945,-1.55,-1.55,0.23,-0.98,0.56,2.34,
4.945,-1.55,-1.55,0.23,-0.98,0.53,2.36,
4.947,-1.55,-1.55,0.23,-0.98,0.50,2.38,
4.95,-0.80,-1.52,0.08,-0.98,0.50,2.38,
4.95,-0.80,-1.52,0.08,-0.99,0.48,2.38,
4.952,-0.80,-1.52,0.08,-1.00,0.45,2.37,
4.955,-0.25,-0.89,-0.00,-1.00,0.45,2.37,
4.955,-0.25,-0.89,-0.00,-1.02,0.43,2.36,
4.965,-0.25,-0.89,-0.00,-1.03,0.42,2.34,
4.966,-0.39,-0.47,0.24,-1.03,0.42,2.34,
4.966,-0.39,-0.47,0.24,-1.03,0.42,2.34,
4.966,-0.39,-0.47,0.24,-1.03,0.42,2.34,
4.967,-0.76,-0.43,0.13,-1.03,0.42,2.34,
4.967,-0.76,-0.43,0.13,-1.04,0.41,2.35,
4.968,-0.76,-0.43,0.13,-1.06,0.40,2.38,
4.97,-0.75,-0.33,-0.10,-1.06,0.40,2.38,
4.971,-0.75,-0.33,-0.10,-1.08,0.38,2.39,
4.983,-0.72,0.30,0.00,-1.08,0.38,2.39,
4.984,-0.72,0.30,0.00,-1.10,0.36,2.40,
4.984,-0.72,0.30,0.00,-1.12,0.34,2.41,
4.984,-0.72,0.30,0.00,-1.13,0.32,2.41,
4.984,-0.95,0.97,0.01,-1.13,0.32,2.41,
4.985,-0.95,0.97,0.01,-1.14,0.31,2.42,
4.985,-0.95,0.97,0.01,-1.15,0.30,2.44,
4.985,-1.15,1.53,-0.20,-1.15,0.30,2.44,
4.986,-1.15,1.53,-0.20,-1.16,0.29,2.45,
4.988,-1.15,1.53,-0.20,-1.18,0.28,2.46,
4.99,-1.47,2.08,-0.38,-1.18,0.28,2.46,
4.991,-1.47,2.08,-0.38,-1.19,0.27,2.47,
4.994,-1.47,2.08,-0.38,-1.20,0.25,2.48,
4.994,-1.47,2.08,-0.38,-1.20,0.23,2.50,
4.994,-1.85,2.63,-0.54,-1.20,0.23,2.50,
4.996,-1.85,2.63,-0.54,-1.21,0.22,2.52,
4.999,-1.85,2.63,-0.54,-1.22,0.20,2.55,
4.999,-2.23,2.96,-1.02,-1.22,0.20,2.55,
5.001,-2.23,2.96,-1.02,-1.23,0.19,2.59,
