
time,ax,ay,az,wx,wy,wz,
0.003,-0.18,0.14,0.14,0.07,-0.01,-0.04,
0.003,-0.18,0.14,0.14,0.06,-0.01,-0.03,
0.003,-0.27,0.14,0.03,0.06,-0.01,-0.03,
0.003,-0.27,0.14,0.03,0.05,-0.02,-0.03,
0.003,-0.32,0.19,-0.07,0.05,-0.02,-0.03,
0.004,-0.32,0.19,-0.07,0.04,-0.02,-0.03,
0.004,-0.32,0.19,-0.07,0.03,-0.02,-0.02,
0.005,-0.33,0.22,-0.18,0.03,-0.02,-0.02,
0.005,-0.33,0.22,-0.18,0.01,-0.02,-0.01,
0.093,-0.33,0.22,-0.18,0.00,-0.03,-0.01,
0.094,-0.29,0.22,-0.25,0.00,-0.03,-0.01,
0.094,-0.29,0.22,-0.25,-0.00,-0.03,-0.01,
0.094,-0.29,0.22,-0.25,-0.01,-0.02,-0.00,
0.094,-0.29,0.22,-0.25,-0.02,-0.02,-0.00,
0.094,-0.25,0.20,-0.31,-0.02,-0.02,-0.00,
0.095,-0.25,0.20,-0.31,-0.03,-0.02,-0.00,
0.095,-0.25,0.20,-0.31,-0.03,-0.02,-0.00,
0.095,-0.21,0.14,-0.39,-0.03,-0.02,-0.00,
0.095,-0.21,0.14,-0.39,-0.04,-0.01,0.00,
0.095,-0.18,0.10,-0.47,-0.04,-0.01,0.00,
0.095,-0.18,0.10,-0.47,-0.05,-0.01,-0.00,
0.096,-0.18,0.10,-0.47,-0.05,-0.00,0.00,
0.096,-0.15,0.13,-0.50,-0.05,-0.00,0.00,
0.096,-0.17,0.14,-0.53,-0.05,-0.00,0.00,
0.096,-0.17,0.14,-0.53,-0.06,0.01,-0.00,
0.096,-0.17,0.14,-0.53,-0.06,0.01,-0.00,
0.096,-0.17,0.14,-0.53,-0.06,0.02,-0.00,
0.096,-0.17,0.14,-0.53,-0.07,0.02,-0.00,
0.097,-0.17,0.14,-0.53,-0.07,0.02,-0.00,
0.097,-0.15,0.12,-0.55,-0.07,0.02,-0.00,
0.097,-0.15,0.12,-0.55,-0.08,0.02,-0.01,
0.097,-0.15,0.05,-0.51,-0.08,0.02,-0.01,
0.097,-0.15,0.05,-0.51,-0.08,0.02,-0.01,
0.097,-0.15,0.05,-0.51,-0.09,0.02,-0.01,
0.098,-0.13,0.01,-0.41,-0.09,0.02,-0.01,
0.098,-0.13,0.01,-0.41,-0.09,0.01,-0.01,
0.098,-0.10,-0.02,-0.33,-0.09,0.01,-0.01,
0.098,-0.10,-0.02,-0.33,-0.09,0.01,-0.02,
0.098,-0.10,-0.02,-0.33,-0.09,0.00,-0.02,
0.098,-0.10,-0.02,-0.33,-0.09,-0.01,-0.02,
0.098,-0.07,-0.05,-0.26,-0.09,-0.01,-0.02,
0.099,-0.07,-0.05,-0.26,-0.09,-0.02,-0.03,
0.099,-0.07,-0.05,-0.26,-0.09,-0.02,-0.03,
0.099,-0.07,-0.05,-0.26,-0.09,-0.02,-0.04,
0.102,0.01,-0.09,-0.24,-0.09,-0.02,-0.04,
0.102,0.01,-0.09,-0.24,-0.09,-0.03,-0.04,
0.103,0.01,-0.09,-0.24,-0.09,-0.03,-0.05,
0.103,0.08,-0.10,-0.20,-0.09,-0.03,-0.05,
0.103,0.08,-0.10,-0.20,-0.09,-0.03,-0.05,
0.103,0.09,-0.11,-0.22,-0.09,-0.03,-0.05,
0.103,0.09,-0.11,-0.22,-0.09,-0.03,-0.05,
0.104,0.09,-0.11,-0.22,-0.09,-0.03,-0.06,
0.104,0.10,-0.10,-0.17,-0.09,-0.03,-0.06,
0.104,0.10,-0.10,-0.17,-0.09,-0.03,-0.06,
0.104,0.10,-0.10,-0.17,-0.09,-0.02,-0.06,
0.104,0.13,-0.09,-0.12,-0.09,-0.02,-0.06,
0.104,0.13,-0.09,-0.12,-0.09,-0.01,-0.06,
0.104,0.13,-0.09,-0.12,-0.08,-0.00,-0.06,
0.105,0.12,-0.06,-0.08,-0.08,-0.00,-0.06,
0.105,0.12,-0.06,-0.08,-0.08,0.01,-0.06,
0.105,0.12,-0.06,-0.08,-0.07,0.03,-0.06,
0.105,0.13,-0.06,-0.02,-0.07,0.03,-0.06,
0.105,0.13,-0.06,-0.02,-0.07,0.04,-0.06,
0.105,0.13,-0.06,-0.02,-0.06,0.06,-0.06,
0.105,0.13,-0.06,-0.02,-0.05,0.08,-0.06,
0.105,0.09,-0.05,-0.02,-0.05,0.08,-0.06,
0.106,0.09,-0.05,-0.02,-0.04,0.10,-0.05,
0.106,0.09,-0.05,-0.02,-0.04,0.12,-0.05,
0.106,0.06,-0.01,-0.05,-0.04,0.12,-0.05,
0.106,0.06,-0.01,-0.05,-0.03,0.14,-0.05,
0.109,-0.00,0.00,-0.07,-0.03,0.14,-0.05,
0.109,-0.00,0.00,-0.07,-0.02,0.17,-0.04,
0.111,-0.00,0.00,-0.07,-0.02,0.19,-0.04,
0.113,-0.00,0.00,-0.07,-0.01,0.22,-0.02,
0.113,-0.23,0.05,-0.11,-0.01,0.22,-0.02,
0.115,-0.23,0.05,-0.11,-0.00,0.25,-0.01,
0.118,-0.23,0.05,-0.11,0.00,0.27,0.00,
0.118,-0.21,0.12,-0.10,0.00,0.27,0.00,
0.12,-0.21,0.12,-0.10,0.01,0.30,0.01,
0.126,-0.16,0.13,-0.10,0.01,0.30,0.01,
0.126,-0.16,0.13,-0.10,0.01,0.32,0.02,
0.126,-0.16,0.13,-0.10,0.02,0.34,0.03,
0.128,-0.07,0.11,-0.07,0.02,0.34,0.03,
0.128,-0.07,0.11,-0.07,0.02,0.35,0.03,
0.133,-0.07,0.11,-0.07,0.02,0.36,0.04,
0.133,-0.07,0.11,-0.07,0.02,0.37,0.03,
0.133,-0.03,0.05,-0.05,0.02,0.37,0.03,
0.135,-0.03,0.05,-0.05,0.02,0.38,0.04,
0.138,-0.03,0.05,-0.05,0.02,0.38,0.03,
0.138,0.00,0.01,0.00,0.02,0.38,0.03,
0.143,0.00,0.01,0.00,0.02,0.38,0.03,
0.144,0.00,0.01,0.00,0.01,0.38,0.02,
0.144,0.00,-0.03,0.10,0.01,0.38,0.02,
0.145,0.00,-0.03,0.10,0.01,0.37,0.02,
0.149,-0.04,-0.05,0.18,0.01,0.37,0.02,
0.149,-0.04,-0.05,0.18,0.01,0.36,0.01,
0.15,-0.04,-0.05,0.18,0.01,0.35,0.01,
0.153,-0.04,-0.05,0.18,0.01,0.33,0.00,
0.153,-0.08,-0.02,0.25,0.01,0.33,0.00,
0.155,-0.08,-0.02,0.25,0.00,0.32,-0.00,
0.159,-0.08,-0.02,0.25,0.00,0.30,-0.01,
0.16,-0.10,-0.02,0.30,0.00,0.30,-0.01,
0.16,-0.10,-0.02,0.30,0.00,0.28,-0.01,
0.163,-0.10,-0.02,0.30,0.00,0.26,-0.02,
0.163,-0.14,-0.01,0.37,0.00,0.26,-0.02,
0.165,-0.14,-0.01,0.37,0.00,0.24,-0.02,
0.168,-0.14,-0.01,0.37,0.00,0.21,-0.03,
0.168,-0.16,-0.01,0.43,0.00,0.21,-0.03,
0.17,-0.16,-0.01,0.43,0.01,0.18,-0.03,
0.173,-0.16,-0.01,0.43,0.01,0.16,-0.03,
0.173,-0.18,-0.03,0.48,0.01,0.16,-0.03,
0.176,-0.18,-0.03,0.48,0.01,0.13,-0.04,
0.188,-0.18,-0.03,0.48,0.02,0.11,-0.04,
0.188,-0.18,-0.03,0.48,0.02,0.09,-0.04,
0.188,-0.18,-0.03,0.48,0.03,0.07,-0.04,
0.188,-0.18,-0.03,0.48,0.03,0.05,-0.04,
0.188,-0.18,-0.03,0.48,0.04,0.03,-0.04,
0.189,-0.16,-0.03,0.50,0.04,0.03,-0.04,
0.189,-0.13,-0.04,0.51,0.04,0.03,-0.04,
0.189,-0.07,-0.05,0.47,0.04,0.03,-0.04,
0.191,-0.07,-0.05,0.47,0.04,0.02,-0.05,
0.193,-0.07,-0.05,0.47,0.04,0.01,-0.05,
0.193,-0.02,-0.05,0.42,0.04,0.01,-0.05,
0.196,-0.02,-0.05,0.42,0.05,-0.01,-0.06,
0.197,-0.02,-0.05,0.42,0.05,-0.02,-0.06,
0.198,0.02,-0.04,0.38,0.05,-0.02,-0.06,
0.2,0.02,-0.04,0.38,0.05,-0.03,-0.06,
0.203,0.02,-0.04,0.38,0.05,-0.03,-0.06,
0.203,0.06,-0.05,0.31,0.05,-0.03,-0.06,
0.205,0.06,-0.05,0.31,0.05,-0.03,-0.06,
0.208,0.06,-0.05,0.31,0.05,-0.03,-0.07,
0.208,0.06,-0.01,0.24,0.05,-0.03,-0.07,
0.21,0.06,-0.01,0.24,0.05,-0.03,-0.07,
0.213,0.06,-0.01,0.24,0.05,-0.02,-0.06,
0.213,0.05,0.01,0.21,0.05,-0.02,-0.06,
0.215,0.05,0.01,0.21,0.06,-0.02,-0.06,
0.217,0.05,0.01,0.21,0.06,-0.01,-0.06,
0.217,0.05,0.02,0.17,0.06,-0.01,-0.06,
0.22,0.05,0.02,0.17,0.06,-0.01,-0.06,
0.222,0.05,0.02,0.17,0.06,0.00,-0.05,
0.222,0.03,0.02,0.14,0.06,0.00,-0.05,
0.225,0.03,0.02,0.14,0.06,0.01,-0.05,
0.227,0.03,0.02,0.14,0.07,0.02,-0.05,
0.227,0.02,0.04,0.12,0.07,0.02,-0.05,
0.238,0.02,0.04,0.12,0.07,0.04,-0.04,
0.238,0.02,0.04,0.12,0.07,0.06,-0.04,
0.238,0.01,0.08,0.08,0.07,0.06,-0.04,
0.238,0.01,0.08,0.08,0.08,0.08,-0.04,
0.239,0.01,0.08,0.08,0.08,0.11,-0.03,
0.239,-0.02,0.10,-0.02,0.08,0.11,-0.03,
0.239,-0.02,0.10,-0.02,0.09,0.14,-0.03,
0.244,-0.02,0.10,-0.02,0.09,0.17,-0.02,
0.244,-0.00,0.12,-0.12,0.09,0.17,-0.02,
0.247,-0.00,0.12,-0.12,0.10,0.21,-0.02,
0.248,-0.00,0.12,-0.12,0.10,0.24,-0.01,
0.248,-0.06,0.15,-0.10,0.10,0.24,-0.01,
0.249,-0.06,0.15,-0.10,0.11,0.27,-0.00,
0.253,-0.06,0.15,-0.10,0.11,0.30,0.01,
0.254,-0.16,0.15,-0.09,0.11,0.30,0.01,
0.254,-0.16,0.15,-0.09,0.12,0.33,0.01,
0.257,-0.16,0.15,-0.09,0.12,0.35,0.02,
0.257,-0.23,0.15,-0.04,0.12,0.35,0.02,
0.259,-0.23,0.15,-0.04,0.13,0.37,0.03,
0.262,-0.23,0.15,-0.04,0.13,0.38,0.03,
0.262,-0.26,0.11,0.04,0.13,0.38,0.03,
0.264,-0.26,0.11,0.04,0.13,0.38,0.03,
0.267,-0.26,0.11,0.04,0.13,0.38,0.03,
0.267,-0.24,0.06,0.10,0.13,0.38,0.03,
0.269,-0.24,0.06,0.10,0.13,0.38,0.03,
0.272,-0.24,0.06,0.10,0.14,0.38,0.03,
0.272,-0.22,0.01,0.18,0.14,0.38,0.03,
0.274,-0.22,0.01,0.18,0.14,0.37,0.02,
0.277,-0.16,-0.02,0.20,0.14,0.37,0.02,
0.277,-0.16,-0.02,0.20,0.14,0.35,0.02,
0.279,-0.16,-0.02,0.20,0.14,0.34,0.01,
0.282,-0.16,-0.02,0.20,0.14,0.32,0.01,
0.282,-0.15,-0.05,0.16,0.14,0.32,0.01,
0.284,-0.15,-0.05,0.16,0.14,0.31,0.00,
0.286,-0.15,-0.05,0.16,0.13,0.29,-0.00,
0.287,-0.10,-0.09,0.08,0.13,0.29,-0.00,
0.289,-0.10,-0.09,0.08,0.13,0.28,-0.02,
0.292,-0.06,-0.11,-0.08,0.13,0.28,-0.02,
0.292,-0.06,-0.11,-0.08,0.13,0.28,-0.03,
0.294,-0.06,-0.11,-0.08,0.13,0.28,-0.04,
0.297,-0.06,-0.11,-0.08,0.12,0.29,-0.05,
0.297,-0.05,-0.13,-0.27,0.12,0.29,-0.05,
0.299,-0.05,-0.13,-0.27,0.12,0.30,-0.06,
0.301,-0.07,-0.11,-0.43,0.12,0.30,-0.06,
0.302,-0.07,-0.11,-0.43,0.11,0.31,-0.07,
0.304,-0.07,-0.11,-0.43,0.11,0.34,-0.08,
0.306,-0.07,-0.11,-0.43,0.11,0.36,-0.08,
0.306,-0.08,-0.07,-0.55,0.11,0.36,-0.08,
0.309,-0.08,-0.07,-0.55,0.11,0.39,-0.09,
0.311,-0.08,-0.07,-0.55,0.11,0.43,-0.10,
0.311,-0.08,-0.07,-0.67,0.11,0.43,-0.10,
0.314,-0.08,-0.07,-0.67,0.11,0.47,-0.11,
0.316,-0.08,-0.07,-0.67,0.12,0.53,-0.11,
0.316,-0.13,-0.11,-0.77,0.12,0.53,-0.11,
0.319,-0.13,-0.11,-0.77,0.12,0.58,-0.12,
0.321,-0.13,-0.11,-0.77,0.13,0.64,-0.13,
0.321,-0.20,-0.21,-0.80,0.13,0.64,-0.13,
0.325,-0.20,-0.21,-0.80,0.15,0.70,-0.13,
0.326,-0.20,-0.21,-0.80,0.16,0.76,-0.14,
0.327,-0.26,-0.27,-0.75,0.16,0.76,-0.14,
0.329,-0.26,-0.27,-0.75,0.17,0.82,-0.15,
0.331,-0.26,-0.27,-0.75,0.19,0.88,-0.16,
0.331,-0.31,-0.30,-0.70,0.19,0.88,-0.16,
0.333,-0.31,-0.30,-0.70,0.21,0.93,-0.17,
0.336,-0.31,-0.30,-0.70,0.22,0.99,-0.18,
0.336,-0.35,-0.30,-0.72,0.22,0.99,-0.18,
0.338,-0.35,-0.30,-0.72,0.24,1.05,-0.20,
0.343,-0.40,-0.34,-0.71,0.24,1.05,-0.20,
0.343,-0.40,-0.34,-0.71,0.26,1.12,-0.22,
0.344,-0.40,-0.34,-0.71,0.28,1.18,-0.23,
0.346,-0.52,-0.49,-0.64,0.28,1.18,-0.23,
0.347,-0.52,-0.49,-0.64,0.30,1.23,-0.25,
0.349,-0.52,-0.49,-0.64,0.32,1.29,-0.26,
0.351,-0.52,-0.49,-0.64,0.35,1.34,-0.28,
0.351,-0.67,-0.65,-0.60,0.35,1.34,-0.28,
0.353,-0.67,-0.65,-0.60,0.37,1.40,-0.30,
0.356,-0.67,-0.65,-0.60,0.40,1.46,-0.32,
0.356,-0.83,-0.86,-0.59,0.40,1.46,-0.32,
0.359,-0.83,-0.86,-0.59,0.43,1.52,-0.35,
0.361,-0.83,-0.86,-0.59,0.46,1.57,-0.37,
0.361,-0.97,-1.01,-0.52,0.46,1.57,-0.37,
0.363,-0.97,-1.01,-0.52,0.50,1.63,-0.40,
0.366,-1.07,-1.11,-0.42,0.50,1.63,-0.40,
0.366,-1.07,-1.11,-0.42,0.54,1.68,-0.43,
0.368,-1.07,-1.11,-0.42,0.58,1.74,-0.47,
0.371,-1.07,-1.11,-0.42,0.62,1.80,-0.51,
0.371,-1.25,-1.41,-0.58,0.62,1.80,-0.51,
0.373,-1.25,-1.41,-0.58,0.66,1.87,-0.55,
0.376,-1.25,-1.41,-0.58,0.70,1.93,-0.61,
0.376,-1.08,-1.66,-0.62,0.70,1.93,-0.61,
0.378,-1.08,-1.66,-0.62,0.74,2.01,-0.71,
0.381,-1.08,-1.66,-0.62,0.77,2.07,-0.80,
0.381,-0.94,-1.47,-0.61,0.77,2.07,-0.80,
0.383,-0.94,-1.47,-0.61,0.80,2.10,-0.87,
0.386,-0.94,-1.47,-0.61,0.85,2.11,-0.91,
0.386,-1.15,-1.27,-0.58,0.85,2.11,-0.91,
0.388,-1.15,-1.27,-0.58,0.89,2.11,-0.95,
0.391,-1.15,-1.27,-0.58,0.94,2.13,-0.97,
0.391,-1.56,-1.51,-0.79,0.94,2.13,-0.97,
0.393,-1.56,-1.51,-0.79,0.98,2.20,-1.00,
0.404,-1.56,-1.51,-0.79,0.99,2.37,-1.06,
0.404,-1.72,-1.54,-1.32,0.99,2.37,-1.06,
0.404,-1.72,-1.54,-1.32,1.01,2.54,-1.14,
0.404,-1.72,-1.54,-1.32,1.04,2.66,-1.22,
0.405,-1.35,-1.81,-1.28,1.04,2.66,-1.22,
0.405,-1.35,-1.81,-1.28,1.09,2.74,-1.31,
0.405,-1.35,-1.81,-1.28,1.15,2.77,-1.39,
0.406,-1.05,-2.03,-1.09,1.15,2.77,-1.39,
0.408,-1.05,-2.03,-1.09,1.21,2.78,-1.45,
0.412,-1.05,-2.03,-1.09,1.28,2.78,-1.50,
0.412,-0.97,-2.37,-1.18,1.28,2.78,-1.50,
0.413,-0.97,-2.37,-1.18,1.35,2.78,-1.54,
0.416,-0.98,-2.78,-1.48,1.35,2.78,-1.54,
0.416,-0.98,-2.78,-1.48,1.42,2.80,-1.57,
0.418,-0.98,-2.78,-1.48,1.48,2.82,-1.59,
0.42,-0.98,-2.78,-1.48,1.54,2.85,-1.60,
0.421,-0.86,-3.08,-1.67,1.54,2.85,-1.60,
0.423,-0.86,-3.08,-1.67,1.60,2.89,-1.61,
0.426,-0.86,-3.08,-1.67,1.66,2.94,-1.63,
0.427,-0.67,-3.31,-1.87,1.66,2.94,-1.63,
0.428,-0.67,-3.31,-1.87,1.71,2.97,-1.65,
0.431,-0.67,-3.31,-1.87,1.75,2.97,-1.69,
0.431,-0.42,-3.71,-1.52,1.75,2.97,-1.69,
0.433,-0.42,-3.71,-1.52,1.79,2.93,-1.74,
0.435,-0.42,-3.71,-1.52,1.81,2.89,-1.82,
0.436,-0.07,-4.13,-1.38,1.81,2.89,-1.82,
0.438,-0.07,-4.13,-1.38,1.84,2.91,-1.91,
0.44,-0.07,-4.13,-1.38,1.87,2.98,-2.02,
0.443,0.60,-4.44,-2.12,1.87,2.98,-2.02,
0.443,0.60,-4.44,-2.12,1.91,3.08,-2.14,
0.445,0.95,-4.51,-2.20,1.91,3.08,-2.14,
0.446,0.95,-4.51,-2.20,1.95,3.18,-2.27,
0.448,0.95,-4.51,-2.20,2.01,3.28,-2.38,
0.45,0.95,-4.51,-2.20,2.07,3.37,-2.50,
0.45,0.85,-4.46,-2.07,2.07,3.37,-2.50,
0.452,0.85,-4.46,-2.07,2.12,3.47,-2.61,
0.455,0.85,-4.46,-2.07,2.17,3.62,-2.76,
0.455,0.70,-4.68,-2.47,2.17,3.62,-2.76,
0.459,0.70,-4.68,-2.47,2.20,3.81,-2.92,
0.46,0.70,-4.68,-2.47,2.23,3.99,-3.05,
0.46,0.28,-4.59,-2.58,2.23,3.99,-3.05,
0.462,0.28,-4.59,-2.58,2.27,4.14,-3.16,
0.465,0.28,-4.59,-2.58,2.31,4.28,-3.26,
0.465,-0.22,-4.54,-2.46,2.31,4.28,-3.26,
0.467,-0.22,-4.54,-2.46,2.35,4.40,-3.33,
0.47,-0.22,-4.54,-2.46,2.40,4.49,-3.38,
0.47,-0.82,-4.40,-2.32,2.40,4.49,-3.38,
0.472,-0.82,-4.40,-2.32,2.45,4.55,-3.41,
0.476,-1.36,-4.21,-2.19,2.45,4.55,-3.41,
0.476,-1.36,-4.21,-2.19,2.51,4.58,-3.42,
0.477,-1.36,-4.21,-2.19,2.56,4.59,-3.42,
0.48,-1.36,-4.21,-2.19,2.61,4.58,-3.41,
0.48,-1.61,-4.16,-2.20,2.61,4.58,-3.41,
0.482,-1.61,-4.16,-2.20,2.65,4.57,-3.39,
0.489,-1.54,-4.19,-2.27,2.65,4.57,-3.39,
0.489,-1.54,-4.19,-2.27,2.70,4.54,-3.37,
0.489,-1.54,-4.19,-2.27,2.73,4.52,-3.34,
0.49,-1.54,-4.19,-2.27,2.77,4.50,-3.31,
0.49,-1.25,-4.18,-2.33,2.77,4.50,-3.31,
0.493,-1.25,-4.18,-2.33,2.79,4.47,-3.28,
0.495,-1.25,-4.18,-2.33,2.82,4.45,-3.25,
0.495,-0.82,-4.21,-2.42,2.82,4.45,-3.25,
0.497,-0.82,-4.21,-2.42,2.84,4.43,-3.24,
0.5,-0.82,-4.21,-2.42,2.85,4.42,-3.24,
0.5,-0.22,-4.37,-2.50,2.85,4.42,-3.24,
0.502,-0.22,-4.37,-2.50,2.85,4.41,-3.26,
0.505,-0.22,-4.37,-2.50,2.85,4.41,-3.31,
0.505,0.62,-4.64,-2.59,2.85,4.41,-3.31,
0.508,0.62,-4.64,-2.59,2.84,4.40,-3.38,
0.51,0.62,-4.64,-2.59,2.83,4.39,-3.46,
0.51,1.48,-4.95,-2.74,2.83,4.39,-3.46,
0.512,1.48,-4.95,-2.74,2.81,4.38,-3.56,
0.515,1.48,-4.95,-2.74,2.78,4.38,-3.66,
0.515,2.05,-5.22,-3.01,2.78,4.38,-3.66,
0.517,2.05,-5.22,-3.01,2.76,4.36,-3.76,
0.52,2.50,-5.76,-3.22,2.76,4.36,-3.76,
0.52,2.50,-5.76,-3.22,2.72,4.35,-3.87,
0.522,2.50,-5.76,-3.22,2.68,4.32,-4.00,
0.525,2.92,-6.52,-3.41,2.68,4.32,-4.00,
0.526,2.92,-6.52,-3.41,2.64,4.29,-4.12,
0.527,2.92,-6.52,-3.41,2.59,4.26,-4.25,
0.529,2.49,-6.74,-3.41,2.59,4.26,-4.25,
0.53,2.49,-6.74,-3.41,2.53,4.24,-4.37,
0.532,2.49,-6.74,-3.41,2.48,4.21,-4.49,
0.535,1.94,-6.51,-3.00,2.48,4.21,-4.49,
0.535,1.94,-6.51,-3.00,2.43,4.18,-4.61,
0.537,1.94,-6.51,-3.00,2.38,4.17,-4.74,
0.539,1.94,-6.51,-3.00,2.34,4.14,-4.86,
0.539,1.66,-6.14,-2.44,2.34,4.14,-4.86,
0.543,1.66,-6.14,-2.44,2.32,4.11,-4.96,
0.545,1.66,-6.14,-2.44,2.32,4.08,-5.04,
0.545,1.36,-5.77,-1.66,2.32,4.08,-5.04,
0.547,1.36,-5.77,-1.66,2.33,4.04,-5.11,
0.549,0.99,-5.72,-0.87,2.33,4.04,-5.11,
0.55,0.99,-5.72,-0.87,2.35,4.01,-5.16,
0.552,0.99,-5.72,-0.87,2.38,3.97,-5.20,
0.554,0.99,-5.72,-0.87,2.42,3.93,-5.24,
0.555,0.37,-5.78,-0.18,2.42,3.93,-5.24,
0.557,0.37,-5.78,-0.18,2.46,3.88,-5.28,
0.56,0.37,-5.78,-0.18,2.50,3.82,-5.32,
0.57,-0.17,-5.74,0.37,2.50,3.82,-5.32,
0.57,-0.17,-5.74,0.37,2.54,3.75,-5.35,
0.571,-0.37,-5.58,0.62,2.54,3.75,-5.35,
0.571,-0.37,-5.58,0.62,2.58,3.67,-5.39,
0.571,-0.37,-5.58,0.62,2.60,3.64,-5.44,
0.574,-0.37,-5.58,0.62,2.60,3.66,-5.51,
0.574,-0.37,-5.58,0.62,2.60,3.64,-5.58,
0.574,-0.25,-5.43,0.40,2.60,3.64,-5.58,
0.576,-0.25,-5.43,0.40,2.61,3.58,-5.65,
0.577,-0.15,-5.48,0.53,2.61,3.58,-5.65,
0.577,-0.15,-5.48,0.53,2.63,3.50,-5.71,
0.579,-0.15,-5.48,0.53,2.65,3.40,-5.76,
0.58,-0.47,-5.60,0.69,2.65,3.40,-5.76,
0.582,-0.47,-5.60,0.69,2.66,3.28,-5.80,
0.584,-0.47,-5.60,0.69,2.68,3.15,-5.82,
0.584,-0.83,-5.58,0.82,2.68,3.15,-5.82,
0.586,-0.83,-5.58,0.82,2.69,3.02,-5.83,
0.589,-1.23,-5.31,0.86,2.69,3.02,-5.83,
0.589,-1.23,-5.31,0.86,2.71,2.90,-5.83,
0.593,-1.23,-5.31,0.86,2.72,2.78,-5.81,
0.594,-1.63,-4.93,0.76,2.72,2.78,-5.81,
0.595,-1.63,-4.93,0.76,2.73,2.67,-5.78,
0.596,-1.63,-4.93,0.76,2.73,2.58,-5.76,
0.599,-1.63,-4.93,0.76,2.73,2.50,-5.75,
0.599,-1.82,-4.60,0.51,2.73,2.50,-5.75,
0.602,-1.82,-4.60,0.51,2.71,2.45,-5.75,
0.604,-1.82,-4.60,0.51,2.70,2.41,-5.76,
0.604,-1.74,-4.30,0.21,2.70,2.41,-5.76,
0.606,-1.74,-4.30,0.21,2.68,2.39,-5.77,
0.609,-1.67,-3.94,0.00,2.68,2.39,-5.77,
0.61,-1.67,-3.94,0.00,2.66,2.38,-5.80,
0.611,-1.67,-3.94,0.00,2.64,2.37,-5.82,
0.614,-1.83,-3.63,-0.00,2.64,2.37,-5.82,
0.614,-1.83,-3.63,-0.00,2.62,2.36,-5.84,
0.616,-1.83,-3.63,-0.00,2.60,2.34,-5.87,
0.619,-1.83,-3.63,-0.00,2.59,2.32,-5.89,
0.619,-2.15,-3.42,0.11,2.59,2.32,-5.89,
0.621,-2.15,-3.42,0.11,2.56,2.31,-5.90,
0.623,-2.15,-3.42,0.11,2.54,2.29,-5.92,
0.624,-2.29,-3.04,0.22,2.54,2.29,-5.92,
0.627,-2.29,-3.04,0.22,2.51,2.26,-5.93,
0.629,-2.29,-3.04,0.22,2.49,2.22,-5.95,
0.629,-2.41,-2.78,0.33,2.49,2.22,-5.95,
0.632,-2.41,-2.78,0.33,2.48,2.17,-5.96,
0.633,-2.41,-2.78,0.33,2.45,2.12,-5.97,
0.634,-2.81,-2.46,0.30,2.45,2.12,-5.97,
0.636,-2.81,-2.46,0.30,2.43,2.09,-5.96,
0.638,-2.81,-2.46,0.30,2.40,2.06,-5.93,
0.638,-3.50,-1.95,0.49,2.40,2.06,-5.93,
0.643,-3.50,-1.95,0.49,2.39,2.00,-5.87,
0.643,-3.50,-1.95,0.49,2.39,1.94,-5.79,
0.644,-4.37,-1.57,0.92,2.39,1.94,-5.79,
0.646,-4.37,-1.57,0.92,2.38,1.87,-5.70,
0.65,-5.21,-1.15,1.46,2.38,1.87,-5.70,
0.65,-5.21,-1.15,1.46,2.37,1.81,-5.60,
0.655,-5.59,-0.59,2.06,2.37,1.81,-5.60,
0.656,-5.59,-0.59,2.06,2.37,1.74,-5.51,
0.656,-5.59,-0.59,2.06,2.36,1.65,-5.42,
0.656,-5.59,-0.59,2.06,2.36,1.55,-5.35,
0.665,-5.59,-0.59,2.06,2.35,1.43,-5.28,
0.666,-5.71,-0.19,2.65,2.35,1.43,-5.28,
0.666,-5.71,-0.19,2.65,2.35,1.28,-5.22,
0.666,-5.71,-0.19,2.65,2.35,1.12,-5.15,
0.666,-5.94,-0.00,3.08,2.35,1.12,-5.15,
0.666,-5.94,-0.00,3.08,2.34,0.94,-5.09,
0.669,-6.36,0.21,3.20,2.34,0.94,-5.09,
0.67,-6.36,0.21,3.20,2.33,0.76,-5.02,
0.671,-6.36,0.21,3.20,2.32,0.59,-4.95,
0.674,-6.36,0.21,3.20,2.31,0.42,-4.87,
0.674,-6.85,0.66,3.01,2.31,0.42,-4.87,
0.676,-6.85,0.66,3.01,2.29,0.26,-4.79,
0.678,-7.34,1.32,2.71,2.29,0.26,-4.79,
0.678,-7.34,1.32,2.71,2.28,0.12,-4.70,
0.68,-7.34,1.32,2.71,2.26,-0.02,-4.61,
0.683,-7.34,1.32,2.71,2.24,-0.15,-4.51,
0.683,-7.75,2.04,2.26,2.24,-0.15,-4.51,
0.685,-7.75,2.04,2.26,2.22,-0.24,-4.41,
0.688,-7.75,2.04,2.26,2.20,-0.31,-4.31,
0.688,-8.04,2.74,1.56,2.20,-0.31,-4.31,
0.69,-8.04,2.74,1.56,2.17,-0.35,-4.21,
0.693,-8.16,3.38,0.93,2.17,-0.35,-4.21,
0.694,-8.16,3.38,0.93,2.15,-0.40,-4.10,
0.695,-8.16,3.38,0.93,2.13,-0.44,-3.99,
0.698,-8.46,3.83,0.36,2.13,-0.44,-3.99,
0.698,-8.46,3.83,0.36,2.11,-0.49,-3.88,
0.7,-8.46,3.83,0.36,2.09,-0.54,-3.76,
0.703,-8.46,3.83,0.36,2.07,-0.59,-3.64,
0.703,-8.74,4.35,-0.14,2.07,-0.59,-3.64,
0.705,-8.74,4.35,-0.14,2.04,-0.63,-3.51,
0.709,-8.74,4.90,-0.70,2.04,-0.63,-3.51,
0.709,-8.74,4.90,-0.70,2.00,-0.66,-3.39,
0.71,-8.74,4.90,-0.70,1.96,-0.68,-3.27,
0.713,-8.56,5.29,-1.14,1.96,-0.68,-3.27,
0.713,-8.56,5.29,-1.14,1.92,-0.70,-3.16,
0.715,-8.56,5.29,-1.14,1.87,-0.72,-3.05,
0.718,-8.56,5.29,-1.14,1.82,-0.73,-2.94,
0.718,-8.38,5.54,-1.47,1.82,-0.73,-2.94,
0.72,-8.38,5.54,-1.47,1.77,-0.73,-2.83,
0.723,-8.38,5.54,-1.47,1.72,-0.73,-2.73,
0.723,-8.18,5.69,-1.67,1.72,-0.73,-2.73,
0.744,-8.18,5.69,-1.67,1.66,-0.73,-2.64,
0.744,-7.97,5.78,-1.68,1.66,-0.73,-2.64,
0.745,-7.97,5.78,-1.68,1.61,-0.74,-2.55,
0.745,-7.97,5.78,-1.68,1.56,-0.74,-2.46,
0.745,-7.74,5.84,-1.55,1.56,-0.74,-2.46,
0.745,-7.74,5.84,-1.55,1.51,-0.75,-2.38,
0.746,-7.74,5.84,-1.55,1.46,-0.75,-2.29,
0.746,-7.74,5.84,-1.55,1.42,-0.75,-2.21,
0.746,-7.57,5.91,-1.31,1.42,-0.75,-2.21,
0.746,-7.57,5.91,-1.31,1.39,-0.75,-2.13,
0.746,-7.57,5.91,-1.31,1.36,-0.74,-2.05,
0.747,-7.46,5.99,-1.04,1.36,-0.74,-2.05,
0.747,-7.46,5.99,-1.04,1.33,-0.74,-1.97,
0.748,-7.46,5.99,-1.04,1.32,-0.73,-1.89,
0.748,-7.52,6.06,-0.69,1.32,-0.73,-1.89,
0.75,-7.52,6.06,-0.69,1.31,-0.73,-1.81,
0.753,-7.75,6.13,-0.28,1.31,-0.73,-1.81,
0.753,-7.75,6.13,-0.28,1.31,-0.72,-1.72,
0.755,-7.75,6.13,-0.28,1.31,-0.72,-1.62,
0.758,-7.75,6.13,-0.28,1.32,-0.72,-1.53,
0.758,-7.89,6.27,0.00,1.32,-0.72,-1.53,
0.76,-7.89,6.27,0.00,1.34,-0.73,-1.43,
0.762,-7.89,6.27,0.00,1.36,-0.73,-1.33,
0.763,-7.96,6.37,0.05,1.36,-0.73,-1.33,
0.765,-7.96,6.37,0.05,1.38,-0.73,-1.23,
0.768,-7.96,6.37,0.05,1.39,-0.73,-1.13,
0.768,-8.00,6.47,-0.11,1.39,-0.73,-1.13,
0.77,-8.00,6.47,-0.11,1.41,-0.74,-1.02,
0.772,-8.00,6.47,-0.11,1.42,-0.74,-0.92,
0.772,-7.97,6.60,-0.45,1.42,-0.74,-0.92,
0.777,-7.97,6.60,-0.45,1.43,-0.74,-0.82,
0.784,-7.97,6.60,-0.45,1.43,-0.74,-0.71,
0.784,-7.78,6.70,-0.95,1.43,-0.74,-0.71,
0.784,-7.78,6.70,-0.95,1.43,-0.74,-0.61,
0.784,-7.78,6.70,-0.95,1.42,-0.74,-0.51,
0.784,-7.48,6.74,-1.54,1.42,-0.74,-0.51,
0.786,-7.48,6.74,-1.54,1.41,-0.74,-0.41,
0.788,-7.48,6.74,-1.54,1.40,-0.73,-0.31,
0.789,-7.04,6.79,-2.21,1.40,-0.73,-0.31,
0.789,-7.04,6.79,-2.21,1.37,-0.69,-0.22,
0.795,-7.04,6.79,-2.21,1.34,-0.63,-0.14,
0.795,-6.47,6.95,-2.89,1.34,-0.63,-0.14,
0.795,-6.47,6.95,-2.89,1.31,-0.58,-0.07,
0.797,-6.47,6.95,-2.89,1.28,-0.53,0.00,
0.797,-5.92,7.03,-3.63,1.28,-0.53,0.00,
0.799,-5.92,7.03,-3.63,1.23,-0.49,0.08,
0.802,-5.92,7.03,-3.63,1.18,-0.45,0.16,
0.802,-5.60,6.95,-4.59,1.18,-0.45,0.16,
0.804,-5.60,6.95,-4.59,1.13,-0.41,0.25,
0.807,-5.60,6.95,-4.59,1.07,-0.38,0.33,
0.807,-5.16,6.98,-5.22,1.07,-0.38,0.33,
0.81,-5.16,6.98,-5.22,1.01,-0.32,0.41,
0.812,-5.16,6.98,-5.22,0.93,-0.25,0.48,
0.812,-4.62,7.05,-5.76,0.93,-0.25,0.48,
0.815,-4.62,7.05,-5.76,0.86,-0.17,0.54,
0.817,-4.62,7.05,-5.76,0.80,-0.12,0.61,
0.817,-4.25,6.88,-5.87,0.80,-0.12,0.61,
0.819,-4.25,6.88,-5.87,0.75,-0.07,0.68,
0.822,-4.25,6.88,-5.87,0.69,-0.03,0.75,
0.822,-4.05,6.47,-6.04,0.69,-0.03,0.75,
0.824,-4.05,6.47,-6.04,0.63,0.02,0.82,
0.827,-4.05,6.47,-6.04,0.57,0.08,0.89,
0.828,-3.76,6.18,-6.14,0.57,0.08,0.89,
0.829,-3.76,6.18,-6.14,0.50,0.14,0.96,
0.833,-3.76,6.18,-6.14,0.43,0.19,1.02,
0.833,-3.27,5.77,-6.07,0.43,0.19,1.02,
0.835,-3.27,5.77,-6.07,0.37,0.24,1.08,
0.837,-3.27,5.77,-6.07,0.31,0.27,1.14,
0.837,-3.02,5.26,-5.82,0.31,0.27,1.14,
0.839,-3.02,5.26,-5.82,0.26,0.31,1.20,
0.844,-2.76,4.70,-5.63,0.26,0.31,1.20,
0.844,-2.76,4.70,-5.63,0.20,0.34,1.26,
0.846,-2.76,4.70,-5.63,0.13,0.37,1.30,
0.848,-2.76,4.70,-5.63,0.06,0.38,1.34,
0.848,-2.04,4.01,-5.65,0.06,0.38,1.34,
0.849,-2.04,4.01,-5.65,-0.02,0.39,1.37,
0.852,-2.04,4.01,-5.65,-0.10,0.39,1.38,
0.852,-1.21,3.21,-5.51,-0.10,0.39,1.38,
0.856,-1.21,3.21,-5.51,-0.18,0.38,1.39,
0.857,-1.21,3.21,-5.51,-0.25,0.37,1.40,
0.857,-0.30,2.20,-5.27,-0.25,0.37,1.40,
0.867,-0.30,2.20,-5.27,-0.33,0.36,1.39,
0.867,-0.30,2.20,-5.27,-0.41,0.34,1.37,
0.867,0.59,1.31,-5.12,-0.41,0.34,1.37,
0.867,0.59,1.31,-5.12,-0.49,0.32,1.34,
0.868,1.35,0.56,-5.09,-0.49,0.32,1.34,
0.868,1.35,0.56,-5.09,-0.58,0.31,1.31,
0.869,1.35,0.56,-5.09,-0.65,0.30,1.27,
0.872,1.35,0.56,-5.09,-0.73,0.29,1.22,
0.872,2.03,-0.19,-5.16,-0.73,0.29,1.22,
0.874,2.03,-0.19,-5.16,-0.81,0.28,1.17,
0.877,2.03,-0.19,-5.16,-0.88,0.28,1.12,
0.878,2.46,-0.66,-5.28,-0.88,0.28,1.12,
0.882,2.46,-0.66,-5.28,-0.95,0.28,1.06,
0.882,2.46,-0.66,-5.28,-1.03,0.29,1.00,
0.882,2.78,-1.04,-5.93,-1.03,0.29,1.00,
0.884,2.78,-1.04,-5.93,-1.13,0.31,0.94,
0.887,2.66,-1.59,-7.09,-1.13,0.31,0.94,
0.887,2.66,-1.59,-7.09,-1.23,0.35,0.87,
0.889,2.66,-1.59,-7.09,-1.33,0.41,0.83,
0.905,2.69,-0.68,-7.09,-1.33,0.41,0.83,
0.905,2.69,-0.68,-7.09,-1.42,0.45,0.79,
0.905,2.69,-0.68,-7.09,-1.48,0.49,0.77,
0.906,2.69,-0.68,-7.09,-1.51,0.56,0.73,
0.906,2.94,-0.12,-6.11,-1.51,0.56,0.73,
0.907,2.94,-0.12,-6.11,-1.52,0.60,0.70,
0.907,2.94,-0.12,-6.11,-1.52,0.64,0.68,
0.907,2.66,-0.53,-5.38,-1.52,0.64,0.68,
0.908,2.66,-0.53,-5.38,-1.51,0.74,0.67,
0.908,2.44,-1.21,-5.89,-1.51,0.74,0.67,
0.909,2.44,-1.21,-5.89,-1.53,0.86,0.65,
0.91,2.44,-1.21,-5.89,-1.56,0.98,0.64,
0.911,2.11,-0.85,-7.25,-1.56,0.98,0.64,
0.912,2.11,-0.85,-7.25,-1.63,1.11,0.63,
0.914,2.11,-0.85,-7.25,-1.72,1.24,0.63,
0.916,0.99,0.24,-7.78,-1.72,1.24,0.63,
0.917,0.99,0.24,-7.78,-1.84,1.34,0.64,
0.918,0.99,0.24,-7.78,-1.98,1.39,0.67,
0.921,-0.27,1.82,-7.57,-1.98,1.39,0.67,
0.922,-0.27,1.82,-7.57,-2.12,1.42,0.69,
0.923,-0.27,1.82,-7.57,-2.24,1.47,0.72,
0.926,-0.27,1.82,-7.57,-2.33,1.53,0.75,
0.926,-1.32,1.45,-5.73,-2.33,1.53,0.75,
0.928,-1.32,1.45,-5.73,-2.41,1.60,0.80,
0.931,-1.32,1.45,-5.73,-2.44,1.62,0.86,
0.931,-1.72,0.82,-2.59,-2.44,1.62,0.86,
0.933,-1.72,0.82,-2.59,-2.42,1.64,0.91,
0.936,-1.72,0.82,-2.59,-2.38,1.63,0.96,
0.936,-1.47,-0.18,-0.07,-2.38,1.63,0.96,
0.938,-1.47,-0.18,-0.07,-2.35,1.67,0.99,
0.941,-1.47,-0.18,-0.07,-2.33,1.74,1.02,
0.941,-1.27,-0.88,0.45,-2.33,1.74,1.02,
0.944,-1.27,-0.88,0.45,-2.31,1.82,1.04,
0.948,-1.27,-0.88,0.45,-2.29,1.89,1.04,
0.949,-0.59,-1.01,1.04,-2.29,1.89,1.04,
0.949,-0.59,-1.01,1.04,-2.27,1.94,1.04,
0.951,-0.59,-1.01,1.04,-2.23,1.94,1.02,
0.951,-0.31,-0.75,2.88,-2.23,1.94,1.02,
0.953,-0.31,-0.75,2.88,-2.13,1.94,0.98,
0.956,-0.31,-0.75,2.88,-2.01,1.92,0.93,
0.956,0.12,-1.88,4.85,-2.01,1.92,0.93,
0.958,0.12,-1.88,4.85,-1.90,1.89,0.88,
0.961,0.12,-1.88,4.85,-1.82,1.87,0.84,
0.961,-0.41,-0.54,4.01,-1.82,1.87,0.84,
0.963,-0.41,-0.54,4.01,-1.70,1.82,0.85,
0.966,-0.41,-0.54,4.01,-1.53,1.65,0.90,
0.966,-3.48,0.47,7.57,-1.53,1.65,0.90,
0.968,-3.48,0.47,7.57,-1.37,1.55,0.98,
0.97,-3.48,0.47,7.57,-1.21,1.54,1.03,
0.971,-2.25,2.54,6.23,-1.21,1.54,1.03,
0.973,-2.25,2.54,6.23,-1.13,1.61,0.95,
0.976,3.45,2.39,3.43,-1.13,1.61,0.95,
0.976,3.45,2.39,3.43,-1.08,1.65,0.75,
0.979,3.45,2.39,3.43,-1.04,1.66,0.59,
0.98,3.45,2.39,3.43,-0.99,1.67,0.51,
0.981,0.52,0.09,2.98,-0.99,1.67,0.51,
0.983,0.52,0.09,2.98,-0.94,1.66,0.48,
0.985,0.52,0.09,2.98,-0.87,1.60,0.48,
0.986,-0.32,0.30,3.40,-0.87,1.60,0.48,
0.988,-0.32,0.30,3.40,-0.79,1.55,0.48,
0.99,-0.32,0.30,3.40,-0.73,1.53,0.46,
0.99,-0.21,1.15,2.98,-0.73,1.53,0.46,
0.993,-0.21,1.15,2.98,-0.69,1.53,0.44,
0.995,-0.21,1.15,2.98,-0.66,1.56,0.42,
0.996,-0.31,1.36,2.15,-0.66,1.56,0.42,
0.998,-0.31,1.36,2.15,-0.66,1.60,0.40,
1.0,-0.31,1.36,2.15,-0.67,1.63,0.40,
1.0,-0.85,1.13,1.37,-0.67,1.63,0.40,
1.003,-0.85,1.13,1.37,-0.69,1.65,0.40,
1.005,-0.85,1.13,1.37,-0.73,1.64,0.41,
1.006,-1.37,0.75,1.29,-0.73,1.64,0.41,
1.008,-1.37,0.75,1.29,-0.75,1.60,0.43,
1.011,-1.37,0.75,1.29,-0.78,1.52,0.44,
1.011,-1.46,0.43,1.80,-0.78,1.52,0.44,
1.013,-1.46,0.43,1.80,-0.81,1.42,0.46,
1.015,-1.46,0.43,1.80,-0.82,1.33,0.49,
1.015,-1.76,0.08,2.49,-0.82,1.33,0.49,
1.017,-1.76,0.08,2.49,-0.84,1.24,0.53,
1.02,-1.76,0.08,2.49,-0.84,1.14,0.56,
1.02,-1.84,-0.41,3.00,-0.84,1.14,0.56,
1.022,-1.84,-0.41,3.00,-0.84,1.06,0.59,
1.025,-1.84,-0.41,3.00,-0.83,0.97,0.61,
1.026,-1.87,-0.58,3.19,-0.83,0.97,0.61,
1.028,-1.87,-0.58,3.19,-0.84,0.89,0.61,
1.03,-1.87,-0.58,3.19,-0.84,0.84,0.61,
1.03,-1.88,-0.69,3.48,-0.84,0.84,0.61,
1.033,-1.88,-0.69,3.48,-0.83,0.78,0.61,
1.035,-1.88,-0.69,3.48,-0.81,0.71,0.62,
1.035,-1.78,-1.41,4.22,-0.81,0.71,0.62,
1.037,-1.78,-1.41,4.22,-0.77,0.62,0.65,
1.04,-1.78,-1.41,4.22,-0.71,0.48,0.68,
1.04,-0.55,-2.23,4.90,-0.71,0.48,0.68,
1.044,-0.55,-2.23,4.90,-0.65,0.33,0.65,
1.045,-0.55,-2.23,4.90,-0.61,0.23,0.58,
1.045,0.27,-1.54,4.39,-0.61,0.23,0.58,
1.047,0.27,-1.54,4.39,-0.55,0.16,0.49,
1.05,0.27,-1.54,4.39,-0.51,0.11,0.41,
1.05,0.69,-1.27,4.88,-0.51,0.11,0.41,
1.052,0.69,-1.27,4.88,-0.44,0.03,0.36,
1.055,0.69,-1.27,4.88,-0.35,-0.06,0.30,
1.074,1.39,-1.24,5.60,-0.35,-0.06,0.30,
1.075,1.39,-1.24,5.60,-0.22,-0.16,0.27,
1.075,1.39,-1.24,5.60,-0.10,-0.28,0.25,
1.075,2.08,-2.06,4.92,-0.10,-0.28,0.25,
1.075,2.08,-2.06,4.92,0.01,-0.39,0.20,
1.076,2.08,-2.06,4.92,0.09,-0.45,0.11,
1.076,1.65,-1.32,2.72,0.09,-0.45,0.11,
1.076,1.65,-1.32,2.72,0.15,-0.41,0.03,
1.076,1.65,-1.32,2.72,0.17,-0.32,-0.02,
1.076,1.72,-2.41,0.72,0.17,-0.32,-0.02,
1.077,1.72,-2.41,0.72,0.18,-0.26,-0.04,
1.077,1.72,-2.41,0.72,0.17,-0.18,-0.09,
1.077,0.63,-1.99,-0.90,0.17,-0.18,-0.09,
1.079,0.63,-1.99,-0.90,0.15,-0.02,-0.10,
1.08,0.63,-1.99,-0.90,0.04,0.30,-0.08,
1.08,-0.52,-2.62,-6.74,0.04,0.30,-0.08,
1.082,-0.52,-2.62,-6.74,-0.22,0.81,-0.04,
1.085,-0.52,-2.62,-6.74,-0.53,1.27,-0.08,
1.085,0.84,-0.60,-10.55,-0.53,1.27,-0.08,
1.087,0.84,-0.60,-10.55,-0.81,1.60,-0.16,
1.09,0.84,-0.60,-10.55,-1.06,1.83,-0.27,
1.09,3.51,0.21,-7.93,-1.06,1.83,-0.27,
1.092,3.51,0.21,-7.93,-1.27,2.01,-0.40,
1.095,3.98,-0.59,-3.77,-1.27,2.01,-0.40,
1.096,3.98,-0.59,-3.77,-1.40,2.05,-0.52,
1.097,3.98,-0.59,-3.77,-1.48,2.04,-0.66,
1.1,3.98,-0.59,-3.77,-1.53,2.06,-0.83,
1.1,4.35,-0.10,-3.29,-1.53,2.06,-0.83,
1.102,4.35,-0.10,-3.29,-1.58,2.07,-1.01,
1.104,4.35,-0.10,-3.29,-1.60,2.03,-1.18,
1.105,3.79,-0.01,-1.70,-1.60,2.03,-1.18,
1.107,3.79,-0.01,-1.70,-1.59,2.02,-1.35,
1.11,4.74,1.18,-2.34,-1.59,2.02,-1.35,
1.111,4.74,1.18,-2.34,-1.60,2.06,-1.52,
1.112,4.74,1.18,-2.34,-1.62,2.12,-1.70,
1.114,4.60,1.30,-2.03,-1.62,2.12,-1.70,
1.115,4.60,1.30,-2.03,-1.63,2.20,-1.88,
1.117,4.60,1.30,-2.03,-1.63,2.23,-2.06,
1.119,3.28,0.58,0.90,-1.63,2.23,-2.06,
1.12,3.28,0.58,0.90,-1.60,2.22,-2.25,
1.122,3.28,0.58,0.90,-1.54,2.23,-2.43,
1.124,1.95,0.39,3.03,-1.54,2.23,-2.43,
1.124,1.95,0.39,3.03,-1.45,2.22,-2.59,
1.127,1.95,0.39,3.03,-1.33,2.14,-2.74,
1.129,1.95,0.39,3.03,-1.17,2.02,-2.84,
1.129,-2.06,-0.15,5.63,-1.17,2.02,-2.84,
1.131,-2.06,-0.15,5.63,-0.96,1.85,-2.88,
1.134,-2.06,-0.15,5.63,-0.75,1.70,-2.89,
1.134,-3.64,-0.33,5.84,-0.75,1.70,-2.89,
1.137,-3.64,-0.33,5.84,-0.57,1.63,-2.91,
1.139,-3.64,-0.33,5.84,-0.46,1.64,-2.97,
1.139,-0.85,-0.00,2.19,-0.46,1.64,-2.97,
1.141,-0.85,-0.00,2.19,-0.38,1.67,-3.05,
1.144,-0.01,-0.22,1.18,-0.38,1.67,-3.05,
1.147,-0.01,-0.22,1.18,-0.32,1.71,-3.14,
1.147,-0.01,-0.22,1.18,-0.22,1.70,-3.20,
1.149,-0.01,-0.22,1.18,-0.09,1.64,-3.21,
1.15,-2.50,-1.38,2.25,-0.09,1.64,-3.21,
1.152,-2.50,-1.38,2.25,0.05,1.62,-3.18,
1.154,-2.50,-1.38,2.25,0.16,1.68,-3.15,
1.155,-2.44,-2.47,-0.34,0.16,1.68,-3.15,
1.168,-0.45,-3.03,-1.72,0.16,1.68,-3.15,
1.168,-0.45,-3.03,-1.72,0.23,1.78,-3.15,
1.168,-0.45,-3.03,-1.72,0.29,1.87,-3.18,
1.168,-0.45,-3.03,-1.72,0.37,1.88,-3.23,
1.168,-0.38,-3.75,-0.40,0.37,1.88,-3.23,
1.168,-0.38,-3.75,-0.40,0.47,1.83,-3.27,
1.169,-0.38,-3.75,-0.40,0.62,1.72,-3.29,
1.169,-0.38,-3.75,-0.40,0.78,1.56,-3.30,
1.169,-0.34,-4.45,0.55,0.78,1.56,-3.30,
1.171,-0.34,-4.45,0.55,0.96,1.41,-3.30,
1.174,-0.34,-4.45,0.55,1.21,1.44,-3.26,
1.174,0.63,-4.79,-0.27,1.21,1.44,-3.26,
1.177,0.63,-4.79,-0.27,1.49,1.44,-3.19,
1.18,0.63,-4.79,-0.27,1.76,1.37,-3.07,
1.18,-0.36,-3.42,0.77,1.76,1.37,-3.07,
1.181,-0.36,-3.42,0.77,2.03,1.29,-2.92,
1.184,-0.36,-3.42,0.77,2.30,1.24,-2.76,
1.184,-0.35,-3.08,0.69,2.30,1.24,-2.76,
1.186,-0.35,-3.08,0.69,2.55,1.15,-2.60,
1.189,0.12,-2.75,0.22,2.55,1.15,-2.60,
1.189,0.12,-2.75,0.22,2.77,1.02,-2.44,
1.191,0.12,-2.75,0.22,2.94,0.87,-2.28,
1.194,0.12,-2.75,0.22,3.10,0.78,-2.11,
1.194,0.51,-1.99,-1.01,3.10,0.78,-2.11,
1.196,0.51,-1.99,-1.01,3.30,0.87,-1.91,
1.199,0.74,-1.16,-0.28,3.30,0.87,-1.91,
1.199,0.74,-1.16,-0.28,3.49,0.86,-1.70,
1.201,0.74,-1.16,-0.28,3.65,0.77,-1.52,
1.204,1.01,-0.75,-0.01,3.65,0.77,-1.52,
1.204,1.01,-0.75,-0.01,3.78,0.63,-1.36,
1.206,1.01,-0.75,-0.01,3.85,0.45,-1.21,
1.211,0.36,-0.93,-0.17,3.85,0.45,-1.21,
1.212,0.36,-0.93,-0.17,3.86,0.13,-1.07,
1.212,0.36,-0.93,-0.17,3.70,-0.36,-0.94,
1.213,0.36,-0.93,-0.17,3.38,-1.02,-0.86,
1.214,-0.41,-2.12,-1.45,3.38,-1.02,-0.86,
1.216,-0.41,-2.12,-1.45,2.87,-1.74,-0.81,
1.218,-0.41,-2.12,-1.45,2.24,-2.39,-0.79,
1.219,-1.44,-2.99,-5.04,2.24,-2.39,-0.79,
1.23,-1.44,-2.99,-5.04,1.65,-2.76,-0.71,
1.23,-1.44,-2.99,-5.04,1.23,-2.85,-0.57,
1.23,-3.47,-2.73,-4.75,1.23,-2.85,-0.57,
1.23,-3.47,-2.73,-4.75,0.96,-2.79,-0.40,
1.23,-2.81,-2.39,-2.08,0.96,-2.79,-0.40,
1.23,-2.81,-2.39,-2.08,0.80,-2.67,-0.23,
1.231,-2.81,-2.39,-2.08,0.71,-2.55,-0.10,
1.235,-1.87,-2.56,0.18,0.71,-2.55,-0.10,
1.235,-1.87,-2.56,0.18,0.67,-2.44,0.00,
1.236,-1.87,-2.56,0.18,0.67,-2.36,0.09,
1.238,-1.87,-2.56,0.18,0.70,-2.24,0.15,
1.238,-1.21,-2.84,1.10,0.70,-2.24,0.15,
1.241,-1.21,-2.84,1.10,0.74,-2.09,0.18,
1.244,-1.21,-2.84,1.10,0.79,-1.93,0.19,
1.244,-0.53,-3.18,1.48,0.79,-1.93,0.19,
1.246,-0.53,-3.18,1.48,0.85,-1.77,0.18,
1.248,0.44,-3.17,1.14,0.85,-1.77,0.18,
1.248,0.44,-3.17,1.14,0.89,-1.60,0.15,
1.251,0.44,-3.17,1.14,0.92,-1.45,0.09,
1.253,0.44,-3.17,1.14,0.94,-1.34,0.04,
1.253,0.67,-3.09,1.52,0.94,-1.34,0.04,
1.256,0.67,-3.09,1.52,0.95,-1.24,-0.02,
1.258,0.67,-3.09,1.52,0.93,-1.13,-0.08,
1.258,0.89,-2.54,1.08,0.93,-1.13,-0.08,
1.261,0.89,-2.54,1.08,0.92,-1.03,-0.14,
1.264,0.89,-2.54,1.08,0.89,-0.93,-0.18,
1.264,0.88,-1.97,0.89,0.89,-0.93,-0.18,
1.266,0.88,-1.97,0.89,0.88,-0.81,-0.22,
1.269,0.53,-1.88,0.89,0.88,-0.81,-0.22,
1.269,0.53,-1.88,0.89,0.87,-0.69,-0.25,
1.273,0.53,-1.88,0.89,0.85,-0.58,-0.28,
1.273,0.53,-1.88,0.89,0.82,-0.49,-0.31,
1.274,0.36,-1.67,0.63,0.82,-0.49,-0.31,
1.277,0.36,-1.67,0.63,0.77,-0.42,-0.34,
1.28,0.36,-1.67,0.63,0.73,-0.36,-0.39,
1.28,0.56,-1.49,0.44,0.73,-0.36,-0.39,
1.28,0.56,-1.49,0.44,0.68,-0.31,-0.43,
1.284,0.56,-1.49,0.44,0.63,-0.27,-0.49,
1.284,0.53,-1.45,0.50,0.63,-0.27,-0.49,
1.286,0.53,-1.45,0.50,0.59,-0.26,-0.55,
1.288,0.53,-1.45,0.50,0.53,-0.27,-0.61,
1.288,0.21,-1.26,0.59,0.53,-0.27,-0.61,
1.29,0.21,-1.26,0.59,0.48,-0.29,-0.67,
1.293,0.18,-0.97,0.20,0.48,-0.29,-0.67,
1.293,0.18,-0.97,0.20,0.42,-0.28,-0.73,
1.296,0.18,-0.97,0.20,0.37,-0.27,-0.79,
1.298,0.18,-0.97,0.20,0.33,-0.26,-0.84,
1.298,-0.02,-0.63,0.24,0.33,-0.26,-0.84,
1.3,-0.02,-0.63,0.24,0.29,-0.25,-0.89,
1.303,-0.02,-0.63,0.24,0.25,-0.23,-0.93,
1.303,-0.03,-0.13,-0.01,0.25,-0.23,-0.93,
1.305,-0.03,-0.13,-0.01,0.22,-0.20,-0.96,
1.308,-0.03,-0.13,-0.01,0.19,-0.17,-1.00,
1.308,0.05,0.25,-0.04,0.19,-0.17,-1.00,
1.31,0.05,0.25,-0.04,0.17,-0.16,-1.03,
1.313,0.22,0.58,-0.13,0.17,-0.16,-1.03,
1.313,0.22,0.58,-0.13,0.14,-0.17,-1.07,
1.315,0.22,0.58,-0.13,0.11,-0.18,-1.12,
1.318,0.22,0.58,-0.13,0.09,-0.20,-1.16,
1.318,0.08,1.00,-0.28,0.09,-0.20,-1.16,
1.32,0.08,1.00,-0.28,0.05,-0.21,-1.21,
1.322,0.08,1.00,-0.28,-0.01,-0.21,-1.28,
1.323,-0.15,2.10,-1.10,-0.01,-0.21,-1.28,
1.325,-0.15,2.10,-1.10,-0.08,-0.20,-1.37,
1.328,-0.27,1.48,0.16,-0.08,-0.20,-1.37,
1.328,-0.27,1.48,0.16,-0.10,-0.20,-1.47,
1.33,-0.27,1.48,0.16,-0.08,-0.27,-1.58,
1.334,-0.27,1.48,0.16,-0.04,-0.39,-1.69,
1.334,-1.57,1.01,1.60,-0.04,-0.39,-1.69,
1.335,-1.57,1.01,1.60,-0.02,-0.45,-1.80,
1.338,-1.57,1.01,1.60,-0.04,-0.45,-1.92,
1.338,-1.38,0.78,-0.37,-0.04,-0.45,-1.92,
1.34,-1.38,0.78,-0.37,-0.07,-0.46,-2.03,
1.345,-1.49,0.74,-0.02,-0.07,-0.46,-2.03,
1.347,-1.49,0.74,-0.02,-0.08,-0.49,-2.13,
1.347,-1.49,0.74,-0.02,-0.07,-0.53,-2.20,
1.348,-1.49,0.74,-0.02,-0.05,-0.55,-2.25,
1.348,-1.56,0.56,0.16,-0.05,-0.55,-2.25,
1.35,-1.56,0.56,0.16,-0.02,-0.55,-2.29,
1.353,-1.19,0.26,-0.05,-0.02,-0.55,-2.29,
1.353,-1.19,0.26,-0.05,0.01,-0.52,-2.34,
1.355,-1.19,0.26,-0.05,0.04,-0.47,-2.37,
1.358,-0.81,-0.04,-0.23,0.04,-0.47,-2.37,
1.358,-0.81,-0.04,-0.23,0.08,-0.41,-2.40,
1.369,-0.81,-0.04,-0.23,0.11,-0.34,-2.43,
1.369,-0.45,-0.42,-0.10,0.11,-0.34,-2.43,
1.369,-0.45,-0.42,-0.10,0.15,-0.29,-2.45,
1.369,-0.45,-0.42,-0.10,0.19,-0.24,-2.48,
1.369,-0.26,-0.70,-0.15,0.19,-0.24,-2.48,
1.369,-0.26,-0.70,-0.15,0.23,-0.21,-2.50,
1.369,-0.26,-0.70,-0.15,0.25,-0.18,-2.52,
1.372,-0.26,-0.70,-0.15,0.25,-0.17,-2.55,
1.372,0.06,-0.84,-0.41,0.25,-0.17,-2.55,
1.375,0.06,-0.84,-0.41,0.25,-0.19,-2.60,
1.377,0.06,-0.84,-0.41,0.24,-0.21,-2.65,
1.378,0.08,-0.71,-0.42,0.24,-0.21,-2.65,
1.38,0.08,-0.71,-0.42,0.24,-0.23,-2.71,
1.382,0.08,-0.71,-0.42,0.24,-0.22,-2.77,
1.382,-0.23,-0.43,-0.56,0.24,-0.22,-2.77,
1.385,-0.23,-0.43,-0.56,0.25,-0.20,-2.83,
1.395,-0.23,-0.43,-0.56,0.27,-0.18,-2.90,
1.396,-0.56,-0.14,-0.57,0.27,-0.18,-2.90,
1.396,-0.56,-0.14,-0.57,0.30,-0.15,-2.97,
1.396,-0.56,-0.14,-0.57,0.33,-0.13,-3.05,
1.396,-0.69,-0.01,-0.32,0.33,-0.13,-3.05,
1.396,-0.69,-0.01,-0.32,0.36,-0.10,-3.15,
1.397,-0.69,-0.01,-0.32,0.39,-0.07,-3.27,
1.398,-0.62,0.18,-0.30,0.39,-0.07,-3.27,
1.4,-0.62,0.18,-0.30,0.43,-0.04,-3.41,
1.402,-0.62,0.18,-0.30,0.47,0.00,-3.58,
1.402,-0.67,0.22,-0.23,0.47,0.00,-3.58,
1.404,-0.67,0.22,-0.23,0.51,0.07,-3.76,
1.407,-0.67,0.22,-0.23,0.55,0.16,-3.94,
1.407,-0.94,0.38,-0.22,0.55,0.16,-3.94,
1.412,-0.94,0.38,-0.22,0.59,0.25,-4.13,
1.412,-0.94,0.38,-0.22,0.63,0.34,-4.32,
1.412,-1.10,0.50,-0.09,0.63,0.34,-4.32,
1.415,-1.10,0.50,-0.09,0.66,0.41,-4.50,
1.417,-1.15,1.04,-0.23,0.66,0.41,-4.50,
1.418,-1.15,1.04,-0.23,0.69,0.49,-4.66,
1.419,-1.15,1.04,-0.23,0.71,0.54,-4.79,
1.422,-1.15,1.04,-0.23,0.72,0.53,-4.91,
1.422,-1.07,1.66,0.03,0.72,0.53,-4.91,
1.425,-1.07,1.66,0.03,0.74,0.49,-5.00,
1.428,-1.07,1.66,0.03,0.75,0.46,-5.08,
1.428,-0.69,2.02,-0.35,0.75,0.46,-5.08,
1.431,-0.69,2.02,-0.35,0.74,0.44,-5.15,
1.432,-0.34,2.37,-0.24,0.74,0.44,-5.15,
1.432,-0.34,2.37,-0.24,0.73,0.37,-5.20,
1.435,-0.34,2.37,-0.24,0.73,0.28,-5.25,
1.437,0.07,2.70,-0.22,0.73,0.28,-5.25,
1.437,0.07,2.70,-0.22,0.72,0.18,-5.28,
1.439,0.07,2.70,-0.22,0.69,0.06,-5.31,
1.442,0.58,2.89,-0.04,0.69,0.06,-5.31,
1.442,0.58,2.89,-0.04,0.66,-0.07,-5.32,
1.449,0.58,2.89,-0.04,0.63,-0.21,-5.32,
1.449,1.05,2.96,0.04,0.63,-0.21,-5.32,
1.449,1.05,2.96,0.04,0.58,-0.34,-5.32,
1.449,1.05,2.96,0.04,0.52,-0.47,-5.29,
1.452,1.24,2.76,0.37,0.52,-0.47,-5.29,
1.452,1.24,2.76,0.37,0.45,-0.60,-5.24,
1.454,1.24,2.76,0.37,0.37,-0.74,-5.19,
1.456,1.66,2.59,0.31,0.37,-0.74,-5.19,
1.457,1.66,2.59,0.31,0.28,-0.88,-5.14,
1.459,1.66,2.59,0.31,0.17,-1.02,-5.08,
1.468,1.86,2.70,0.15,0.17,-1.02,-5.08,
1.468,1.86,2.70,0.15,0.04,-1.18,-5.01,
1.469,1.86,2.70,0.15,-0.11,-1.37,-4.94,
1.469,1.86,2.70,0.15,-0.26,-1.56,-4.86,
1.469,1.83,2.88,0.47,-0.26,-1.56,-4.86,
1.469,1.83,2.88,0.47,-0.41,-1.74,-4.77,
1.472,1.98,3.00,0.40,-0.41,-1.74,-4.77,
1.472,1.98,3.00,0.40,-0.55,-1.89,-4.69,
1.474,1.98,3.00,0.40,-0.70,-2.02,-4.59,
1.477,1.96,2.96,0.17,-0.70,-2.02,-4.59,
1.477,1.96,2.96,0.17,-0.84,-2.13,-4.49,
1.481,1.96,2.96,0.17,-0.97,-2.24,-4.37,
1.481,1.76,2.77,0.42,-0.97,-2.24,-4.37,
1.481,1.76,2.77,0.42,-1.09,-2.37,-4.24,
1.484,1.76,2.77,0.42,-1.19,-2.47,-4.09,
1.486,1.76,2.77,0.42,-1.27,-2.54,-3.92,
1.486,1.63,2.48,0.50,-1.27,-2.54,-3.92,
1.488,1.63,2.48,0.50,-1.34,-2.59,-3.75,
1.491,1.63,2.48,0.50,-1.40,-2.63,-3.55,
1.491,1.68,2.12,0.91,-1.40,-2.63,-3.55,
1.494,1.68,2.12,0.91,-1.43,-2.66,-3.35,
1.496,1.68,2.12,0.91,-1.46,-2.71,-3.15,
1.496,1.85,1.51,1.06,-1.46,-2.71,-3.15,
1.498,1.85,1.51,1.06,-1.49,-2.74,-2.95,
1.501,1.85,1.51,1.06,-1.52,-2.77,-2.76,
1.501,2.20,0.93,0.25,-1.52,-2.77,-2.76,
1.503,2.20,0.93,0.25,-1.55,-2.77,-2.58,
1.506,2.20,0.93,0.25,-1.57,-2.72,-2.43,
1.506,2.52,0.25,-0.49,-1.57,-2.72,-2.43,
1.508,2.52,0.25,-0.49,-1.57,-2.65,-2.30,
1.511,2.52,0.25,-0.49,-1.57,-2.54,-2.17,
1.511,2.59,-0.38,-0.86,-1.57,-2.54,-2.17,
1.513,2.59,-0.38,-0.86,-1.54,-2.41,-2.05,
1.516,2.59,-0.38,-0.86,-1.49,-2.26,-1.94,
1.517,2.48,-1.10,-0.85,-1.49,-2.26,-1.94,
1.518,2.48,-1.10,-0.85,-1.42,-2.08,-1.82,
1.521,2.48,-1.10,-0.85,-1.33,-1.85,-1.71,
1.521,2.38,-2.17,-0.59,-1.33,-1.85,-1.71,
1.523,2.38,-2.17,-0.59,-1.23,-1.57,-1.60,
1.526,2.38,-2.17,-0.59,-1.16,-1.28,-1.48,
1.526,2.02,-2.56,-1.26,-1.16,-1.28,-1.48,
1.528,2.02,-2.56,-1.26,-1.06,-1.06,-1.37,
1.531,2.02,-2.56,-1.26,-0.95,-0.90,-1.24,
1.531,1.43,-2.94,0.25,-0.95,-0.90,-1.24,
1.533,1.43,-2.94,0.25,-0.83,-0.75,-1.12,
1.536,1.43,-2.94,0.25,-0.72,-0.59,-0.99,
1.536,1.05,-3.18,-0.19,-0.72,-0.59,-0.99,
1.54,1.05,-3.18,-0.19,-0.62,-0.44,-0.87,
1.542,1.05,-3.18,-0.19,-0.51,-0.31,-0.76,
1.542,0.94,-3.21,-0.17,-0.51,-0.31,-0.76,
1.545,0.94,-3.21,-0.17,-0.41,-0.19,-0.66,
1.548,0.94,-3.21,-0.17,-0.30,-0.09,-0.58,
1.548,0.94,-3.13,-0.26,-0.30,-0.09,-0.58,
1.548,0.94,-3.13,-0.26,-0.18,-0.00,-0.52,
1.551,0.94,-3.13,-0.26,-0.06,0.09,-0.47,
1.565,1.04,-3.08,-0.64,-0.06,0.09,-0.47,
1.565,1.04,-3.08,-0.64,0.07,0.20,-0.44,
1.566,1.04,-3.08,-0.64,0.21,0.32,-0.43,
1.566,1.04,-2.95,-0.82,0.21,0.32,-0.43,
1.566,1.04,-2.95,-0.82,0.38,0.45,-0.42,
1.566,1.13,-2.52,-0.97,0.38,0.45,-0.42,
1.567,1.13,-2.52,-0.97,0.56,0.58,-0.41,
1.567,1.13,-2.52,-0.97,0.76,0.73,-0.41,
1.567,1.35,-1.84,-0.95,0.76,0.73,-0.41,
1.567,1.35,-1.84,-0.95,1.00,0.91,-0.39,
1.573,1.35,-1.84,-0.95,1.24,1.06,-0.37,
1.576,1.76,-1.29,-0.56,1.24,1.06,-0.37,
1.576,1.76,-1.29,-0.56,1.46,1.11,-0.36,
1.577,1.76,-1.29,-0.56,1.64,1.08,-0.36,
1.591,1.72,-0.67,-0.80,1.64,1.08,-0.36,
1.592,1.72,-0.67,-0.80,1.79,1.02,-0.37,
1.592,1.72,-0.67,-0.80,1.91,0.93,-0.37,
1.592,1.63,-0.06,-0.80,1.91,0.93,-0.37,
1.592,1.40,0.51,-1.02,1.91,0.93,-0.37,
1.592,1.40,0.51,-1.02,2.03,0.82,-0.38,
1.593,1.40,0.51,-1.02,2.13,0.71,-0.40,
1.593,1.40,0.51,-1.02,2.21,0.61,-0.41,
1.593,1.40,0.51,-1.02,2.29,0.53,-0.42,
1.593,1.40,0.51,-1.02,2.36,0.46,-0.42,
1.593,1.05,1.06,-1.03,2.36,0.46,-0.42,
1.593,1.05,1.06,-1.03,2.43,0.41,-0.42,
1.595,1.05,1.06,-1.03,2.49,0.38,-0.42,
1.597,0.86,1.53,-1.11,2.49,0.38,-0.42,
1.598,0.86,1.53,-1.11,2.55,0.35,-0.41,
1.601,0.86,1.53,-1.11,2.59,0.36,-0.41,
1.601,0.86,1.86,-1.17,2.59,0.36,-0.41,
1.603,0.86,1.86,-1.17,2.64,0.37,-0.40,
1.606,0.86,1.86,-1.17,2.69,0.38,-0.40,
1.606,1.01,2.20,-1.09,2.69,0.38,-0.40,
1.608,1.01,2.20,-1.09,2.72,0.39,-0.41,
1.611,1.01,2.20,-1.09,2.75,0.39,-0.41,
1.611,0.94,2.71,-0.86,2.75,0.39,-0.41,
1.613,0.94,2.71,-0.86,2.78,0.38,-0.42,
1.616,0.94,2.71,-0.86,2.80,0.34,-0.43,
1.616,0.91,3.04,-0.43,2.80,0.34,-0.43,
1.618,0.91,3.04,-0.43,2.82,0.31,-0.44,
1.62,0.91,3.04,-0.43,2.84,0.27,-0.44,
1.62,0.77,3.32,-0.22,2.84,0.27,-0.44,
1.623,0.77,3.32,-0.22,2.85,0.25,-0.45,
1.625,0.77,3.32,-0.22,2.87,0.23,-0.45,
1.625,0.91,3.56,-0.07,2.87,0.23,-0.45,
1.627,0.91,3.56,-0.07,2.88,0.23,-0.47,
1.63,0.91,3.56,-0.07,2.89,0.23,-0.48,
1.63,0.94,3.85,-0.11,2.89,0.23,-0.48,
1.632,0.94,3.85,-0.11,2.88,0.25,-0.48,
1.635,0.72,4.01,-0.11,2.88,0.25,-0.48,
1.635,0.72,4.01,-0.11,2.87,0.27,-0.48,
1.637,0.72,4.01,-0.11,2.84,0.27,-0.48,
1.64,0.72,4.01,-0.11,2.81,0.26,-0.48,
1.64,0.67,3.93,0.22,2.81,0.26,-0.48,
1.642,0.67,3.93,0.22,2.77,0.25,-0.47,
1.645,0.67,3.93,0.22,2.73,0.22,-0.47,
1.645,0.57,3.84,0.51,2.73,0.22,-0.47,
1.648,0.57,3.84,0.51,2.68,0.21,-0.46,
1.65,0.57,3.84,0.51,2.62,0.20,-0.46,
1.65,0.49,3.78,0.76,2.62,0.20,-0.46,
1.652,0.49,3.78,0.76,2.56,0.16,-0.46,
1.655,0.49,3.78,0.76,2.50,0.09,-0.44,
1.655,0.14,3.56,1.77,2.50,0.09,-0.44,
1.658,0.14,3.56,1.77,2.42,0.01,-0.43,
1.66,0.14,3.56,1.77,2.29,-0.07,-0.42,
1.66,0.00,3.38,0.97,2.29,-0.07,-0.42,
1.664,0.00,3.38,0.97,2.16,-0.14,-0.40,
1.664,0.00,3.38,0.97,1.99,-0.21,-0.38,
1.665,-0.15,3.02,1.01,1.99,-0.21,-0.38,
1.667,-0.15,3.02,1.01,1.82,-0.26,-0.36,
1.669,-0.15,3.02,1.01,1.62,-0.30,-0.35,
1.67,-0.07,2.66,0.48,1.62,-0.30,-0.35,
1.672,-0.07,2.66,0.48,1.41,-0.35,-0.34,
1.675,-0.07,2.66,0.48,1.30,-0.34,-0.29,
1.675,-0.86,0.87,2.39,1.30,-0.34,-0.29,
1.678,-0.86,0.87,2.39,1.12,-0.27,-0.22,
1.681,-0.66,1.60,2.37,1.12,-0.27,-0.22,
1.682,-0.66,1.60,2.37,0.92,-0.33,-0.21,
1.682,-0.66,1.60,2.37,0.80,-0.33,-0.14,
1.684,-0.66,1.60,2.37,0.69,-0.19,-0.10,
1.685,-1.01,1.24,1.66,0.69,-0.19,-0.10,
1.687,-1.01,1.24,1.66,0.67,0.27,-0.02,
1.689,-1.01,1.24,1.66,0.38,0.72,0.04,
1.689,-0.83,1.56,-4.70,0.38,0.72,0.04,
1.692,-0.83,1.56,-4.70,0.19,0.92,0.08,
1.695,-0.83,1.56,-4.70,0.19,0.73,0.11,
1.695,-0.90,0.58,5.11,0.19,0.73,0.11,
1.697,-0.90,0.58,5.11,0.11,0.33,0.13,
1.699,-0.90,0.58,5.11,0.02,0.12,0.13,
1.7,-0.20,-0.61,1.91,0.02,0.12,0.13,
1.702,-0.20,-0.61,1.91,-0.05,0.23,0.13,
1.704,-0.20,-0.61,1.91,-0.15,0.45,0.13,
1.704,0.24,-2.29,-1.39,-0.15,0.45,0.13,
1.707,0.24,-2.29,-1.39,-0.25,0.50,0.12,
1.709,0.24,-2.29,-1.39,-0.32,0.31,0.14,
1.709,-1.41,-2.92,1.90,-0.32,0.31,0.14,
1.712,-1.41,-2.92,1.90,-0.38,0.10,0.17,
1.714,-1.41,-2.92,1.90,-0.46,0.07,0.22,
1.715,-1.89,-3.95,-0.75,-0.46,0.07,0.22,
1.725,-1.89,-3.95,-0.75,-0.54,0.15,0.27,
1.725,-1.89,-3.95,-0.75,-0.60,0.19,0.32,
1.725,-2.44,-5.56,-0.38,-0.60,0.19,0.32,
1.725,-2.44,-5.56,-0.38,-0.63,0.14,0.37,
1.725,-2.46,-7.46,0.11,-0.63,0.14,0.37,
1.725,-2.46,-7.46,0.11,-0.66,0.09,0.40,
1.734,-2.46,-7.46,0.11,-0.70,0.13,0.44,
1.735,-2.46,-7.46,0.11,-0.70,0.21,0.45,
1.735,-1.92,-9.15,-0.10,-0.70,0.21,0.45,
1.735,-1.92,-9.15,-0.10,-0.68,0.28,0.46,
1.735,-2.89,-9.41,0.06,-0.68,0.28,0.46,
1.735,-2.89,-9.41,0.06,-0.68,0.32,0.49,
1.737,-2.89,-9.41,0.06,-0.66,0.32,0.53,
1.739,-2.89,-9.41,0.06,-0.64,0.30,0.56,
1.74,-3.01,-8.78,0.02,-0.64,0.30,0.56,
1.742,-3.01,-8.78,0.02,-0.60,0.27,0.58,
1.747,-3.01,-8.78,0.02,-0.54,0.23,0.57,
1.747,-2.18,-6.70,0.28,-0.54,0.23,0.57,
1.747,-2.18,-6.70,0.28,-0.48,0.20,0.55,
1.75,-2.18,-6.70,0.28,-0.42,0.16,0.50,
1.75,-1.46,-5.50,-0.25,-0.42,0.16,0.50,
1.752,-1.46,-5.50,-0.25,-0.36,0.12,0.44,
1.755,-1.46,-5.50,-0.25,-0.30,0.07,0.37,
1.755,-1.38,-4.60,-0.85,-0.30,0.07,0.37,
1.756,-1.38,-4.60,-0.85,-0.25,0.04,0.31,
1.76,-1.38,-4.60,-0.85,-0.20,0.03,0.25,
1.76,-1.80,-3.72,-1.53,-0.20,0.03,0.25,
1.77,-1.80,-3.72,-1.53,-0.16,0.02,0.21,
1.77,-1.80,-3.72,-1.53,-0.11,0.01,0.17,
1.771,-2.20,-2.87,-1.73,-0.11,0.01,0.17,
1.771,-2.20,-2.87,-1.73,-0.07,-0.02,0.13,
1.771,-2.20,-2.87,-1.73,-0.03,-0.04,0.10,
1.771,-2.18,-1.97,-1.59,-0.03,-0.04,0.10,
1.771,-2.18,-1.97,-1.59,0.02,-0.08,0.07,
1.774,-2.18,-1.97,-1.59,0.07,-0.13,0.04,
1.774,-1.72,-1.03,-1.23,0.07,-0.13,0.04,
1.776,-1.72,-1.03,-1.23,0.11,-0.18,0.01,
1.779,-1.72,-1.03,-1.23,0.16,-0.22,-0.02,
1.779,-1.28,-0.26,-0.95,0.16,-0.22,-0.02,
1.783,-1.28,-0.26,-0.95,0.21,-0.25,-0.04,
1.784,-1.28,-0.26,-0.95,0.26,-0.28,-0.06,
1.784,-1.00,0.18,-0.66,0.26,-0.28,-0.06,
1.786,-1.00,0.18,-0.66,0.30,-0.30,-0.08,
1.789,-1.00,0.18,-0.66,0.35,-0.32,-0.10,
1.789,-0.76,0.42,-0.41,0.35,-0.32,-0.10,
1.791,-0.76,0.42,-0.41,0.38,-0.33,-0.10,
1.794,-0.72,0.42,-0.40,0.38,-0.33,-0.10,
1.794,-0.72,0.42,-0.40,0.41,-0.33,-0.10,
1.796,-0.72,0.42,-0.40,0.44,-0.32,-0.09,
1.798,-0.72,0.42,-0.40,0.46,-0.32,-0.08,
1.799,-0.63,0.34,-0.35,0.46,-0.32,-0.08,
1.801,-0.63,0.34,-0.35,0.47,-0.32,-0.08,
1.803,-0.63,0.34,-0.35,0.47,-0.32,-0.07,
1.803,-0.51,0.34,-0.28,0.47,-0.32,-0.07,
1.806,-0.51,0.34,-0.28,0.47,-0.31,-0.06,
1.808,-0.51,0.34,-0.28,0.47,-0.31,-0.05,
1.808,-0.53,0.38,-0.34,0.47,-0.31,-0.05,
1.811,-0.53,0.38,-0.34,0.46,-0.29,-0.04,
1.813,-0.53,0.38,-0.34,0.45,-0.27,-0.03,
1.813,-0.53,0.46,-0.42,0.45,-0.27,-0.03,
1.816,-0.53,0.46,-0.42,0.43,-0.25,-0.02,
1.818,-0.53,0.46,-0.42,0.41,-0.23,-0.01,
1.818,-0.58,0.49,-0.51,0.41,-0.23,-0.01,
1.822,-0.58,0.49,-0.51,0.39,-0.21,-0.01,
1.824,-0.64,0.52,-0.60,0.39,-0.21,-0.01,
1.824,-0.64,0.52,-0.60,0.36,-0.19,-0.00,
1.826,-0.64,0.52,-0.60,0.34,-0.17,0.00,
1.828,-0.69,0.56,-0.68,0.34,-0.17,0.00,
1.829,-0.69,0.56,-0.68,0.31,-0.16,0.01,
1.831,-0.69,0.56,-0.68,0.28,-0.14,0.01,
1.833,-0.74,0.57,-0.77,0.28,-0.14,0.01,
1.834,-0.74,0.57,-0.77,0.25,-0.13,0.02,
1.836,-0.74,0.57,-0.77,0.23,-0.12,0.02,
1.838,-0.81,0.53,-0.80,0.23,-0.12,0.02,
1.838,-0.81,0.53,-0.80,0.20,-0.11,0.03,
1.84,-0.81,0.53,-0.80,0.18,-0.09,0.03,
1.843,-0.81,0.53,-0.80,0.16,-0.08,0.04,
1.844,-0.85,0.46,-0.82,0.16,-0.08,0.04,
1.845,-0.85,0.46,-0.82,0.14,-0.06,0.04,
1.848,-0.89,0.36,-0.85,0.14,-0.06,0.04,
1.848,-0.89,0.36,-0.85,0.12,-0.05,0.05,
1.85,-0.89,0.36,-0.85,0.11,-0.04,0.05,
1.853,-0.89,0.26,-0.84,0.11,-0.04,0.05,
1.853,-0.89,0.26,-0.84,0.10,-0.02,0.06,
1.855,-0.89,0.26,-0.84,0.09,-0.01,0.06,
1.858,-0.89,0.26,-0.84,0.08,-0.01,0.07,
1.858,-0.93,0.17,-0.89,0.08,-0.01,0.07,
1.861,-0.93,0.17,-0.89,0.08,0.00,0.07,
1.863,-0.93,0.17,-0.89,0.07,0.00,0.08,
1.863,-0.92,0.10,-0.82,0.07,0.00,0.08,
1.865,-0.92,0.10,-0.82,0.07,0.00,0.08,
1.868,-1.00,0.09,-0.81,0.07,0.00,0.08,
1.868,-1.00,0.09,-0.81,0.07,0.00,0.08,
1.87,-1.00,0.09,-0.81,0.08,0.01,0.09,
1.873,-1.00,0.09,-0.81,0.08,0.01,0.09,
1.873,-1.12,0.07,-0.85,0.08,0.01,0.09,
1.876,-1.12,0.07,-0.85,0.08,0.01,0.09,
1.889,-1.14,-0.03,-0.80,0.08,0.01,0.09,
1.89,-1.14,-0.03,-0.80,0.09,0.00,0.10,
1.891,-1.14,-0.03,-0.80,0.10,0.00,0.10,
1.911,-1.14,-0.03,-0.80,0.10,0.00,0.10,
1.911,-1.15,-0.10,-0.84,0.10,0.00,0.10,
1.911,-1.15,-0.10,-0.84,0.11,-0.00,0.10,
1.912,-1.20,-0.18,-0.82,0.11,-0.00,0.10,
1.912,-1.20,-0.18,-0.82,0.12,-0.01,0.10,
1.915,-1.20,-0.18,-0.82,0.13,-0.01,0.10,
1.915,-1.22,-0.23,-0.83,0.13,-0.01,0.10,
1.916,-1.20,-0.28,-0.82,0.13,-0.01,0.10,
1.916,-1.20,-0.28,-0.82,0.13,-0.01,0.10,
1.916,-1.12,-0.29,-0.87,0.13,-0.01,0.10,
1.916,-1.12,-0.29,-0.87,0.14,-0.02,0.10,
1.916,-1.12,-0.29,-0.87,0.15,-0.01,0.09,
1.916,-1.12,-0.29,-0.87,0.16,-0.01,0.09,
1.917,-1.12,-0.29,-0.87,0.16,-0.02,0.08,
1.917,-1.12,-0.29,-0.87,0.17,-0.01,0.08,
1.917,-1.12,-0.28,-0.85,0.17,-0.01,0.08,
1.917,-1.12,-0.28,-0.85,0.18,-0.01,0.07,
1.917,-1.12,-0.28,-0.85,0.18,-0.01,0.06,
1.917,-1.12,-0.28,-0.85,0.19,-0.01,0.06,
1.918,-1.08,-0.24,-0.82,0.19,-0.01,0.06,
1.918,-1.08,-0.24,-0.82,0.20,-0.01,0.05,
1.918,-1.08,-0.24,-0.82,0.20,-0.02,0.04,
1.918,-0.95,-0.22,-0.86,0.20,-0.02,0.04,
1.92,-0.95,-0.22,-0.86,0.21,-0.02,0.04,
1.923,-0.95,-0.22,-0.86,0.21,-0.03,0.03,
1.923,-0.83,-0.20,-0.93,0.21,-0.03,0.03,
1.925,-0.83,-0.20,-0.93,0.21,-0.03,0.02,
1.928,-0.83,-0.20,-0.93,0.21,-0.03,0.01,
1.928,-0.76,-0.16,-1.00,0.21,-0.03,0.01,
1.93,-0.76,-0.16,-1.00,0.21,-0.03,0.00,
1.933,-0.69,-0.11,-1.07,0.21,-0.03,0.00,
1.933,-0.69,-0.11,-1.07,0.20,-0.03,-0.00,
1.934,-0.69,-0.11,-1.07,0.20,-0.04,-0.01,
1.937,-0.69,-0.11,-1.07,0.19,-0.04,-0.02,
1.937,-0.60,-0.11,-1.10,0.19,-0.04,-0.02,
1.939,-0.60,-0.11,-1.10,0.19,-0.05,-0.02,
1.942,-0.56,-0.09,-1.15,0.19,-0.05,-0.02,
1.942,-0.56,-0.09,-1.15,0.18,-0.05,-0.03,
1.946,-0.56,-0.09,-1.15,0.18,-0.06,-0.03,
1.947,-0.51,-0.04,-1.14,0.18,-0.06,-0.03,
1.947,-0.51,-0.04,-1.14,0.17,-0.06,-0.03,
1.951,-0.51,-0.04,-1.14,0.17,-0.06,-0.03,
1.952,-0.51,-0.04,-1.14,0.16,-0.07,-0.03,
1.952,-0.45,-0.04,-1.13,0.16,-0.07,-0.03,
1.954,-0.45,-0.04,-1.13,0.16,-0.07,-0.04,
1.957,-0.45,-0.04,-1.13,0.15,-0.07,-0.04,
1.957,-0.40,-0.03,-1.11,0.15,-0.07,-0.04,
1.959,-0.40,-0.03,-1.11,0.15,-0.08,-0.04,
1.963,-0.34,-0.04,-1.11,0.15,-0.08,-0.04,
1.963,-0.34,-0.04,-1.11,0.14,-0.08,-0.04,
1.965,-0.34,-0.04,-1.11,0.14,-0.09,-0.05,
1.967,-0.34,-0.04,-1.11,0.14,-0.10,-0.05,
1.967,-0.27,-0.03,-1.11,0.14,-0.10,-0.05,
1.975,-0.27,-0.03,-1.11,0.13,-0.10,-0.05,
1.976,-0.21,-0.04,-1.11,0.13,-0.10,-0.05,
1.976,-0.21,-0.04,-1.11,0.13,-0.11,-0.05,
1.976,-0.21,-0.04,-1.11,0.13,-0.11,-0.06,
1.978,-0.21,-0.04,-1.11,0.13,-0.11,-0.06,
1.978,-0.17,-0.13,-1.13,0.13,-0.11,-0.06,
1.98,-0.17,-0.13,-1.13,0.13,-0.11,-0.06,
1.982,-0.17,-0.13,-1.13,0.13,-0.11,-0.06,
1.982,-0.18,-0.14,-1.10,0.13,-0.11,-0.06,
1.984,-0.18,-0.14,-1.10,0.13,-0.11,-0.07,
1.987,-0.18,-0.14,-1.10,0.14,-0.12,-0.06,
1.987,-0.11,-0.17,-1.11,0.14,-0.12,-0.06,
1.989,-0.11,-0.17,-1.11,0.14,-0.12,-0.07,
1.992,-0.11,-0.17,-1.11,0.14,-0.12,-0.07,
1.992,-0.08,-0.22,-1.09,0.14,-0.12,-0.07,
1.995,-0.08,-0.22,-1.09,0.14,-0.12,-0.07,
1.999,-0.07,-0.28,-1.11,0.14,-0.12,-0.07,
1.999,-0.07,-0.28,-1.11,0.14,-0.13,-0.07,
2.0,-0.07,-0.28,-1.11,0.13,-0.14,-0.07,
2.002,-0.07,-0.28,-1.11,0.13,-0.15,-0.07,
2.002,-0.06,-0.30,-1.13,0.13,-0.15,-0.07,
2.004,-0.06,-0.30,-1.13,0.13,-0.15,-0.07,
2.007,-0.06,-0.30,-1.13,0.12,-0.16,-0.07,
2.007,0.01,-0.30,-1.19,0.12,-0.16,-0.07,
2.009,0.01,-0.30,-1.19,0.12,-0.16,-0.06,
2.012,0.01,-0.27,-1.21,0.12,-0.16,-0.06,
2.012,0.01,-0.27,-1.21,0.12,-0.16,-0.06,
2.014,0.01,-0.27,-1.21,0.11,-0.17,-0.05,
2.018,-0.00,-0.26,-1.20,0.11,-0.17,-0.05,
2.018,-0.00,-0.26,-1.20,0.11,-0.17,-0.05,
2.019,-0.00,-0.26,-1.20,0.10,-0.17,-0.04,
2.022,-0.00,-0.26,-1.20,0.10,-0.17,-0.04,
2.022,-0.01,-0.21,-1.10,0.10,-0.17,-0.04,
2.025,-0.01,-0.21,-1.10,0.10,-0.18,-0.03,
2.027,-0.01,-0.21,-1.10,0.10,-0.18,-0.02,
2.028,-0.04,-0.20,-1.11,0.10,-0.18,-0.02,
2.03,-0.04,-0.20,-1.11,0.10,-0.18,-0.01,
2.033,-0.04,-0.20,-1.11,0.10,-0.19,-0.01,
2.033,-0.06,-0.14,-1.05,0.10,-0.19,-0.01,
2.035,-0.06,-0.14,-1.05,0.10,-0.19,0.00,
2.037,-0.06,-0.14,-1.05,0.10,-0.20,0.01,
2.037,-0.09,-0.10,-1.05,0.10,-0.20,0.01,
2.039,-0.09,-0.10,-1.05,0.10,-0.20,0.01,
2.042,-0.09,-0.10,-1.05,0.10,-0.20,0.02,
2.042,-0.14,-0.09,-1.04,0.10,-0.20,0.02,
2.044,-0.14,-0.09,-1.04,0.10,-0.21,0.02,
2.047,-0.14,-0.09,-1.04,0.10,-0.21,0.02,
2.061,-0.23,-0.06,-1.03,0.10,-0.21,0.02,
2.061,-0.23,-0.06,-1.03,0.10,-0.22,0.02,
2.061,-0.23,-0.06,-1.03,0.10,-0.22,0.02,
2.061,-0.30,-0.02,-1.04,0.10,-0.22,0.02,
2.061,-0.30,-0.02,-1.04,0.10,-0.22,0.02,
2.062,-0.32,-0.02,-1.05,0.10,-0.22,0.02,
2.062,-0.32,-0.02,-1.05,0.09,-0.23,0.02,
2.062,-0.32,-0.02,-1.05,0.09,-0.23,0.02,
2.062,-0.34,0.07,-1.06,0.09,-0.23,0.02,
2.062,-0.34,0.07,-1.06,0.09,-0.23,0.02,
2.064,-0.34,0.07,-1.06,0.09,-0.23,0.02,
2.066,-0.34,0.07,-1.06,0.09,-0.24,0.01,
2.066,-0.38,0.10,-1.05,0.09,-0.24,0.01,
2.068,-0.38,0.10,-1.05,0.09,-0.24,0.01,
2.073,-0.38,0.10,-1.05,0.09,-0.24,0.01,
2.073,-0.40,0.18,-1.09,0.09,-0.24,0.01,
2.073,-0.40,0.18,-1.09,0.09,-0.25,0.01,
2.077,-0.40,0.18,-1.09,0.08,-0.25,0.01,
2.077,-0.44,0.23,-1.11,0.08,-0.25,0.01,
2.081,-0.44,0.23,-1.11,0.08,-0.25,0.01,
2.082,-0.44,0.23,-1.11,0.08,-0.26,0.01,
2.082,-0.47,0.28,-1.09,0.08,-0.26,0.01,
2.088,-0.47,0.28,-1.09,0.08,-0.26,0.00,
2.088,-0.47,0.28,-1.09,0.08,-0.27,0.00,
2.088,-0.50,0.30,-1.04,0.08,-0.27,0.00,
2.089,-0.50,0.30,-1.04,0.08,-0.27,0.00,
2.092,-0.50,0.30,-1.04,0.08,-0.27,0.00,
2.092,-0.53,0.31,-1.00,0.08,-0.27,0.00,
2.094,-0.53,0.31,-1.00,0.08,-0.28,-0.00,
2.111,-0.56,0.31,-0.99,0.08,-0.28,-0.00,
2.111,-0.56,0.31,-0.99,0.09,-0.28,-0.00,
2.111,-0.56,0.31,-0.99,0.09,-0.28,-0.00,
2.112,-0.56,0.31,-0.99,0.09,-0.28,-0.00,
2.112,-0.62,0.27,-0.97,0.09,-0.28,-0.00,
2.112,-0.62,0.27,-0.97,0.10,-0.28,-0.01,
2.112,-0.62,0.27,-0.97,0.10,-0.28,-0.01,
2.112,-0.65,0.25,-0.98,0.10,-0.28,-0.01,
2.112,-0.65,0.25,-0.98,0.10,-0.28,-0.01,
2.112,-0.65,0.25,-0.98,0.10,-0.29,-0.01,
2.112,-0.71,0.20,-0.99,0.10,-0.29,-0.01,
2.114,-0.71,0.20,-0.99,0.10,-0.29,-0.01,
2.116,-0.71,0.20,-0.99,0.10,-0.29,-0.02,
2.116,-0.76,0.14,-0.99,0.10,-0.29,-0.02,
2.118,-0.76,0.14,-0.99,0.10,-0.30,-0.02,
2.121,-0.76,0.14,-0.99,0.10,-0.30,-0.02,
2.121,-0.81,0.08,-1.00,0.10,-0.30,-0.02,
2.123,-0.81,0.08,-1.00,0.10,-0.30,-0.02,
2.126,-0.81,0.08,-1.00,0.09,-0.31,-0.02,
2.127,-0.88,0.02,-1.01,0.09,-0.31,-0.02,
2.13,-0.88,0.02,-1.01,0.09,-0.31,-0.02,
2.131,-0.94,0.00,-1.01,0.09,-0.31,-0.02,
2.131,-0.94,0.00,-1.01,0.08,-0.32,-0.02,
2.133,-0.94,0.00,-1.01,0.08,-0.32,-0.02,
2.136,-0.94,0.00,-1.01,0.08,-0.33,-0.02,
2.136,-1.00,0.00,-0.99,0.08,-0.33,-0.02,
2.138,-1.00,0.00,-0.99,0.07,-0.33,-0.01,
2.14,-1.00,0.00,-0.99,0.07,-0.33,-0.01,
2.141,-1.04,-0.04,-0.99,0.07,-0.33,-0.01,
2.143,-1.04,-0.04,-0.99,0.07,-0.34,-0.01,
2.147,-1.08,-0.10,-0.96,0.07,-0.34,-0.01,
2.147,-1.08,-0.10,-0.96,0.06,-0.34,-0.01,
2.148,-1.08,-0.10,-0.96,0.06,-0.34,-0.01,
2.15,-1.08,-0.10,-0.96,0.06,-0.35,-0.00,
2.15,-1.10,-0.14,-0.96,0.06,-0.35,-0.00,
2.153,-1.10,-0.14,-0.96,0.06,-0.35,0.00,
2.155,-1.10,-0.14,-0.96,0.06,-0.36,0.00,
2.155,-1.10,-0.21,-0.95,0.06,-0.36,0.00,
2.158,-1.10,-0.21,-0.95,0.05,-0.36,0.01,
2.164,-1.12,-0.20,-1.00,0.05,-0.36,0.01,
2.166,-1.12,-0.20,-1.00,0.05,-0.36,0.01,
2.167,-1.12,-0.20,-1.00,0.05,-0.36,0.01,
2.167,-1.12,-0.20,-1.00,0.06,-0.36,0.01,
2.167,-1.11,-0.17,-0.98,0.06,-0.36,0.01,
2.168,-1.11,-0.17,-0.98,0.06,-0.35,0.01,
2.172,-1.12,-0.15,-1.01,0.06,-0.35,0.01,
2.173,-1.12,-0.15,-1.01,0.06,-0.35,0.02,
2.174,-1.12,-0.15,-1.01,0.06,-0.35,0.02,
2.19,-1.12,-0.15,-1.01,0.06,-0.34,0.02,
2.191,-1.12,-0.15,-1.01,0.06,-0.34,0.02,
2.191,-1.12,-0.15,-1.01,0.06,-0.34,0.02,
2.192,-1.12,-0.12,-1.03,0.06,-0.34,0.02,
2.192,-1.11,-0.14,-0.97,0.06,-0.34,0.02,
2.192,-1.11,-0.14,-0.97,0.06,-0.34,0.02,
2.193,-1.11,-0.14,-0.97,0.06,-0.34,0.02,
2.193,-1.04,-0.14,-1.02,0.06,-0.34,0.02,
2.193,-1.04,-0.14,-1.02,0.06,-0.33,0.02,
2.193,-0.97,-0.19,-1.04,0.06,-0.33,0.02,
2.194,-0.97,-0.19,-1.04,0.06,-0.33,0.02,
2.194,-0.97,-0.19,-1.04,0.06,-0.33,0.02,
2.197,-0.92,-0.18,-1.06,0.06,-0.33,0.02,
2.197,-0.92,-0.18,-1.06,0.06,-0.33,0.02,
2.198,-0.92,-0.18,-1.06,0.06,-0.33,0.02,
2.2,-0.92,-0.18,-1.06,0.06,-0.33,0.01,
2.2,-0.87,-0.20,-1.07,0.06,-0.33,0.01,
2.203,-0.87,-0.20,-1.07,0.06,-0.34,0.01,
2.205,-0.87,-0.20,-1.07,0.05,-0.34,0.01,
2.205,-0.84,-0.18,-1.09,0.05,-0.34,0.01,
2.208,-0.84,-0.18,-1.09,0.05,-0.35,0.01,
2.21,-0.80,-0.19,-1.10,0.05,-0.35,0.01,
2.21,-0.80,-0.19,-1.10,0.04,-0.35,0.01,
2.236,-0.80,-0.19,-1.10,0.04,-0.35,0.01,
2.237,-0.69,-0.17,-1.17,0.04,-0.35,0.01,
2.237,-0.69,-0.17,-1.17,0.03,-0.34,0.01,
2.237,-0.69,-0.17,-1.17,0.03,-0.34,0.01,
2.237,-0.69,-0.17,-1.17,0.02,-0.34,0.01,
2.237,-0.68,-0.11,-1.17,0.02,-0.34,0.01,
2.238,-0.68,-0.11,-1.17,0.01,-0.34,0.01,
2.238,-0.68,-0.11,-1.17,0.00,-0.34,0.01,
2.238,-0.70,-0.08,-1.27,0.00,-0.34,0.01,
2.238,-0.70,-0.08,-1.27,-0.01,-0.34,0.01,
2.238,-0.70,-0.08,-1.27,-0.02,-0.34,0.02,
2.239,-0.70,-0.06,-1.28,-0.02,-0.34,0.02,
2.239,-0.70,-0.06,-1.28,-0.03,-0.35,0.02,
2.239,-0.70,-0.06,-1.28,-0.04,-0.35,0.03,
2.239,-0.67,-0.02,-1.33,-0.04,-0.35,0.03,
2.239,-0.67,-0.02,-1.33,-0.05,-0.36,0.03,
2.24,-0.67,-0.02,-1.33,-0.07,-0.37,0.04,
2.24,-0.65,-0.03,-1.37,-0.07,-0.37,0.04,
2.244,-0.65,-0.03,-1.37,-0.08,-0.38,0.04,
2.246,-0.65,-0.03,-1.37,-0.09,-0.39,0.05,
2.246,-0.65,-0.07,-1.40,-0.09,-0.39,0.05,
2.247,-0.65,-0.07,-1.40,-0.11,-0.41,0.05,
2.25,-0.64,-0.13,-1.39,-0.11,-0.41,0.05,
2.25,-0.64,-0.13,-1.39,-0.12,-0.43,0.06,
2.252,-0.64,-0.13,-1.39,-0.13,-0.44,0.07,
2.255,-0.64,-0.13,-1.39,-0.14,-0.45,0.07,
2.255,-0.59,-0.21,-1.40,-0.14,-0.45,0.07,
2.257,-0.59,-0.21,-1.40,-0.14,-0.47,0.08,
2.26,-0.59,-0.21,-1.40,-0.15,-0.48,0.08,
2.26,-0.54,-0.26,-1.34,-0.15,-0.48,0.08,
2.266,-0.54,-0.26,-1.34,-0.16,-0.50,0.08,
2.266,-0.54,-0.26,-1.34,-0.16,-0.51,0.08,
2.266,-0.54,-0.32,-1.36,-0.16,-0.51,0.08,
2.267,-0.54,-0.32,-1.36,-0.16,-0.53,0.09,
2.269,-0.54,-0.32,-1.36,-0.16,-0.54,0.09,
2.27,-0.56,-0.34,-1.31,-0.16,-0.54,0.09,
2.272,-0.56,-0.34,-1.31,-0.16,-0.56,0.09,
2.274,-0.62,-0.36,-1.17,-0.16,-0.56,0.09,
2.275,-0.62,-0.36,-1.17,-0.16,-0.58,0.09,
2.277,-0.62,-0.36,-1.17,-0.15,-0.59,0.09,
2.279,-0.62,-0.36,-1.17,-0.14,-0.60,0.09,
2.28,-0.69,-0.43,-0.95,-0.14,-0.60,0.09,
2.282,-0.69,-0.43,-0.95,-0.13,-0.62,0.09,
2.284,-0.69,-0.43,-0.95,-0.11,-0.63,0.09,
2.284,-0.82,-0.50,-0.66,-0.11,-0.63,0.09,
2.286,-0.82,-0.50,-0.66,-0.09,-0.65,0.08,
2.289,-0.82,-0.50,-0.66,-0.06,-0.67,0.08,
2.289,-0.90,-0.60,-0.35,-0.06,-0.67,0.08,
2.291,-0.90,-0.60,-0.35,-0.03,-0.69,0.07,
2.294,-0.90,-0.60,-0.35,-0.00,-0.70,0.06,
2.295,-0.96,-0.80,-0.00,-0.00,-0.70,0.06,
2.3,-0.96,-0.80,-0.00,0.03,-0.72,0.05,
2.3,-0.96,-0.80,-0.00,0.07,-0.74,0.03,
2.3,-0.96,-1.01,0.42,0.07,-0.74,0.03,
2.302,-0.96,-1.01,0.42,0.11,-0.75,0.02,
2.304,-0.96,-1.01,0.42,0.15,-0.76,-0.00,
2.304,-1.03,-1.20,0.84,0.15,-0.76,-0.00,
2.306,-1.03,-1.20,0.84,0.19,-0.78,-0.02,
2.309,-1.03,-1.20,0.84,0.23,-0.79,-0.04,
2.309,-1.02,-1.43,1.32,0.23,-0.79,-0.04,
2.312,-1.02,-1.43,1.32,0.27,-0.80,-0.06,
2.316,-1.02,-1.43,1.32,0.30,-0.81,-0.08,
2.316,-0.96,-1.74,1.66,0.30,-0.81,-0.08,
2.317,-0.96,-1.74,1.66,0.33,-0.83,-0.10,
2.319,-0.96,-1.74,1.66,0.35,-0.85,-0.12,
2.319,-0.81,-2.05,1.85,0.35,-0.85,-0.12,
2.321,-0.81,-2.05,1.85,0.37,-0.86,-0.15,
2.324,-0.81,-2.05,1.85,0.39,-0.86,-0.17,
2.324,-0.57,-2.31,1.97,0.39,-0.86,-0.17,
2.326,-0.57,-2.31,1.97,0.39,-0.87,-0.19,
2.329,-0.57,-2.31,1.97,0.39,-0.88,-0.21,
2.33,-0.29,-2.61,1.92,0.39,-0.88,-0.21,
2.331,-0.29,-2.61,1.92,0.39,-0.89,-0.24,
2.334,-0.29,-2.61,1.92,0.37,-0.89,-0.27,
2.335,0.02,-2.86,1.87,0.37,-0.89,-0.27,
2.336,0.02,-2.86,1.87,0.36,-0.90,-0.31,
2.339,0.02,-2.86,1.87,0.33,-0.91,-0.34,
2.339,0.32,-3.01,1.80,0.33,-0.91,-0.34,
2.341,0.32,-3.01,1.80,0.30,-0.91,-0.38,
2.345,0.32,-3.01,1.80,0.27,-0.90,-0.42,
2.345,0.44,-3.06,1.58,0.27,-0.90,-0.42,
2.348,0.44,-3.06,1.58,0.24,-0.88,-0.46,
2.351,0.63,-3.05,1.42,0.24,-0.88,-0.46,
2.351,0.63,-3.05,1.42,0.20,-0.86,-0.50,
2.352,0.63,-3.05,1.42,0.17,-0.84,-0.54,
2.354,0.63,-3.05,1.42,0.13,-0.82,-0.58,
2.354,0.86,-2.92,1.35,0.13,-0.82,-0.58,
2.356,0.86,-2.92,1.35,0.09,-0.80,-0.61,
2.359,0.96,-2.56,1.34,0.09,-0.80,-0.61,
2.359,0.96,-2.56,1.34,0.06,-0.77,-0.65,
2.362,0.96,-2.56,1.34,0.03,-0.75,-0.69,
2.365,1.24,-2.09,1.32,0.03,-0.75,-0.69,
2.365,1.24,-2.09,1.32,-0.01,-0.73,-0.73,
2.369,1.24,-2.09,1.32,-0.03,-0.72,-0.77,
2.369,1.24,-2.09,1.32,-0.06,-0.71,-0.81,
2.369,1.48,-1.59,1.34,-0.06,-0.71,-0.81,
2.371,1.48,-1.59,1.34,-0.08,-0.70,-0.85,
2.374,1.59,-0.91,1.29,-0.08,-0.70,-0.85,
2.374,1.59,-0.91,1.29,-0.10,-0.70,-0.89,
2.376,1.59,-0.91,1.29,-0.11,-0.69,-0.92,
2.386,1.59,-0.91,1.29,-0.13,-0.68,-0.95,
2.386,1.66,-0.32,1.14,-0.13,-0.68,-0.95,
2.386,1.66,-0.32,1.14,-0.14,-0.68,-0.98,
2.387,1.77,0.24,1.02,-0.14,-0.68,-0.98,
2.387,1.77,0.24,1.02,-0.15,-0.67,-1.01,
2.387,1.77,0.24,1.02,-0.15,-0.66,-1.04,
2.391,1.77,0.24,1.02,-0.16,-0.67,-1.06,
2.391,1.89,0.73,0.84,-0.16,-0.67,-1.06,
2.392,1.89,0.73,0.84,-0.16,-0.66,-1.08,
2.394,1.89,0.73,0.84,-0.17,-0.66,-1.11,
2.394,2.01,1.18,0.51,-0.17,-0.66,-1.11,
2.398,2.01,1.18,0.51,-0.18,-0.65,-1.13,
2.399,2.05,1.64,0.01,-0.18,-0.65,-1.13,
2.399,2.05,1.64,0.01,-0.19,-0.64,-1.14,
2.405,2.05,1.64,0.01,-0.22,-0.62,-1.16,
2.405,2.12,2.16,-0.44,-0.22,-0.62,-1.16,
2.405,2.12,2.16,-0.44,-0.24,-0.61,-1.17,
2.405,2.12,2.16,-0.44,-0.27,-0.60,-1.18,
2.408,1.84,2.49,-0.60,-0.27,-0.60,-1.18,
2.408,1.84,2.49,-0.60,-0.29,-0.59,-1.18,
2.411,1.84,2.49,-0.60,-0.31,-0.57,-1.18,
2.419,1.73,2.47,-0.50,-0.31,-0.57,-1.18,
2.419,1.73,2.47,-0.50,-0.31,-0.55,-1.17,
2.419,1.73,2.47,-0.50,-0.31,-0.52,-1.17,
2.419,1.73,2.47,-0.50,-0.30,-0.49,-1.17,
2.42,1.77,2.45,-0.44,-0.30,-0.49,-1.17,
2.42,1.77,2.45,-0.44,-0.28,-0.47,-1.16,
2.423,1.77,2.45,-0.44,-0.26,-0.43,-1.16,
2.423,1.62,2.35,-0.63,-0.26,-0.43,-1.16,
2.425,1.62,2.35,-0.63,-0.24,-0.39,-1.15,
2.428,1.62,2.35,-0.63,-0.22,-0.35,-1.13,
2.429,1.32,2.28,-0.96,-0.22,-0.35,-1.13,
2.433,1.32,2.28,-0.96,-0.20,-0.30,-1.12,
2.433,1.32,2.28,-0.96,-0.18,-0.26,-1.09,
2.433,0.99,2.24,-1.22,-0.18,-0.26,-1.09,
2.436,0.99,2.24,-1.22,-0.16,-0.21,-1.06,
2.439,0.99,2.24,-1.22,-0.13,-0.17,-1.03,
2.439,0.70,2.13,-1.33,-0.13,-0.17,-1.03,
2.441,0.70,2.13,-1.33,-0.10,-0.14,-0.99,
2.443,0.41,1.95,-1.28,-0.10,-0.14,-0.99,
2.444,0.41,1.95,-1.28,-0.07,-0.11,-0.95,
2.446,0.41,1.95,-1.28,-0.04,-0.11,-0.91,
2.449,0.10,1.63,-1.22,-0.04,-0.11,-0.91,
2.449,0.10,1.63,-1.22,-0.00,-0.11,-0.87,
2.451,0.10,1.63,-1.22,0.03,-0.11,-0.83,
2.453,-0.29,1.24,-1.21,0.03,-0.11,-0.83,
2.453,-0.29,1.24,-1.21,0.06,-0.13,-0.78,
2.455,-0.29,1.24,-1.21,0.10,-0.14,-0.72,
2.458,-0.29,1.24,-1.21,0.13,-0.17,-0.67,
2.458,-0.59,0.70,-1.15,0.13,-0.17,-0.67,
2.46,-0.59,0.70,-1.15,0.15,-0.19,-0.61,
2.464,-0.59,0.70,-1.15,0.18,-0.19,-0.56,
2.464,-0.91,0.09,-1.09,0.18,-0.19,-0.56,
2.466,-0.91,0.09,-1.09,0.20,-0.20,-0.50,
2.468,-1.08,-0.57,-0.78,0.20,-0.20,-0.50,
2.468,-1.08,-0.57,-0.78,0.22,-0.20,-0.45,
2.47,-1.08,-0.57,-0.78,0.24,-0.21,-0.40,
2.473,-1.08,-0.57,-0.78,0.26,-0.22,-0.36,
2.473,-1.28,-1.07,-0.46,0.26,-0.22,-0.36,
2.477,-1.28,-1.07,-0.46,0.27,-0.23,-0.32,
2.478,-1.30,-1.62,-0.25,0.27,-0.23,-0.32,
2.478,-1.30,-1.62,-0.25,0.29,-0.25,-0.28,
2.483,-1.30,-1.62,-0.25,0.30,-0.27,-0.25,
2.484,-1.30,-1.62,-0.25,0.30,-0.30,-0.23,
2.484,-1.20,-1.98,-0.22,0.30,-0.30,-0.23,
2.485,-1.20,-1.98,-0.22,0.30,-0.33,-0.21,
2.488,-1.20,-1.98,-0.22,0.29,-0.36,-0.19,
2.488,-1.12,-2.18,-0.29,0.29,-0.36,-0.19,
2.49,-1.12,-2.18,-0.29,0.28,-0.39,-0.19,
2.492,-1.12,-2.18,-0.29,0.26,-0.41,-0.19,
2.493,-0.92,-2.38,-0.47,0.26,-0.41,-0.19,
2.495,-0.92,-2.38,-0.47,0.24,-0.43,-0.21,
2.5,-0.92,-2.38,-0.47,0.21,-0.43,-0.22,
2.5,-0.73,-2.36,-0.75,0.21,-0.43,-0.22,
2.501,-0.73,-2.36,-0.75,0.18,-0.42,-0.24,
2.502,-0.73,-2.36,-0.75,0.16,-0.41,-0.27,
2.503,-0.44,-2.15,-0.90,0.16,-0.41,-0.27,
2.505,-0.44,-2.15,-0.90,0.13,-0.40,-0.30,
2.507,-0.44,-2.15,-0.90,0.10,-0.38,-0.33,
2.507,-0.23,-1.77,-0.99,0.10,-0.38,-0.33,
2.51,-0.23,-1.77,-0.99,0.07,-0.36,-0.35,
2.513,-0.23,-1.77,-0.99,0.05,-0.33,-0.38,
2.513,-0.12,-1.32,-1.05,0.05,-0.33,-0.38,
2.515,-0.12,-1.32,-1.05,0.03,-0.31,-0.40,
2.518,-0.12,-1.32,-1.05,0.00,-0.28,-0.43,
2.518,0.06,-0.86,-1.13,0.00,-0.28,-0.43,
2.52,0.06,-0.86,-1.13,-0.02,-0.25,-0.45,
2.522,0.06,-0.86,-1.13,-0.04,-0.23,-0.46,
2.523,0.16,-0.48,-1.11,-0.04,-0.23,-0.46,
2.525,0.16,-0.48,-1.11,-0.06,-0.21,-0.48,
2.527,0.16,-0.48,-1.11,-0.09,-0.19,-0.49,
2.528,0.27,-0.05,-1.20,-0.09,-0.19,-0.49,
2.53,0.27,-0.05,-1.20,-0.11,-0.18,-0.50,
2.533,0.27,-0.05,-1.20,-0.13,-0.17,-0.51,
2.533,0.27,0.34,-1.27,-0.13,-0.17,-0.51,
2.534,0.27,0.34,-1.27,-0.15,-0.15,-0.52,
2.537,0.27,0.34,-1.27,-0.17,-0.14,-0.52,
2.537,0.17,0.70,-1.27,-0.17,-0.14,-0.52,
2.541,0.17,0.70,-1.27,-0.19,-0.13,-0.52,
2.542,0.17,0.70,-1.27,-0.21,-0.12,-0.52,
2.553,0.25,0.89,-1.24,-0.21,-0.12,-0.52,
2.553,0.25,0.89,-1.24,-0.22,-0.11,-0.51,
2.553,0.41,0.93,-1.12,-0.22,-0.11,-0.51,
2.553,0.41,0.93,-1.12,-0.23,-0.11,-0.51,
2.554,0.41,0.93,-1.12,-0.23,-0.10,-0.52,
2.554,0.41,0.93,-1.12,-0.22,-0.09,-0.52,
2.554,0.39,0.86,-0.98,-0.22,-0.09,-0.52,
2.555,0.39,0.86,-0.98,-0.22,-0.08,-0.52,
2.557,0.24,0.86,-0.94,-0.22,-0.08,-0.52,
2.558,0.24,0.86,-0.94,-0.21,-0.07,-0.51,
2.559,0.24,0.86,-0.94,-0.20,-0.08,-0.50,
2.563,0.15,0.98,-0.95,-0.20,-0.08,-0.50,
2.563,0.15,0.98,-0.95,-0.19,-0.09,-0.49,
2.565,0.15,0.98,-0.95,-0.18,-0.09,-0.48,
2.567,0.13,1.06,-1.05,-0.18,-0.09,-0.48,
2.567,0.13,1.06,-1.05,-0.17,-0.10,-0.47,
2.569,0.13,1.06,-1.05,-0.15,-0.10,-0.46,
2.572,0.13,1.06,-1.05,-0.14,-0.10,-0.44,
2.572,0.07,1.14,-1.15,-0.14,-0.10,-0.44,
2.575,0.07,1.14,-1.15,-0.13,-0.10,-0.43,
2.577,0.07,1.14,-1.15,-0.11,-0.09,-0.41,
2.577,-0.11,1.19,-1.23,-0.11,-0.09,-0.41,
2.581,-0.11,1.19,-1.23,-0.10,-0.09,-0.39,
2.583,-0.20,1.13,-1.25,-0.10,-0.09,-0.39,
2.583,-0.20,1.13,-1.25,-0.08,-0.09,-0.37,
2.587,-0.20,1.13,-1.25,-0.07,-0.09,-0.35,
2.588,-0.20,0.99,-1.42,-0.07,-0.09,-0.35,
2.588,-0.20,0.99,-1.42,-0.06,-0.09,-0.33,
2.589,-0.20,0.99,-1.42,-0.05,-0.10,-0.31,
2.592,-0.27,0.83,-1.58,-0.05,-0.10,-0.31,
2.592,-0.27,0.83,-1.58,-0.05,-0.11,-0.29,
2.594,-0.27,0.83,-1.58,-0.04,-0.12,-0.27,
2.599,-0.48,0.67,-1.61,-0.04,-0.12,-0.27,
2.599,-0.48,0.67,-1.61,-0.04,-0.13,-0.24,
2.599,-0.48,0.67,-1.61,-0.03,-0.13,-0.21,
2.602,-0.48,0.67,-1.61,-0.03,-0.14,-0.20,
2.602,-0.36,0.51,-1.75,-0.03,-0.14,-0.20,
2.604,-0.36,0.51,-1.75,-0.03,-0.15,-0.19,
2.606,-0.36,0.51,-1.75,-0.04,-0.16,-0.17,
2.607,-0.53,0.52,-1.84,-0.04,-0.16,-0.17,
2.609,-0.53,0.52,-1.84,-0.04,-0.16,-0.16,
2.611,-0.58,0.59,-1.94,-0.04,-0.16,-0.16,
2.612,-0.58,0.59,-1.94,-0.05,-0.17,-0.14,
2.615,-0.58,0.59,-1.94,-0.05,-0.18,-0.14,
2.618,-0.58,0.59,-1.94,-0.06,-0.19,-0.13,
2.618,-0.53,0.64,-1.92,-0.06,-0.19,-0.13,
2.619,-0.53,0.64,-1.92,-0.06,-0.19,-0.13,
2.622,-0.53,0.64,-1.92,-0.07,-0.19,-0.12,
2.622,-0.48,0.64,-1.93,-0.07,-0.19,-0.12,
2.624,-0.48,0.64,-1.93,-0.07,-0.20,-0.12,
2.627,-0.48,0.64,-1.93,-0.07,-0.20,-0.12,
2.627,-0.41,0.67,-1.89,-0.07,-0.20,-0.12,
2.631,-0.41,0.67,-1.89,-0.07,-0.20,-0.11,
2.632,-0.41,0.67,-1.89,-0.07,-0.20,-0.11,
2.632,-0.35,0.70,-1.84,-0.07,-0.20,-0.11,
2.634,-0.35,0.70,-1.84,-0.08,-0.21,-0.10,
2.637,-0.29,0.75,-1.81,-0.08,-0.21,-0.10,
2.637,-0.29,0.75,-1.81,-0.07,-0.21,-0.10,
2.641,-0.29,0.75,-1.81,-0.07,-0.21,-0.09,
2.641,-0.29,0.75,-1.81,-0.07,-0.22,-0.08,
2.643,-0.23,0.81,-1.79,-0.07,-0.22,-0.08,
2.644,-0.23,0.81,-1.79,-0.07,-0.22,-0.07,
2.648,-0.21,0.90,-1.74,-0.07,-0.22,-0.07,
2.648,-0.21,0.90,-1.74,-0.07,-0.22,-0.06,
2.651,-0.21,0.90,-1.74,-0.06,-0.23,-0.05,
2.652,-0.18,1.01,-1.71,-0.06,-0.23,-0.05,
2.652,-0.18,1.01,-1.71,-0.05,-0.23,-0.04,
2.655,-0.18,1.01,-1.71,-0.05,-0.24,-0.03,
2.657,-0.18,1.01,-1.71,-0.04,-0.24,-0.01,
2.657,-0.14,1.08,-1.75,-0.04,-0.24,-0.01,
2.658,-0.14,1.08,-1.75,-0.04,-0.24,0.00,
2.661,-0.14,1.08,-1.75,-0.03,-0.24,0.02,
2.661,-0.13,1.18,-1.75,-0.03,-0.24,0.02,
2.664,-0.13,1.18,-1.75,-0.03,-0.24,0.03,
2.666,-0.13,1.18,-1.75,-0.03,-0.24,0.05,
2.666,-0.12,1.25,-1.77,-0.03,-0.24,0.05,
2.668,-0.12,1.25,-1.77,-0.02,-0.23,0.07,
2.671,-0.12,1.25,-1.77,-0.02,-0.23,0.08,
2.671,-0.11,1.32,-1.79,-0.02,-0.23,0.08,
2.673,-0.11,1.32,-1.79,-0.02,-0.23,0.10,
2.676,-0.11,1.32,-1.79,-0.02,-0.22,0.12,
2.677,-0.17,1.40,-1.84,-0.02,-0.22,0.12,
2.682,-0.17,1.40,-1.84,-0.02,-0.22,0.14,
2.683,-0.21,1.45,-1.91,-0.02,-0.22,0.14,
2.683,-0.21,1.45,-1.91,-0.02,-0.21,0.15,
2.687,-0.21,1.45,-1.91,-0.03,-0.20,0.17,
2.691,-0.26,1.49,-1.96,-0.03,-0.20,0.17,
2.691,-0.34,1.52,-2.06,-0.03,-0.20,0.17,
2.691,-0.34,1.52,-2.06,-0.04,-0.19,0.18,
2.692,-0.34,1.52,-2.06,-0.05,-0.18,0.19,
2.692,-0.34,1.52,-2.06,-0.06,-0.17,0.21,
2.693,-0.34,1.52,-2.06,-0.08,-0.16,0.22,
2.701,-0.39,1.53,-2.15,-0.08,-0.16,0.22,
2.702,-0.39,1.53,-2.15,-0.10,-0.15,0.23,
2.702,-0.39,1.53,-2.15,-0.12,-0.14,0.24,
2.702,-0.39,1.53,-2.15,-0.14,-0.12,0.25,
2.702,-0.41,1.56,-2.20,-0.14,-0.12,0.25,
2.703,-0.41,1.56,-2.20,-0.16,-0.11,0.26,
2.705,-0.41,1.56,-2.20,-0.18,-0.09,0.28,
2.706,-0.45,1.59,-2.21,-0.18,-0.09,0.28,
2.718,-0.45,1.59,-2.21,-0.20,-0.07,0.29,
2.718,-0.45,1.59,-2.21,-0.22,-0.05,0.30,
2.718,-0.50,1.57,-2.23,-0.22,-0.05,0.30,
2.718,-0.50,1.57,-2.23,-0.24,-0.04,0.31,
2.718,-0.56,1.56,-2.25,-0.24,-0.04,0.31,
2.719,-0.56,1.56,-2.25,-0.26,-0.02,0.32,
2.719,-0.56,1.56,-2.25,-0.28,-0.00,0.33,
2.721,-0.62,1.56,-2.27,-0.28,-0.00,0.33,
2.721,-0.62,1.56,-2.27,-0.30,0.02,0.34,
2.725,-0.62,1.56,-2.27,-0.32,0.03,0.36,
2.726,-0.62,1.56,-2.27,-0.34,0.05,0.37,
2.726,-0.63,1.58,-2.28,-0.34,0.05,0.37,
2.728,-0.63,1.58,-2.28,-0.35,0.07,0.38,
2.731,-0.67,1.60,-2.28,-0.35,0.07,0.38,
2.731,-0.67,1.60,-2.28,-0.36,0.09,0.39,
2.733,-0.67,1.60,-2.28,-0.38,0.11,0.40,
2.736,-0.67,1.62,-2.26,-0.38,0.11,0.40,
2.736,-0.67,1.62,-2.26,-0.39,0.13,0.41,
2.738,-0.67,1.62,-2.26,-0.40,0.15,0.42,
2.741,-0.67,1.62,-2.26,-0.40,0.18,0.43,
2.741,-0.66,1.68,-2.29,-0.40,0.18,0.43,
2.743,-0.66,1.68,-2.29,-0.41,0.20,0.44,
2.745,-0.66,1.68,-2.29,-0.42,0.23,0.45,
2.747,-0.73,1.83,-2.33,-0.42,0.23,0.45,
2.748,-0.73,1.83,-2.33,-0.42,0.26,0.45,
2.75,-0.73,1.83,-2.33,-0.43,0.28,0.46,
2.75,-0.83,1.97,-2.42,-0.43,0.28,0.46,
2.752,-0.83,1.97,-2.42,-0.43,0.31,0.47,
2.755,-0.83,1.97,-2.42,-0.44,0.34,0.48,
2.755,-0.90,2.11,-2.51,-0.44,0.34,0.48,
2.758,-0.90,2.11,-2.51,-0.45,0.36,0.49,
2.76,-0.90,2.11,-2.51,-0.46,0.39,0.50,
2.76,-0.97,2.28,-2.59,-0.46,0.39,0.50,
2.764,-0.97,2.28,-2.59,-0.47,0.41,0.51,
2.766,-1.02,2.44,-2.64,-0.47,0.41,0.51,
2.766,-1.02,2.44,-2.64,-0.48,0.44,0.53,
2.767,-1.02,2.44,-2.64,-0.49,0.46,0.54,
2.77,-1.02,2.44,-2.64,-0.49,0.49,0.55,
2.77,-1.06,2.57,-2.65,-0.49,0.49,0.55,
2.772,-1.06,2.57,-2.65,-0.50,0.51,0.56,
2.775,-1.06,2.57,-2.65,-0.51,0.53,0.57,
2.775,-1.09,2.71,-2.56,-0.51,0.53,0.57,
2.777,-1.09,2.71,-2.56,-0.51,0.55,0.58,
2.781,-1.06,2.94,-2.51,-0.51,0.55,0.58,
2.781,-1.06,2.94,-2.51,-0.52,0.56,0.59,
2.795,-1.06,2.94,-2.51,-0.53,0.58,0.61,
2.795,-1.07,3.14,-2.41,-0.53,0.58,0.61,
2.795,-1.07,3.14,-2.41,-0.53,0.59,0.62,
2.795,-1.07,3.14,-2.41,-0.53,0.61,0.63,
2.795,-1.07,3.29,-2.23,-0.53,0.61,0.63,
2.795,-1.07,3.29,-2.23,-0.53,0.62,0.65,
2.795,-1.07,3.29,-2.23,-0.53,0.63,0.66,
2.796,-1.07,3.29,-2.23,-0.52,0.64,0.67,
2.796,-1.00,3.38,-2.08,-0.52,0.64,0.67,
2.802,-1.00,3.38,-2.08,-0.51,0.65,0.68,
2.803,-1.00,3.38,-2.08,-0.51,0.65,0.69,
2.803,-0.98,3.47,-2.04,-0.51,0.65,0.69,
2.803,-0.98,3.47,-2.04,-0.50,0.66,0.70,
2.805,-0.98,3.47,-2.04,-0.50,0.67,0.71,
2.805,-0.93,3.54,-2.08,-0.50,0.67,0.71,
2.807,-0.93,3.54,-2.08,-0.49,0.68,0.72,
2.81,-0.93,3.54,-2.08,-0.49,0.70,0.72,
2.81,-0.80,3.55,-2.19,-0.49,0.70,0.72,
2.813,-0.80,3.55,-2.19,-0.49,0.71,0.73,
2.815,-0.77,3.48,-2.27,-0.49,0.71,0.73,
2.818,-0.77,3.48,-2.27,-0.49,0.73,0.74,
2.818,-0.77,3.48,-2.27,-0.50,0.74,0.74,
2.82,-0.77,3.48,-2.27,-0.51,0.76,0.75,
2.82,-0.94,3.56,-2.41,-0.51,0.76,0.75,
2.822,-0.94,3.56,-2.41,-0.52,0.78,0.76,
2.824,-0.94,3.56,-2.41,-0.53,0.79,0.77,
2.825,-0.71,3.37,-2.54,-0.53,0.79,0.77,
2.827,-0.71,3.37,-2.54,-0.54,0.79,0.76,
2.83,-0.59,3.19,-2.67,-0.54,0.79,0.76,
2.831,-0.59,3.19,-2.67,-0.56,0.78,0.76,
2.833,-0.59,3.19,-2.67,-0.58,0.77,0.76,
2.836,-0.55,3.08,-2.54,-0.58,0.77,0.76,
2.836,-0.55,3.08,-2.54,-0.60,0.77,0.76,
2.837,-0.55,3.08,-2.54,-0.61,0.76,0.75,
2.84,-0.29,2.83,-2.45,-0.61,0.76,0.75,
2.841,-0.29,2.83,-2.45,-0.62,0.76,0.74,
2.842,-0.29,2.83,-2.45,-0.63,0.75,0.73,
2.845,-0.06,2.46,-2.45,-0.63,0.75,0.73,
2.845,-0.06,2.46,-2.45,-0.63,0.73,0.72,
2.848,-0.06,2.46,-2.45,-0.64,0.72,0.70,
2.852,0.23,2.12,-2.36,-0.64,0.72,0.70,
2.852,0.23,2.12,-2.36,-0.64,0.70,0.69,
2.852,0.23,2.12,-2.36,-0.64,0.68,0.67,
2.855,0.44,1.79,-2.33,-0.64,0.68,0.67,
2.855,0.44,1.79,-2.33,-0.63,0.67,0.65,
2.857,0.44,1.79,-2.33,-0.63,0.65,0.63,
2.859,0.44,1.79,-2.33,-0.62,0.63,0.61,
2.86,0.78,1.38,-2.34,-0.62,0.63,0.61,
2.862,0.78,1.38,-2.34,-0.61,0.61,0.59,
2.865,1.22,1.05,-2.49,-0.61,0.61,0.59,
2.866,1.22,1.05,-2.49,-0.61,0.60,0.56,
2.867,1.22,1.05,-2.49,-0.61,0.57,0.54,
2.869,1.80,0.82,-2.56,-0.61,0.57,0.54,
2.869,1.80,0.82,-2.56,-0.61,0.55,0.51,
2.872,1.80,0.82,-2.56,-0.60,0.54,0.48,
2.882,2.29,0.64,-2.53,-0.60,0.54,0.48,
2.882,2.29,0.64,-2.53,-0.60,0.53,0.45,
2.882,2.29,0.64,-2.53,-0.60,0.53,0.42,
2.882,2.70,0.51,-2.43,-0.60,0.53,0.42,
2.883,2.70,0.51,-2.43,-0.59,0.53,0.39,
2.883,2.70,0.51,-2.43,-0.58,0.53,0.37,
2.894,2.70,0.51,-2.43,-0.57,0.52,0.34,
2.894,2.80,0.39,-2.16,-0.57,0.52,0.34,
2.894,2.80,0.39,-2.16,-0.56,0.52,0.32,
2.895,2.80,0.39,-2.16,-0.54,0.50,0.29,
2.895,3.05,0.20,-1.90,-0.54,0.50,0.29,
2.895,3.05,0.20,-1.90,-0.52,0.49,0.25,
2.895,3.05,0.20,-1.90,-0.50,0.47,0.22,
2.895,3.29,-0.06,-1.72,-0.50,0.47,0.22,
2.901,3.29,-0.06,-1.72,-0.49,0.45,0.19,
2.902,3.29,-0.06,-1.72,-0.47,0.42,0.15,
2.902,3.54,-0.06,-1.54,-0.47,0.42,0.15,
2.902,3.54,-0.06,-1.54,-0.45,0.41,0.11,
2.904,3.54,-0.06,-1.54,-0.44,0.39,0.06,
2.904,3.87,-0.15,-1.25,-0.44,0.39,0.06,
2.906,3.87,-0.15,-1.25,-0.41,0.37,0.02,
2.909,3.74,0.04,-0.80,-0.41,0.37,0.02,
2.909,3.74,0.04,-0.80,-0.40,0.34,-0.02,
2.911,3.74,0.04,-0.80,-0.37,0.33,-0.05,
2.914,3.77,0.18,-0.08,-0.37,0.33,-0.05,
2.914,3.77,0.18,-0.08,-0.34,0.30,-0.08,
2.918,3.77,0.18,-0.08,-0.30,0.25,-0.12,
2.919,3.77,0.18,-0.08,-0.26,0.19,-0.15,
2.919,3.87,0.20,0.90,-0.26,0.19,-0.15,
2.921,3.87,0.20,0.90,-0.21,0.10,-0.18,
2.924,3.87,0.20,0.90,-0.16,-0.02,-0.22,
2.924,4.16,0.29,1.92,-0.16,-0.02,-0.22,
2.926,4.16,0.29,1.92,-0.10,-0.15,-0.26,
2.929,4.16,0.29,1.92,-0.03,-0.28,-0.30,
2.929,4.38,0.36,2.75,-0.03,-0.28,-0.30,
2.932,4.38,0.36,2.75,0.03,-0.43,-0.34,
2.934,4.38,0.36,2.75,0.10,-0.57,-0.39,
2.934,4.46,0.47,3.20,0.10,-0.57,-0.39,
2.936,4.46,0.47,3.20,0.17,-0.69,-0.43,
2.939,4.46,0.47,3.20,0.24,-0.78,-0.46,
2.939,4.42,0.27,3.84,0.24,-0.78,-0.46,
2.942,4.42,0.27,3.84,0.30,-0.88,-0.50,
2.944,4.42,0.27,3.84,0.36,-0.97,-0.53,
2.945,4.41,0.28,3.98,0.36,-0.97,-0.53,
2.949,4.41,0.28,3.98,0.42,-1.04,-0.55,
2.949,4.41,0.28,3.98,0.47,-1.12,-0.57,
2.949,4.30,0.02,4.43,0.47,-1.12,-0.57,
2.951,4.30,0.02,4.43,0.51,-1.18,-0.58,
2.953,4.30,0.02,4.43,0.55,-1.21,-0.59,
2.953,4.55,-0.54,4.57,0.55,-1.21,-0.59,
2.956,4.55,-0.54,4.57,0.59,-1.23,-0.59,
2.958,4.55,-0.54,4.57,0.61,-1.23,-0.57,
2.958,3.99,-1.40,4.55,0.61,-1.23,-0.57,
2.961,3.99,-1.40,4.55,0.63,-1.20,-0.55,
2.964,3.54,-2.42,4.44,0.63,-1.20,-0.55,
2.964,3.54,-2.42,4.44,0.65,-1.14,-0.53,
2.966,3.54,-2.42,4.44,0.67,-1.07,-0.51,
2.968,3.54,-2.42,4.44,0.68,-1.01,-0.50,
2.968,2.84,-3.19,4.50,0.68,-1.01,-0.50,
2.971,2.84,-3.19,4.50,0.69,-0.96,-0.49,
2.973,2.84,-3.19,4.50,0.69,-0.93,-0.47,
2.973,2.19,-3.73,4.91,0.69,-0.93,-0.47,
2.976,2.19,-3.73,4.91,0.69,-0.93,-0.45,
2.978,2.19,-3.73,4.91,0.68,-0.98,-0.44,
2.978,1.51,-4.24,5.90,0.68,-0.98,-0.44,
2.981,1.51,-4.24,5.90,0.67,-1.08,-0.42,
2.988,1.51,-4.24,5.90,0.65,-1.22,-0.40,
2.988,1.15,-5.04,6.98,0.65,-1.22,-0.40,
2.988,1.15,-5.04,6.98,0.64,-1.37,-0.41,
2.989,1.15,-5.04,6.98,0.65,-1.50,-0.42,
2.989,1.38,-6.03,8.43,0.65,-1.50,-0.42,
2.991,1.38,-6.03,8.43,0.68,-1.57,-0.47,
2.993,1.38,-6.03,8.43,0.72,-1.61,-0.51,
2.993,0.96,-6.89,9.52,0.72,-1.61,-0.51,
2.995,0.96,-6.89,9.52,0.77,-1.60,-0.55,
3.0,-0.46,-8.20,8.73,0.77,-1.60,-0.55,
3.001,-0.46,-8.20,8.73,0.81,-1.51,-0.57,
3.001,-0.46,-8.20,8.73,0.80,-1.32,-0.58,
3.003,-0.46,-8.20,8.73,0.74,-1.03,-0.60,
3.003,-0.77,-9.64,5.70,0.74,-1.03,-0.60,
3.005,-0.77,-9.64,5.70,0.65,-0.68,-0.62,
3.008,-0.77,-9.64,5.70,0.53,-0.28,-0.62,
3.008,-1.47,-10.37,2.87,0.53,-0.28,-0.62,
3.01,-1.47,-10.37,2.87,0.40,0.11,-0.59,
3.013,-1.47,-10.37,2.87,0.26,0.46,-0.56,
3.013,-2.24,-10.59,1.73,0.26,0.46,-0.56,
3.02,-2.24,-10.59,1.73,0.13,0.76,-0.51,
3.02,-2.24,-10.59,1.73,0.00,1.01,-0.44,
3.02,-3.23,-10.43,0.79,0.00,1.01,-0.44,
3.02,-3.23,-10.43,0.79,-0.14,1.17,-0.36,
3.023,-3.23,-10.43,0.79,-0.29,1.24,-0.26,
3.023,-4.13,-10.04,-0.44,-0.29,1.24,-0.26,
3.025,-4.13,-10.04,-0.44,-0.46,1.22,-0.16,
3.028,-4.13,-10.04,-0.44,-0.63,1.11,-0.05,
3.028,-4.92,-9.46,-1.53,-0.63,1.11,-0.05,
3.03,-4.92,-9.46,-1.53,-0.80,0.95,0.07,
3.033,-4.92,-9.46,-1.53,-0.96,0.79,0.18,
3.033,-5.44,-8.30,-2.30,-0.96,0.79,0.18,
3.042,-5.44,-8.30,-2.30,-1.09,0.63,0.29,
3.042,-5.44,-8.30,-2.30,-1.21,0.48,0.38,
3.055,-4.68,-6.32,-2.74,-1.21,0.48,0.38,
3.055,-4.68,-6.32,-2.74,-1.30,0.35,0.44,
3.055,-2.87,-4.07,-3.15,-1.30,0.35,0.44,
3.056,-2.87,-4.07,-3.15,-1.38,0.24,0.48,
3.056,-2.87,-4.07,-3.15,-1.44,0.13,0.49,
3.056,-2.87,-4.07,-3.15,-1.46,0.01,0.50,
3.056,-1.81,-2.65,-2.51,-1.46,0.01,0.50,
3.056,-1.81,-2.65,-2.51,-1.45,-0.12,0.51,
3.056,-1.81,-2.65,-2.51,-1.41,-0.24,0.52,
3.057,-1.05,-1.89,-1.26,-1.41,-0.24,0.52,
3.057,-1.05,-1.89,-1.26,-1.34,-0.37,0.52,
3.058,-1.05,-1.89,-1.26,-1.25,-0.48,0.51,
3.059,-0.30,-1.37,0.05,-1.25,-0.48,0.51,
3.06,-0.30,-1.37,0.05,-1.13,-0.57,0.51,
3.062,-0.30,-1.37,0.05,-1.01,-0.64,0.50,
3.063,0.41,-1.16,0.80,-1.01,-0.64,0.50,
3.066,0.41,-1.16,0.80,-0.87,-0.69,0.49,
3.068,0.41,-1.16,0.80,-0.74,-0.73,0.48,
3.068,1.17,-1.07,1.39,-0.74,-0.73,0.48,
3.07,1.17,-1.07,1.39,-0.60,-0.75,0.45,
3.072,1.17,-1.07,1.39,-0.46,-0.76,0.43,
3.073,1.61,-1.01,1.73,-0.46,-0.76,0.43,
3.075,1.61,-1.01,1.73,-0.33,-0.76,0.41,
3.077,1.61,-1.01,1.73,-0.20,-0.75,0.38,
3.077,1.57,-1.07,2.00,-0.20,-0.75,0.38,
3.084,1.57,-1.07,2.00,-0.07,-0.72,0.35,
3.084,1.57,-1.07,2.00,0.05,-0.69,0.33,
3.084,1.25,-1.22,2.26,0.05,-0.69,0.33,
3.091,1.25,-1.22,2.26,0.17,-0.65,0.29,
3.091,1.25,-1.22,2.26,0.27,-0.61,0.26,
3.091,0.84,-1.40,2.36,0.27,-0.61,0.26,
3.092,0.84,-1.40,2.36,0.37,-0.56,0.23,
3.092,0.84,-1.40,2.36,0.46,-0.52,0.19,
3.092,0.39,-1.60,2.35,0.46,-0.52,0.19,
3.095,0.39,-1.60,2.35,0.53,-0.47,0.15,
3.098,0.07,-1.75,2.35,0.53,-0.47,0.15,
3.098,0.07,-1.75,2.35,0.59,-0.43,0.11,
3.1,0.07,-1.75,2.35,0.64,-0.39,0.08,
3.102,0.07,-1.75,2.35,0.67,-0.34,0.04,
3.102,-0.11,-1.84,2.38,0.67,-0.34,0.04,
3.104,-0.11,-1.84,2.38,0.70,-0.30,0.01,
3.107,-0.11,-1.84,2.38,0.71,-0.26,-0.02,
3.107,-0.33,-1.79,2.21,0.71,-0.26,-0.02,
3.109,-0.33,-1.79,2.21,0.70,-0.22,-0.04,
3.113,-0.33,-1.79,2.21,0.68,-0.19,-0.05,
3.113,-0.63,-1.41,2.01,0.68,-0.19,-0.05,
3.116,-0.63,-1.41,2.01,0.65,-0.16,-0.07,
3.119,-0.63,-1.41,2.01,0.61,-0.14,-0.08,
3.119,-0.87,-0.96,1.75,0.61,-0.14,-0.08,
3.121,-0.87,-0.96,1.75,0.56,-0.13,-0.08,
3.123,-0.87,-0.96,1.75,0.50,-0.12,-0.09,
3.123,-1.03,-0.42,1.60,0.50,-0.12,-0.09,
3.127,-1.28,0.09,1.42,0.50,-0.12,-0.09,
3.127,-1.28,0.09,1.42,0.44,-0.12,-0.09,
3.128,-1.28,0.09,1.42,0.37,-0.12,-0.08,
3.129,-1.28,0.09,1.42,0.30,-0.13,-0.08,
3.133,-1.40,0.49,1.30,0.30,-0.13,-0.08,
3.134,-1.40,0.49,1.30,0.23,-0.14,-0.07,
3.135,-1.40,0.49,1.30,0.16,-0.16,-0.07,
3.137,-1.40,0.49,1.30,0.10,-0.17,-0.06,
3.137,-1.46,0.80,1.16,0.10,-0.17,-0.06,
3.139,-1.46,0.80,1.16,0.04,-0.18,-0.05,
3.142,-1.46,0.80,1.16,-0.02,-0.19,-0.04,
3.145,-1.35,1.00,0.99,-0.02,-0.19,-0.04,
3.145,-1.35,1.00,0.99,-0.06,-0.19,-0.04,
3.148,-1.13,0.99,0.80,-0.06,-0.19,-0.04,
3.149,-1.13,0.99,0.80,-0.11,-0.18,-0.03,
3.15,-1.13,0.99,0.80,-0.13,-0.16,-0.03,
3.152,-1.13,0.99,0.80,-0.15,-0.12,-0.03,
3.152,-0.93,0.94,0.70,-0.15,-0.12,-0.03,
3.154,-0.93,0.94,0.70,-0.15,-0.08,-0.03,
3.157,-0.93,0.94,0.70,-0.15,-0.03,-0.04,
3.157,-0.81,0.86,0.50,-0.15,-0.03,-0.04,
3.159,-0.81,0.86,0.50,-0.14,0.01,-0.04,
3.162,-0.81,0.93,0.15,-0.14,0.01,-0.04,
3.162,-0.81,0.93,0.15,-0.12,0.06,-0.05,
3.166,-0.81,0.93,0.15,-0.11,0.10,-0.05,
3.167,-0.87,1.05,-0.24,-0.11,0.10,-0.05,
3.167,-0.87,1.05,-0.24,-0.09,0.14,-0.05,
3.169,-0.87,1.05,-0.24,-0.08,0.17,-0.06,
3.174,-0.87,1.05,-0.24,-0.07,0.19,-0.06,
3.175,-0.87,1.05,-0.24,-0.06,0.21,-0.06,
3.175,-0.93,1.20,-0.60,-0.06,0.21,-0.06,
3.177,-0.93,1.20,-0.60,-0.06,0.23,-0.06,
3.177,-1.00,1.29,-0.88,-0.06,0.23,-0.06,
3.179,-1.00,1.29,-0.88,-0.06,0.24,-0.06,
3.182,-1.00,1.29,-0.88,-0.07,0.25,-0.06,
3.183,-1.07,1.30,-1.00,-0.07,0.25,-0.06,
3.184,-1.07,1.30,-1.00,-0.07,0.26,-0.07,
3.187,-1.07,1.30,-1.00,-0.08,0.26,-0.07,
3.187,-1.11,1.36,-1.03,-0.08,0.26,-0.07,
3.189,-1.11,1.36,-1.03,-0.08,0.27,-0.07,
3.194,-1.11,1.36,-1.03,-0.08,0.28,-0.06,
3.194,-1.17,1.45,-0.99,-0.08,0.28,-0.06,
3.195,-1.17,1.45,-0.99,-0.08,0.29,-0.07,
3.201,-1.15,1.48,-0.89,-0.08,0.29,-0.07,
3.202,-1.15,1.48,-0.89,-0.09,0.29,-0.07,
3.202,-1.15,1.48,-0.89,-0.09,0.31,-0.07,
3.202,-1.15,1.48,-0.89,-0.09,0.31,-0.08,
3.202,-1.10,1.53,-0.76,-0.09,0.31,-0.08,
3.212,-1.10,1.53,-0.76,-0.08,0.31,-0.09,
3.212,-1.10,1.53,-0.76,-0.08,0.31,-0.10,
3.212,-1.07,1.59,-0.62,-0.08,0.31,-0.10,
3.213,-1.07,1.59,-0.62,-0.07,0.31,-0.11,
3.213,-1.07,1.59,-0.62,-0.07,0.30,-0.13,
3.213,-1.00,1.80,-0.56,-0.07,0.30,-0.13,
3.215,-1.00,1.80,-0.56,-0.06,0.28,-0.14,
3.217,-1.00,1.80,-0.56,-0.05,0.27,-0.15,
3.217,-0.98,1.93,-0.52,-0.05,0.27,-0.15,
3.219,-0.98,1.93,-0.52,-0.04,0.25,-0.16,
3.221,-0.98,1.93,-0.52,-0.04,0.23,-0.17,
3.221,-0.96,2.19,-0.52,-0.04,0.23,-0.17,
3.223,-0.96,2.19,-0.52,-0.03,0.21,-0.18,
3.226,-0.96,2.19,-0.52,-0.03,0.20,-0.18,
3.226,-0.94,2.47,-0.56,-0.03,0.20,-0.18,
3.231,-0.94,2.47,-0.56,-0.02,0.18,-0.19,
3.232,-0.91,2.71,-0.57,-0.02,0.18,-0.19,
3.233,-0.91,2.71,-0.57,-0.02,0.16,-0.19,
3.233,-0.91,2.71,-0.57,-0.01,0.14,-0.19,
3.236,-0.91,2.71,-0.57,-0.01,0.13,-0.19,
3.236,-0.88,2.94,-0.60,-0.01,0.13,-0.19,
3.238,-0.88,2.94,-0.60,-0.01,0.11,-0.19,
3.242,-0.88,2.94,-0.60,-0.00,0.10,-0.20,
3.242,-0.73,3.14,-0.70,-0.00,0.10,-0.20,
3.243,-0.73,3.14,-0.70,-0.00,0.09,-0.21,
3.246,-0.73,3.14,-0.70,-0.01,0.08,-0.21,
3.246,-0.84,3.39,-0.81,-0.01,0.08,-0.21,
3.249,-0.84,3.39,-0.81,-0.01,0.08,-0.21,
3.251,-0.84,3.39,-0.81,-0.01,0.08,-0.20,
3.251,-0.85,3.64,-0.98,-0.01,0.08,-0.20,
3.253,-0.85,3.64,-0.98,-0.02,0.07,-0.20,
3.256,-0.85,3.64,-0.98,-0.03,0.06,-0.20,
3.256,-0.84,3.81,-1.12,-0.03,0.06,-0.20,
3.258,-0.84,3.81,-1.12,-0.05,0.06,-0.19,
3.261,-0.84,3.81,-1.12,-0.06,0.06,-0.20,
3.261,-0.80,3.95,-1.23,-0.06,0.06,-0.20,
3.264,-0.80,3.95,-1.23,-0.07,0.06,-0.20,
3.266,-0.83,4.09,-1.28,-0.07,0.06,-0.20,
3.267,-0.83,4.09,-1.28,-0.08,0.05,-0.20,
3.268,-0.83,4.09,-1.28,-0.10,0.05,-0.20,
3.271,-0.83,4.09,-1.28,-0.11,0.04,-0.20,
3.271,-0.82,4.20,-1.32,-0.11,0.04,-0.20,
3.273,-0.82,4.20,-1.32,-0.12,0.03,-0.20,
3.277,-0.78,4.32,-1.37,-0.12,0.03,-0.20,
3.277,-0.78,4.32,-1.37,-0.13,0.03,-0.20,
3.279,-0.78,4.32,-1.37,-0.15,0.02,-0.20,
3.282,-0.72,4.44,-1.41,-0.15,0.02,-0.20,
3.289,-0.72,4.44,-1.41,-0.16,0.01,-0.21,
3.289,-0.72,4.44,-1.41,-0.17,0.01,-0.21,
3.289,-0.72,4.44,-1.41,-0.18,0.01,-0.21,
3.289,-0.67,4.46,-1.46,-0.18,0.01,-0.21,
3.29,-0.67,4.46,-1.46,-0.19,0.01,-0.20,
3.291,-0.67,4.46,-1.46,-0.20,0.01,-0.21,
3.291,-0.47,4.45,-1.49,-0.20,0.01,-0.21,
3.294,-0.47,4.45,-1.49,-0.21,0.01,-0.21,
3.296,-0.47,4.45,-1.49,-0.23,0.01,-0.22,
3.296,-0.44,4.48,-1.55,-0.23,0.01,-0.22,
3.298,-0.44,4.48,-1.55,-0.24,0.02,-0.22,
3.301,-0.43,4.50,-1.61,-0.24,0.02,-0.22,
3.301,-0.43,4.50,-1.61,-0.25,0.03,-0.22,
3.303,-0.43,4.50,-1.61,-0.26,0.04,-0.22,
3.305,-0.43,4.50,-1.61,-0.27,0.05,-0.23,
3.305,-0.32,4.47,-1.63,-0.27,0.05,-0.23,
3.308,-0.32,4.47,-1.63,-0.28,0.07,-0.23,
3.31,-0.32,4.47,-1.63,-0.30,0.07,-0.23,
3.31,-0.32,4.39,-1.68,-0.30,0.07,-0.23,
3.313,-0.32,4.39,-1.68,-0.31,0.08,-0.23,
3.317,-0.35,4.34,-1.73,-0.31,0.08,-0.23,
3.317,-0.35,4.34,-1.73,-0.32,0.09,-0.23,
3.318,-0.35,4.34,-1.73,-0.33,0.10,-0.23,
3.32,-0.35,4.34,-1.73,-0.34,0.11,-0.23,
3.321,-0.53,4.28,-1.79,-0.34,0.11,-0.23,
3.323,-0.53,4.28,-1.79,-0.36,0.12,-0.22,
3.326,-0.53,4.28,-1.79,-0.37,0.12,-0.22,
3.326,-0.74,4.16,-1.83,-0.37,0.12,-0.22,
3.328,-0.74,4.16,-1.83,-0.38,0.14,-0.21,
3.333,-0.74,4.16,-1.83,-0.38,0.14,-0.20,
3.333,-0.95,4.06,-1.84,-0.38,0.14,-0.20,
3.333,-0.95,4.06,-1.84,-0.38,0.15,-0.20,
3.335,-0.95,4.06,-1.84,-0.38,0.16,-0.19,
3.335,-1.24,3.90,-1.79,-0.38,0.16,-0.19,
3.337,-1.24,3.90,-1.79,-0.38,0.15,-0.18,
3.34,-1.24,3.90,-1.79,-0.38,0.14,-0.18,
3.34,-1.55,3.58,-1.72,-0.38,0.14,-0.18,
3.342,-1.55,3.58,-1.72,-0.37,0.12,-0.17,
3.345,-1.55,3.58,-1.72,-0.36,0.11,-0.17,
3.345,-1.78,3.20,-1.56,-0.36,0.11,-0.17,
3.348,-1.78,3.20,-1.56,-0.34,0.09,-0.17,
3.35,-1.78,3.20,-1.56,-0.31,0.08,-0.16,
3.351,-2.04,2.69,-1.32,-0.31,0.08,-0.16,
3.352,-2.04,2.69,-1.32,-0.27,0.06,-0.16,
3.355,-2.04,2.69,-1.32,-0.23,0.04,-0.16,
3.355,-2.28,2.20,-1.13,-0.23,0.04,-0.16,
3.357,-2.28,2.20,-1.13,-0.19,0.01,-0.17,
3.36,-2.28,2.20,-1.13,-0.15,-0.02,-0.17,
3.36,-2.43,1.71,-0.96,-0.15,-0.02,-0.17,
3.362,-2.43,1.71,-0.96,-0.11,-0.04,-0.18,
3.365,-2.49,1.30,-0.81,-0.11,-0.04,-0.18,
3.366,-2.49,1.30,-0.81,-0.07,-0.08,-0.18,
3.367,-2.49,1.30,-0.81,-0.03,-0.11,-0.19,
3.38,-2.49,1.30,-0.81,0.01,-0.14,-0.20,
3.38,-2.52,0.92,-0.73,0.01,-0.14,-0.20,
3.38,-2.52,0.92,-0.73,0.04,-0.18,-0.21,
3.381,-2.52,0.92,-0.73,0.06,-0.20,-0.21,
3.381,-2.46,0.56,-0.73,0.06,-0.20,-0.21,
3.381,-2.46,0.56,-0.73,0.08,-0.23,-0.22,
3.381,-2.46,0.56,-0.73,0.09,-0.25,-0.22,
3.382,-2.36,0.24,-0.78,0.09,-0.25,-0.22,
3.387,-2.36,0.24,-0.78,0.10,-0.27,-0.22,
3.388,-2.24,0.04,-0.86,0.10,-0.27,-0.22,
3.394,-2.24,0.04,-0.86,0.09,-0.29,-0.22,
3.394,-2.24,0.04,-0.86,0.09,-0.29,-0.22,
3.394,-2.11,-0.06,-0.82,0.09,-0.29,-0.22,
3.395,-2.11,-0.06,-0.82,0.07,-0.29,-0.22,
3.395,-2.11,-0.06,-0.82,0.06,-0.29,-0.22,
3.395,-2.11,-0.06,-0.82,0.04,-0.29,-0.22,
3.395,-2.01,-0.12,-0.53,0.04,-0.29,-0.22,
3.407,-2.01,-0.12,-0.53,0.03,-0.28,-0.22,
3.407,-2.03,-0.17,-0.10,0.03,-0.28,-0.22,
3.407,-2.03,-0.17,-0.10,0.02,-0.27,-0.21,
3.407,-2.03,-0.17,-0.10,0.02,-0.26,-0.20,
3.408,-2.03,-0.17,-0.10,0.02,-0.25,-0.19,
3.408,-2.14,0.02,0.41,0.02,-0.25,-0.19,
3.408,-2.14,0.02,0.41,0.02,-0.26,-0.17,
3.41,-2.20,0.39,1.03,0.02,-0.26,-0.17,
3.41,-2.20,0.39,1.03,0.02,-0.27,-0.16,
3.412,-2.20,0.39,1.03,0.03,-0.29,-0.14,
3.415,-2.15,0.73,1.87,0.03,-0.29,-0.14,
3.415,-2.15,0.73,1.87,0.03,-0.32,-0.12,
3.419,-2.15,0.73,1.87,0.04,-0.37,-0.10,
3.42,-2.15,0.73,1.87,0.04,-0.43,-0.08,
3.42,-1.80,0.94,2.81,0.04,-0.43,-0.08,
3.422,-1.80,0.94,2.81,0.05,-0.49,-0.07,
3.424,-1.80,0.94,2.81,0.06,-0.56,-0.05,
3.424,-1.37,0.89,3.71,0.06,-0.56,-0.05,
3.427,-1.37,0.89,3.71,0.07,-0.62,-0.03,
3.429,-1.37,0.89,3.71,0.08,-0.68,-0.02,
3.429,-0.89,0.44,4.66,0.08,-0.68,-0.02,
3.433,-0.89,0.44,4.66,0.11,-0.73,-0.01,
3.435,-0.06,-0.32,5.42,0.11,-0.73,-0.01,
3.436,-0.06,-0.32,5.42,0.14,-0.76,-0.02,
3.439,-0.06,-0.32,5.42,0.17,-0.78,-0.04,
3.44,1.09,-0.93,5.97,0.17,-0.78,-0.04,
3.44,1.09,-0.93,5.97,0.22,-0.78,-0.08,
3.443,1.09,-0.93,5.97,0.26,-0.77,-0.13,
3.445,1.89,-1.70,6.24,0.26,-0.77,-0.13,
3.445,1.89,-1.70,6.24,0.31,-0.76,-0.18,
3.45,1.89,-1.70,6.24,0.37,-0.73,-0.25,
3.452,1.89,-1.70,6.24,0.42,-0.69,-0.31,
3.453,2.71,-2.30,6.24,0.42,-0.69,-0.31,
3.453,2.71,-2.30,6.24,0.47,-0.63,-0.39,
3.455,3.27,-2.79,5.91,0.47,-0.63,-0.39,
3.455,3.27,-2.79,5.91,0.53,-0.55,-0.46,
3.457,3.27,-2.79,5.91,0.57,-0.46,-0.55,
3.459,3.27,-2.79,5.91,0.61,-0.37,-0.64,
3.46,4.29,-3.42,5.13,0.61,-0.37,-0.64,
3.462,4.29,-3.42,5.13,0.64,-0.28,-0.75,
3.466,5.11,-4.16,4.16,0.64,-0.28,-0.75,
3.466,5.11,-4.16,4.16,0.66,-0.19,-0.86,
3.47,5.11,-4.16,4.16,0.67,-0.11,-0.96,
3.47,5.11,-4.16,4.16,0.68,-0.03,-1.05,
3.47,5.54,-5.05,3.07,0.68,-0.03,-1.05,
3.472,5.54,-5.05,3.07,0.68,0.07,-1.12,
3.474,5.54,-5.05,3.07,0.69,0.20,-1.17,
3.475,5.51,-5.81,1.84,0.69,0.20,-1.17,
3.477,5.51,-5.81,1.84,0.69,0.34,-1.21,
3.48,5.55,-6.76,0.60,0.69,0.34,-1.21,
3.48,5.55,-6.76,0.60,0.68,0.49,-1.22,
3.483,5.55,-6.76,0.60,0.67,0.64,-1.23,
3.494,5.55,-6.76,0.60,0.63,0.78,-1.23,
3.494,5.79,-7.62,-0.55,0.63,0.78,-1.23,
3.494,5.79,-7.62,-0.55,0.59,0.88,-1.22,
3.494,5.79,-7.62,-0.55,0.53,0.94,-1.21,
3.495,5.79,-7.62,-0.55,0.45,0.97,-1.18,
3.495,5.56,-8.36,-1.21,0.45,0.97,-1.18,
3.496,5.09,-9.10,-1.33,0.45,0.97,-1.18,
3.496,5.09,-9.10,-1.33,0.36,0.97,-1.15,
3.496,5.09,-9.10,-1.33,0.26,0.94,-1.11,
3.506,5.09,-9.10,-1.33,0.15,0.89,-1.07,
3.506,4.78,-10.12,-1.10,0.15,0.89,-1.07,
3.506,4.40,-10.81,-0.66,0.15,0.89,-1.07,
3.507,4.40,-10.81,-0.66,0.05,0.83,-1.01,
3.507,4.40,-10.81,-0.66,-0.05,0.76,-0.95,
3.509,4.40,-10.81,-0.66,-0.13,0.70,-0.88,
3.509,4.40,-10.81,-0.66,-0.21,0.65,-0.79,
3.509,3.97,-10.91,-0.46,-0.21,0.65,-0.79,
3.512,3.97,-10.91,-0.46,-0.27,0.60,-0.69,
3.515,3.97,-10.91,-0.46,-0.31,0.54,-0.58,
3.515,3.28,-10.52,-0.31,-0.31,0.54,-0.58,
3.519,3.28,-10.52,-0.31,-0.34,0.49,-0.46,
3.52,2.43,-9.56,-0.51,-0.34,0.49,-0.46,
3.52,2.43,-9.56,-0.51,-0.35,0.43,-0.32,
3.521,2.43,-9.56,-0.51,-0.34,0.35,-0.18,
3.525,2.43,-9.56,-0.51,-0.32,0.25,-0.04,
3.525,1.47,-8.22,-0.54,-0.32,0.25,-0.04,
3.526,1.47,-8.22,-0.54,-0.28,0.14,0.07,
3.529,0.33,-6.85,-0.37,-0.28,0.14,0.07,
3.529,0.33,-6.85,-0.37,-0.22,-0.00,0.15,
3.533,0.33,-6.85,-0.37,-0.16,-0.16,0.21,
3.533,0.33,-6.85,-0.37,-0.09,-0.32,0.25,
3.557,-0.51,-5.56,-0.25,-0.09,-0.32,0.25,
3.557,-0.51,-5.56,-0.25,-0.01,-0.47,0.28,
3.557,-0.51,-5.56,-0.25,0.06,-0.60,0.29,
3.557,-0.68,-4.48,-0.33,0.06,-0.60,0.29,
3.557,-0.68,-4.48,-0.33,0.13,-0.71,0.28,
3.558,-0.68,-4.48,-0.33,0.20,-0.79,0.25,
3.558,-0.45,-3.66,-0.30,0.20,-0.79,0.25,
3.558,-0.45,-3.66,-0.30,0.27,-0.84,0.22,
3.558,-0.45,-3.66,-0.30,0.34,-0.86,0.18,
3.559,0.02,-2.82,-0.15,0.34,-0.86,0.18,
3.559,0.02,-2.82,-0.15,0.41,-0.85,0.13,
3.559,0.02,-2.82,-0.15,0.48,-0.81,0.09,
3.559,0.43,-1.90,-0.03,0.48,-0.81,0.09,
3.559,0.43,-1.90,-0.03,0.53,-0.77,0.04,
3.56,0.43,-1.90,-0.03,0.58,-0.71,-0.01,
3.56,0.81,-0.88,0.07,0.58,-0.71,-0.01,
3.561,0.81,-0.88,0.07,0.61,-0.66,-0.05,
3.565,1.17,0.03,0.10,0.61,-0.66,-0.05,
3.567,1.17,0.03,0.10,0.62,-0.61,-0.09,
3.567,1.17,0.03,0.10,0.62,-0.56,-0.13,
3.568,1.17,0.03,0.10,0.60,-0.52,-0.16,
3.569,1.45,0.83,0.10,0.60,-0.52,-0.16,
3.57,1.45,0.83,0.10,0.57,-0.48,-0.19,
3.573,1.45,0.83,0.10,0.52,-0.45,-0.22,
3.574,1.61,1.44,0.13,0.52,-0.45,-0.22,
3.576,1.61,1.44,0.13,0.47,-0.42,-0.23,
3.578,1.61,1.44,0.13,0.40,-0.38,-0.25,
3.578,1.64,1.77,0.03,0.40,-0.38,-0.25,
3.586,1.64,1.77,0.03,0.33,-0.34,-0.25,
3.592,1.64,1.77,0.03,0.26,-0.30,-0.25,
3.593,1.66,2.02,-0.13,0.26,-0.30,-0.25,
3.593,1.66,2.02,-0.13,0.19,-0.25,-0.24,
3.593,1.66,2.02,-0.13,0.13,-0.20,-0.22,
3.593,1.64,2.05,-0.10,0.13,-0.20,-0.22,
3.593,1.64,2.05,-0.10,0.08,-0.15,-0.21,
3.593,1.64,2.05,-0.10,0.04,-0.09,-0.19,
3.593,1.62,1.95,-0.18,0.04,-0.09,-0.19,
3.595,1.62,1.95,-0.18,0.01,-0.03,-0.17,
3.599,1.49,1.71,-0.24,0.01,-0.03,-0.17,
3.599,1.49,1.71,-0.24,-0.01,0.04,-0.16,
3.602,1.49,1.71,-0.24,-0.02,0.12,-0.16,
3.603,1.17,1.57,-0.52,-0.02,0.12,-0.16,
3.603,1.17,1.57,-0.52,-0.03,0.18,-0.15,
3.606,1.17,1.57,-0.52,-0.03,0.24,-0.15,
3.609,1.17,1.57,-0.52,-0.04,0.29,-0.14,
3.609,0.71,1.50,-0.93,-0.04,0.29,-0.14,
3.611,0.71,1.50,-0.93,-0.04,0.33,-0.13,
3.613,0.23,1.38,-1.34,-0.04,0.33,-0.13,
3.613,0.23,1.38,-1.34,-0.05,0.36,-0.12,
3.615,0.23,1.38,-1.34,-0.05,0.40,-0.10,
3.618,0.23,1.38,-1.34,-0.05,0.43,-0.08,
3.619,-0.16,1.34,-1.71,-0.05,0.43,-0.08,
3.62,-0.16,1.34,-1.71,-0.06,0.46,-0.06,
3.623,-0.16,1.34,-1.71,-0.07,0.49,-0.04,
3.623,-0.46,1.41,-1.95,-0.07,0.49,-0.04,
3.625,-0.46,1.41,-1.95,-0.07,0.52,-0.01,
3.628,-0.46,1.41,-1.95,-0.07,0.55,0.01,
3.628,-0.79,1.58,-2.01,-0.07,0.55,0.01,
3.63,-0.79,1.58,-2.01,-0.07,0.58,0.03,
3.633,-0.79,1.58,-2.01,-0.07,0.60,0.05,
3.633,-1.09,1.78,-2.05,-0.07,0.60,0.05,
3.635,-1.09,1.78,-2.05,-0.07,0.61,0.07,
3.637,-1.09,1.78,-2.05,-0.07,0.62,0.10,
3.638,-1.40,2.00,-2.02,-0.07,0.62,0.10,
3.64,-1.40,2.00,-2.02,-0.07,0.62,0.12,
3.643,-1.66,2.18,-1.90,-0.07,0.62,0.12,
3.643,-1.66,2.18,-1.90,-0.06,0.61,0.14,
3.645,-1.66,2.18,-1.90,-0.06,0.60,0.15,
3.648,-1.66,2.18,-1.90,-0.05,0.59,0.17,
3.648,-1.77,2.31,-1.73,-0.05,0.59,0.17,
3.65,-1.77,2.31,-1.73,-0.04,0.57,0.18,
3.652,-1.77,2.31,-1.73,-0.03,0.55,0.20,
3.653,-1.85,2.53,-1.61,-0.03,0.55,0.20,
3.656,-1.85,2.53,-1.61,-0.02,0.55,0.22,
3.658,-1.85,2.53,-1.61,-0.00,0.55,0.23,
3.658,-1.89,2.68,-1.48,-0.00,0.55,0.23,
3.66,-1.89,2.68,-1.48,0.02,0.56,0.25,
3.664,-1.89,2.68,-1.48,0.04,0.57,0.26,
3.664,-1.85,2.83,-1.14,0.04,0.57,0.26,
3.665,-1.85,2.83,-1.14,0.07,0.58,0.27,
3.668,-1.85,2.83,-1.14,0.10,0.61,0.27,
3.668,-1.92,3.03,-0.94,0.10,0.61,0.27,
3.671,-1.92,3.03,-0.94,0.13,0.63,0.28,
3.672,-1.92,3.03,-0.94,0.16,0.64,0.29,
3.672,-2.11,3.23,-0.86,0.16,0.64,0.29,
3.675,-2.11,3.23,-0.86,0.18,0.66,0.29,
3.677,-2.11,3.23,-0.86,0.19,0.68,0.31,
3.677,-2.31,3.43,-0.88,0.19,0.68,0.31,
3.68,-2.31,3.43,-0.88,0.21,0.70,0.33,
3.683,-2.31,3.43,-0.88,0.21,0.72,0.34,
3.683,-2.30,3.46,-0.95,0.21,0.72,0.34,
3.684,-2.30,3.46,-0.95,0.22,0.74,0.35,
3.687,-2.30,3.46,-0.95,0.22,0.77,0.36,
3.687,-2.48,3.51,-1.04,0.22,0.77,0.36,
3.689,-2.48,3.51,-1.04,0.21,0.80,0.38,
3.692,-2.48,3.51,-1.04,0.20,0.83,0.40,
3.692,-2.71,3.69,-1.21,0.20,0.83,0.40,
3.694,-2.71,3.69,-1.21,0.18,0.85,0.43,
3.7,-2.71,3.69,-1.21,0.15,0.88,0.45,
3.7,-2.82,3.71,-1.49,0.15,0.88,0.45,
3.72,-2.82,3.71,-1.49,0.11,0.90,0.48,
3.72,-2.82,3.71,-1.49,0.07,0.93,0.51,
3.72,-2.89,3.63,-1.84,0.07,0.93,0.51,
3.72,-2.89,3.63,-1.84,0.02,0.94,0.54,
3.721,-2.89,3.63,-1.84,-0.03,0.96,0.56,
3.721,-2.92,3.57,-2.19,-0.03,0.96,0.56,
3.721,-2.92,3.57,-2.19,-0.10,0.97,0.59,
3.721,-2.92,3.57,-2.19,-0.17,0.99,0.61,
3.721,-2.88,3.50,-2.62,-0.17,0.99,0.61,
3.721,-2.88,3.50,-2.62,-0.24,0.99,0.64,
3.722,-2.70,3.40,-2.99,-0.24,0.99,0.64,
3.722,-2.70,3.40,-2.99,-0.31,1.00,0.66,
3.722,-2.70,3.40,-2.99,-0.39,1.01,0.67,
3.722,-2.70,3.40,-2.99,-0.47,1.01,0.69,
3.722,-2.36,3.26,-3.32,-0.47,1.01,0.69,
3.729,-2.36,3.26,-3.32,-0.56,1.02,0.70,
3.73,-2.36,3.26,-3.32,-0.63,1.02,0.71,
3.73,-1.95,3.12,-3.46,-0.63,1.02,0.71,
3.731,-1.95,3.12,-3.46,-0.70,1.02,0.71,
3.736,-1.49,2.98,-3.41,-0.70,1.02,0.71,
3.737,-1.49,2.98,-3.41,-0.76,1.02,0.71,
3.738,-1.49,2.98,-3.41,-0.80,1.03,0.72,
3.738,-1.49,2.98,-3.41,-0.84,1.04,0.72,
3.738,-0.95,2.91,-3.29,-0.84,1.04,0.72,
3.742,-0.95,2.91,-3.29,-0.87,1.05,0.72,
3.742,-0.95,2.91,-3.29,-0.89,1.06,0.71,
3.742,-0.32,2.92,-3.06,-0.89,1.06,0.71,
3.744,-0.32,2.92,-3.06,-0.90,1.06,0.70,
3.747,-0.32,2.92,-3.06,-0.88,1.06,0.69,
3.747,0.27,2.83,-2.47,-0.88,1.06,0.69,
3.75,0.27,2.83,-2.47,-0.85,1.07,0.68,
3.751,0.27,2.83,-2.47,-0.80,1.07,0.67,
3.752,0.59,2.74,-1.76,-0.80,1.07,0.67,
3.754,0.59,2.74,-1.76,-0.74,1.06,0.66,
3.756,0.59,2.74,-1.76,-0.67,1.04,0.64,
3.757,1.11,2.61,-1.52,-0.67,1.04,0.64,
3.759,1.11,2.61,-1.52,-0.61,1.01,0.62,
3.761,1.11,2.61,-1.52,-0.54,0.99,0.60,
3.761,1.52,2.53,-1.46,-0.54,0.99,0.60,
3.764,1.52,2.53,-1.46,-0.47,0.98,0.57,
3.767,1.52,2.53,-1.46,-0.40,0.97,0.54,
3.767,1.80,2.35,-1.14,-0.40,0.97,0.54,
3.769,1.80,2.35,-1.14,-0.32,0.97,0.52,
3.771,1.80,2.35,-1.14,-0.24,0.97,0.49,
3.771,2.04,2.13,-0.88,-0.24,0.97,0.49,
3.774,2.04,2.13,-0.88,-0.16,0.98,0.46,
3.776,2.04,2.13,-0.88,-0.09,0.98,0.44,
3.777,2.23,1.99,-0.77,-0.09,0.98,0.44,
3.779,2.23,1.99,-0.77,-0.02,0.97,0.41,
3.783,2.39,1.91,-0.89,-0.02,0.97,0.41,
3.783,2.39,1.91,-0.89,0.03,0.96,0.38,
3.784,2.39,1.91,-0.89,0.07,0.95,0.35,
3.788,2.39,1.91,-0.89,0.11,0.93,0.33,
3.788,2.42,1.82,-1.07,0.11,0.93,0.33,
3.789,2.42,1.82,-1.07,0.13,0.92,0.31,
3.791,2.42,1.82,-1.07,0.14,0.91,0.29,
3.792,2.49,1.79,-1.25,0.14,0.91,0.29,
3.794,2.49,1.79,-1.25,0.14,0.91,0.28,
3.8,2.36,1.73,-1.34,0.14,0.91,0.28,
3.8,2.36,1.73,-1.34,0.14,0.91,0.27,
3.801,2.36,1.73,-1.34,0.12,0.90,0.26,
3.801,2.36,1.73,-1.34,0.09,0.88,0.26,
3.801,2.18,1.80,-1.54,0.09,0.88,0.26,
3.804,2.18,1.80,-1.54,0.05,0.87,0.26,
3.806,2.18,1.80,-1.54,0.00,0.85,0.26,
3.806,2.09,1.79,-1.79,0.00,0.85,0.26,
3.808,2.09,1.79,-1.79,-0.05,0.84,0.27,
3.811,2.09,1.79,-1.79,-0.10,0.82,0.27,
3.811,2.11,1.79,-1.79,-0.10,0.82,0.27,
3.813,2.11,1.79,-1.79,-0.16,0.80,0.27,
3.816,2.26,1.60,-1.57,-0.16,0.80,0.27,
3.817,2.26,1.60,-1.57,-0.21,0.78,0.26,
3.818,2.26,1.60,-1.57,-0.25,0.76,0.26,
3.821,2.26,1.60,-1.57,-0.29,0.73,0.25,
3.821,2.30,1.43,-1.27,-0.29,0.73,0.25,
3.823,2.30,1.43,-1.27,-0.32,0.70,0.25,
3.826,2.30,1.43,-1.27,-0.35,0.66,0.24,
3.826,2.43,1.23,-1.06,-0.35,0.66,0.24,
3.828,2.43,1.23,-1.06,-0.36,0.61,0.23,
3.831,2.43,1.23,-1.06,-0.38,0.56,0.22,
3.832,2.65,1.13,-0.92,-0.38,0.56,0.22,
3.835,2.65,1.13,-0.92,-0.39,0.50,0.21,
3.836,2.65,1.13,-0.92,-0.40,0.45,0.20,
3.836,2.88,1.07,-0.87,-0.40,0.45,0.20,
3.838,2.88,1.07,-0.87,-0.41,0.40,0.18,
3.841,2.88,1.07,-0.87,-0.41,0.35,0.16,
3.841,3.09,1.15,-0.77,-0.41,0.35,0.16,
3.844,3.09,1.15,-0.77,-0.40,0.30,0.13,
3.846,3.16,1.19,-0.51,-0.40,0.30,0.13,
3.847,3.16,1.19,-0.51,-0.40,0.24,0.11,
3.85,3.16,1.19,-0.51,-0.39,0.18,0.09,
3.851,3.16,1.19,-0.51,-0.38,0.12,0.07,
3.852,3.32,1.21,-0.10,-0.38,0.12,0.07,
3.853,3.32,1.21,-0.10,-0.36,0.04,0.05,
3.856,3.32,1.21,-0.10,-0.33,-0.05,0.03,
3.856,3.49,1.15,0.73,-0.33,-0.05,0.03,
3.858,3.49,1.15,0.73,-0.29,-0.13,0.01,
3.861,3.49,1.15,0.73,-0.23,-0.20,-0.01,
3.861,3.67,1.12,1.70,-0.23,-0.20,-0.01,
3.863,3.67,1.12,1.70,-0.17,-0.27,-0.03,
3.873,3.67,1.12,1.70,-0.10,-0.33,-0.05,
3.873,3.83,1.22,2.35,-0.10,-0.33,-0.05,
3.873,3.83,1.22,2.35,-0.03,-0.38,-0.08,
3.873,3.83,1.22,2.35,0.05,-0.41,-0.10,
3.873,3.83,1.22,2.35,0.12,-0.43,-0.13,
3.884,3.92,1.33,2.72,0.12,-0.43,-0.13,
3.884,3.65,1.40,3.09,0.12,-0.43,-0.13,
3.885,3.65,1.40,3.09,0.20,-0.44,-0.15,
3.885,3.65,1.40,3.09,0.27,-0.45,-0.17,
3.885,3.65,1.40,3.09,0.34,-0.46,-0.19,
3.885,3.28,1.44,3.38,0.34,-0.46,-0.19,
3.886,3.28,1.44,3.38,0.41,-0.48,-0.20,
3.886,2.85,1.29,3.52,0.41,-0.48,-0.20,
3.887,2.85,1.29,3.52,0.47,-0.50,-0.21,
3.888,2.85,1.29,3.52,0.53,-0.52,-0.21,
3.891,2.85,1.29,3.52,0.57,-0.53,-0.22,
3.891,2.48,0.79,3.53,0.57,-0.53,-0.22,
3.893,2.48,0.79,3.53,0.62,-0.54,-0.24,
3.895,2.48,0.79,3.53,0.65,-0.54,-0.25,
3.896,2.16,0.37,3.41,0.65,-0.54,-0.25,
3.9,2.16,0.37,3.41,0.68,-0.53,-0.27,
3.901,1.76,0.24,3.27,0.68,-0.53,-0.27,
3.901,1.76,0.24,3.27,0.71,-0.51,-0.29,
3.903,1.76,0.24,3.27,0.72,-0.48,-0.31,
3.907,1.34,0.15,3.06,0.72,-0.48,-0.31,
3.908,1.34,0.15,3.06,0.73,-0.44,-0.34,
3.908,1.34,0.15,3.06,0.73,-0.38,-0.35,
3.91,1.34,0.15,3.06,0.73,-0.31,-0.36,
3.91,0.94,-0.09,3.02,0.73,-0.31,-0.36,
3.913,0.94,-0.09,3.02,0.73,-0.23,-0.36,
3.916,0.78,-0.38,3.06,0.73,-0.23,-0.36,
3.917,0.78,-0.38,3.06,0.73,-0.16,-0.37,
3.918,0.78,-0.38,3.06,0.72,-0.09,-0.38,
3.92,0.78,-0.38,3.06,0.72,-0.03,-0.40,
3.92,0.76,-1.02,3.24,0.72,-0.03,-0.40,
3.924,0.76,-1.02,3.24,0.72,0.02,-0.41,
3.927,0.76,-1.02,3.24,0.72,0.05,-0.42,
3.927,0.78,-1.94,3.71,0.72,0.05,-0.42,
3.927,0.78,-1.94,3.71,0.72,0.05,-0.45,
3.93,0.87,-3.27,4.29,0.72,0.05,-0.45,
3.931,0.87,-3.27,4.29,0.73,0.02,-0.48,
3.932,0.87,-3.27,4.29,0.74,-0.03,-0.50,
3.935,0.87,-3.27,4.29,0.74,-0.08,-0.53,
3.935,0.82,-5.10,4.84,0.74,-0.08,-0.53,
3.937,0.82,-5.10,4.84,0.75,-0.14,-0.56,
3.94,0.82,-5.10,4.84,0.75,-0.21,-0.59,
3.94,0.95,-6.98,5.38,0.75,-0.21,-0.59,
3.942,0.95,-6.98,5.38,0.76,-0.27,-0.63,
3.948,0.98,-9.13,5.09,0.76,-0.27,-0.63,
3.951,0.98,-9.13,5.09,0.74,-0.30,-0.68,
3.951,0.98,-9.13,5.09,0.71,-0.30,-0.73,
3.951,0.62,-11.53,3.39,0.71,-0.30,-0.73,
3.952,0.62,-11.53,3.39,0.65,-0.25,-0.77,
3.964,0.62,-11.53,3.39,0.56,-0.14,-0.82,
3.964,-0.80,-13.44,0.97,0.56,-0.14,-0.82,
3.964,-0.80,-13.44,0.97,0.43,0.01,-0.85,
3.964,-0.80,-13.44,0.97,0.29,0.21,-0.84,
3.965,-0.80,-13.44,0.97,0.13,0.39,-0.81,
3.965,-2.22,-14.33,-1.01,0.13,0.39,-0.81,
3.965,-2.22,-14.33,-1.01,-0.04,0.53,-0.77,
3.966,-3.23,-13.68,-1.99,-0.04,0.53,-0.77,
3.967,-3.23,-13.68,-1.99,-0.19,0.59,-0.71,
3.968,-3.23,-13.68,-1.99,-0.33,0.59,-0.62,
3.97,-3.23,-13.68,-1.99,-0.48,0.54,-0.52,
3.97,-4.04,-11.95,-3.17,-0.48,0.54,-0.52,
3.972,-4.04,-11.95,-3.17,-0.63,0.45,-0.40,
3.975,-4.04,-11.95,-3.17,-0.78,0.35,-0.27,
3.975,-4.47,-9.72,-4.60,-0.78,0.35,-0.27,
3.977,-4.47,-9.72,-4.60,-0.93,0.24,-0.13,
3.98,-4.47,-9.72,-4.60,-1.07,0.15,0.01,
3.98,-4.26,-7.26,-4.97,-1.07,0.15,0.01,
3.983,-4.26,-7.26,-4.97,-1.17,0.09,0.13,
3.987,-4.26,-7.26,-4.97,-1.24,0.03,0.24,
3.988,-3.64,-4.89,-3.99,-1.24,0.03,0.24,
3.988,-3.64,-4.89,-3.99,-1.27,-0.02,0.33,
3.994,-3.64,-4.89,-3.99,-1.26,-0.08,0.40,
3.994,-3.34,-3.40,-2.21,-1.26,-0.08,0.40,
3.994,-3.34,-3.40,-2.21,-1.22,-0.16,0.46,
3.994,-3.34,-3.40,-2.21,-1.15,-0.24,0.50,
3.995,-2.93,-2.26,-0.56,-1.15,-0.24,0.50,
3.997,-2.93,-2.26,-0.56,-1.05,-0.32,0.52,
4.0,-2.93,-2.26,-0.56,-0.94,-0.40,0.53,
4.0,-2.39,-1.41,0.65,-0.94,-0.40,0.53,
4.002,-2.39,-1.41,0.65,-0.82,-0.45,0.52,
4.004,-2.39,-1.41,0.65,-0.69,-0.49,0.50,
4.004,-1.94,-0.70,1.33,-0.69,-0.49,0.50,
4.006,-1.94,-0.70,1.33,-0.56,-0.49,0.48,
4.009,-1.94,-0.70,1.33,-0.42,-0.48,0.45,
4.009,-1.58,-0.14,1.85,-0.42,-0.48,0.45,
4.011,-1.58,-0.14,1.85,-0.30,-0.46,0.41,
4.015,-1.58,-0.14,1.85,-0.17,-0.43,0.37,
4.015,-1.21,0.35,2.16,-0.17,-0.43,0.37,
4.017,-1.21,0.35,2.16,-0.06,-0.40,0.33,
4.019,-1.21,0.35,2.16,0.05,-0.38,0.28,
4.019,-0.91,0.77,2.42,0.05,-0.38,0.28,
4.021,-0.91,0.77,2.42,0.14,-0.36,0.23,
4.024,-0.80,1.11,2.58,0.14,-0.36,0.23,
4.024,-0.80,1.11,2.58,0.23,-0.35,0.18,
4.026,-0.80,1.11,2.58,0.31,-0.34,0.13,
4.029,-0.80,1.11,2.58,0.38,-0.31,0.09,
4.039,-0.71,1.39,2.62,0.38,-0.31,0.09,
4.039,-0.71,1.39,2.62,0.44,-0.28,0.05,
4.04,-0.71,1.39,2.62,0.48,-0.24,0.00,
4.04,-0.55,1.55,2.37,0.48,-0.24,0.00,
4.04,-0.55,1.55,2.37,0.52,-0.19,-0.04,
4.04,-0.55,1.55,2.37,0.54,-0.12,-0.07,
4.04,-0.43,1.73,1.82,0.54,-0.12,-0.07,
4.042,-0.43,1.73,1.82,0.55,-0.05,-0.11,
4.045,-0.43,1.73,1.82,0.54,0.03,-0.14,
4.045,-0.42,1.87,1.12,0.54,0.03,-0.14,
4.046,-0.42,1.87,1.12,0.51,0.10,-0.17,
4.051,-0.42,1.87,1.12,0.47,0.16,-0.19,
4.051,-0.45,2.02,0.43,0.47,0.16,-0.19,
4.051,-0.45,2.02,0.43,0.42,0.22,-0.21,
4.054,-0.53,2.21,-0.16,0.42,0.22,-0.21,
4.055,-0.53,2.21,-0.16,0.35,0.27,-0.23,
4.056,-0.53,2.21,-0.16,0.28,0.30,-0.24,
4.059,-0.53,2.21,-0.16,0.20,0.32,-0.25,
4.059,-0.63,2.36,-0.59,0.20,0.32,-0.25,
4.061,-0.63,2.36,-0.59,0.12,0.33,-0.26,
4.064,-0.63,2.36,-0.59,0.04,0.32,-0.26,
4.064,-0.66,2.42,-0.86,0.04,0.32,-0.26,
4.069,-0.66,2.42,-0.86,-0.03,0.31,-0.26,
4.069,-0.66,2.42,-0.86,-0.10,0.29,-0.26,
4.069,-0.54,2.38,-0.93,-0.10,0.29,-0.26,
4.071,-0.54,2.38,-0.93,-0.15,0.25,-0.25,
4.074,-0.54,2.38,-0.93,-0.20,0.21,-0.25,
4.074,-0.36,2.32,-0.88,-0.20,0.21,-0.25,
4.076,-0.36,2.32,-0.88,-0.25,0.17,-0.24,
4.079,-0.36,2.32,-0.88,-0.28,0.11,-0.23,
4.079,-0.23,2.21,-0.78,-0.28,0.11,-0.23,
4.081,-0.23,2.21,-0.78,-0.30,0.06,-0.22,
4.084,-0.23,2.21,-0.78,-0.32,0.00,-0.21,
4.084,-0.22,2.14,-0.69,-0.32,0.00,-0.21,
4.086,-0.22,2.14,-0.69,-0.32,-0.05,-0.19,
4.089,-0.22,2.14,-0.69,-0.32,-0.10,-0.17,
4.089,-0.29,2.14,-0.68,-0.32,-0.10,-0.17,
4.097,-0.29,2.14,-0.68,-0.31,-0.15,-0.16,
4.097,-0.29,2.14,-0.68,-0.30,-0.19,-0.14,
4.097,-0.45,2.13,-0.79,-0.30,-0.19,-0.14,
4.097,-0.45,2.13,-0.79,-0.28,-0.23,-0.12,
4.102,-0.45,2.13,-0.79,-0.27,-0.25,-0.10,
4.102,-0.72,2.19,-1.16,-0.27,-0.25,-0.10,
4.102,-0.72,2.19,-1.16,-0.27,-0.26,-0.08,
4.104,-0.72,2.19,-1.16,-0.27,-0.27,-0.06,
4.105,-1.06,2.26,-1.62,-0.27,-0.27,-0.06,
4.106,-1.06,2.26,-1.62,-0.26,-0.27,-0.04,
4.108,-1.38,2.31,-2.01,-0.26,-0.27,-0.04,
4.108,-1.38,2.31,-2.01,-0.27,-0.26,-0.02,
4.111,-1.38,2.31,-2.01,-0.27,-0.25,-0.01,
4.113,-1.38,2.31,-2.01,-0.29,-0.24,-0.00,
4.113,-1.60,2.27,-2.40,-0.29,-0.24,-0.00,
4.116,-1.60,2.27,-2.40,-0.30,-0.24,0.00,
4.119,-1.60,2.27,-2.40,-0.32,-0.23,0.01,
4.119,-1.85,2.20,-2.75,-0.32,-0.23,0.01,
4.121,-1.85,2.20,-2.75,-0.34,-0.23,0.01,
4.123,-1.85,2.20,-2.75,-0.36,-0.23,0.01,
4.123,-2.19,2.18,-3.04,-0.36,-0.23,0.01,
4.126,-2.19,2.18,-3.04,-0.38,-0.24,0.01,
4.128,-2.19,2.18,-3.04,-0.40,-0.24,0.02,
4.129,-2.45,2.14,-3.15,-0.40,-0.24,0.02,
4.13,-2.45,2.14,-3.15,-0.41,-0.25,0.02,
4.133,-2.45,2.14,-3.15,-0.42,-0.26,0.02,
4.134,-2.55,2.12,-3.06,-0.42,-0.26,0.02,
4.136,-2.55,2.12,-3.06,-0.41,-0.26,0.01,
4.138,-2.55,2.12,-3.06,-0.41,-0.27,-0.00,
4.138,-2.57,2.03,-2.94,-0.41,-0.27,-0.00,
4.14,-2.57,2.03,-2.94,-0.40,-0.28,-0.02,
4.143,-2.57,2.03,-2.94,-0.38,-0.29,-0.03,
4.143,-2.58,1.94,-2.80,-0.38,-0.29,-0.03,
4.145,-2.58,1.94,-2.80,-0.36,-0.30,-0.04,
4.149,-2.58,1.94,-2.80,-0.34,-0.32,-0.06,
4.149,-2.55,1.87,-2.73,-0.34,-0.32,-0.06,
4.151,-2.55,1.87,-2.73,-0.33,-0.34,-0.07,
4.153,-2.55,1.87,-2.73,-0.31,-0.35,-0.08,
4.153,-2.36,1.82,-2.52,-0.31,-0.35,-0.08,
4.155,-2.36,1.82,-2.52,-0.29,-0.36,-0.09,
4.158,-2.36,1.82,-2.52,-0.28,-0.38,-0.09,
4.158,-2.24,1.78,-2.20,-0.28,-0.38,-0.09,
4.16,-2.24,1.78,-2.20,-0.26,-0.39,-0.09,
4.163,-2.24,1.78,-2.20,-0.24,-0.40,-0.09,
4.163,-2.14,1.76,-1.83,-0.24,-0.40,-0.09,
4.169,-2.14,1.76,-1.83,-0.23,-0.41,-0.09,
4.169,-2.14,1.76,-1.83,-0.22,-0.42,-0.09,
4.169,-2.09,1.72,-1.41,-0.22,-0.42,-0.09,
4.17,-2.09,1.72,-1.41,-0.21,-0.43,-0.08,
4.173,-2.09,1.72,-1.41,-0.20,-0.43,-0.08,
4.173,-2.08,1.68,-0.91,-0.20,-0.43,-0.08,
4.175,-2.08,1.68,-0.91,-0.19,-0.42,-0.08,
4.178,-2.08,1.68,-0.91,-0.17,-0.42,-0.07,
4.178,-2.07,1.61,-0.45,-0.17,-0.42,-0.07,
4.181,-2.07,1.61,-0.45,-0.16,-0.41,-0.07,
4.184,-2.07,1.61,-0.45,-0.15,-0.40,-0.07,
4.184,-2.00,1.48,-0.18,-0.15,-0.40,-0.07,
4.185,-2.00,1.48,-0.18,-0.14,-0.39,-0.06,
4.19,-2.00,1.48,-0.18,-0.14,-0.39,-0.06,
4.191,-1.79,1.38,-0.15,-0.14,-0.39,-0.06,
4.191,-1.79,1.38,-0.15,-0.14,-0.38,-0.06,
4.193,-1.79,1.38,-0.15,-0.15,-0.37,-0.06,
4.193,-1.65,1.29,-0.22,-0.15,-0.37,-0.06,
4.206,-1.65,1.29,-0.22,-0.15,-0.36,-0.06,
4.206,-1.65,1.29,-0.22,-0.16,-0.34,-0.05,
4.207,-1.58,1.23,-0.30,-0.16,-0.34,-0.05,
4.207,-1.58,1.23,-0.30,-0.18,-0.32,-0.05,
4.207,-1.58,1.23,-0.30,-0.19,-0.30,-0.04,
4.207,-1.55,1.25,-0.35,-0.19,-0.30,-0.04,
4.207,-1.55,1.25,-0.35,-0.20,-0.29,-0.03,
4.208,-1.55,1.25,-0.35,-0.21,-0.28,-0.02,
4.211,-1.68,1.38,-0.29,-0.21,-0.28,-0.02,
4.212,-1.68,1.38,-0.29,-0.23,-0.28,0.00,
4.213,-1.68,1.38,-0.29,-0.23,-0.29,0.02,
4.213,-1.78,1.61,-0.11,-0.23,-0.29,0.02,
4.216,-1.78,1.61,-0.11,-0.24,-0.31,0.04,
4.218,-1.78,1.61,-0.11,-0.24,-0.33,0.06,
4.218,-1.83,1.87,0.18,-0.24,-0.33,0.06,
4.22,-1.83,1.87,0.18,-0.24,-0.36,0.09,
4.223,-1.83,1.87,0.18,-0.24,-0.39,0.12,
4.223,-1.88,2.08,0.63,-0.24,-0.39,0.12,
4.225,-1.88,2.08,0.63,-0.23,-0.42,0.15,
4.227,-1.88,2.08,0.63,-0.21,-0.45,0.19,
4.228,-1.88,2.26,1.09,-0.21,-0.45,0.19,
4.23,-1.88,2.26,1.09,-0.19,-0.48,0.23,
4.233,-1.88,2.26,1.09,-0.17,-0.52,0.26,
4.233,-1.77,2.45,1.56,-0.17,-0.52,0.26,
4.235,-1.77,2.45,1.56,-0.15,-0.55,0.29,
4.243,-1.77,2.45,1.56,-0.13,-0.59,0.32,
4.243,-1.53,2.47,2.01,-0.13,-0.59,0.32,
4.244,-1.53,2.47,2.01,-0.11,-0.61,0.34,
4.244,-1.53,2.47,2.01,-0.09,-0.64,0.36,
4.244,-1.16,2.45,2.41,-0.09,-0.64,0.36,
4.245,-1.16,2.45,2.41,-0.07,-0.66,0.38,
4.247,-1.16,2.45,2.41,-0.06,-0.67,0.39,
4.247,-0.61,2.43,2.74,-0.06,-0.67,0.39,
4.251,-0.61,2.43,2.74,-0.04,-0.69,0.39,
4.252,-0.61,2.43,2.74,-0.02,-0.70,0.38,
4.252,0.08,2.27,3.21,-0.02,-0.70,0.38,
4.255,0.08,2.27,3.21,0.00,-0.72,0.36,
4.257,0.08,2.27,3.21,0.03,-0.74,0.34,
4.257,0.80,2.07,3.58,0.03,-0.74,0.34,
4.259,0.80,2.07,3.58,0.06,-0.74,0.32,
4.262,0.80,2.07,3.58,0.10,-0.74,0.29,
4.262,1.41,1.99,3.68,0.10,-0.74,0.29,
4.264,1.41,1.99,3.68,0.13,-0.73,0.26,
4.268,2.08,1.92,3.46,0.13,-0.73,0.26,
4.268,2.08,1.92,3.46,0.16,-0.73,0.23,
4.269,2.08,1.92,3.46,0.18,-0.72,0.20,
4.272,2.08,1.92,3.46,0.20,-0.70,0.16,
4.272,2.77,1.83,2.83,0.20,-0.70,0.16,
4.274,2.77,1.83,2.83,0.21,-0.67,0.12,
4.277,2.77,1.83,2.83,0.22,-0.63,0.08,
4.277,3.32,1.59,2.32,0.22,-0.63,0.08,
4.279,3.32,1.59,2.32,0.23,-0.58,0.04,
4.284,3.83,1.22,1.99,0.23,-0.58,0.04,
4.286,3.83,1.22,1.99,0.24,-0.53,0.00,
4.286,3.83,1.22,1.99,0.26,-0.47,-0.04,
4.287,3.83,1.22,1.99,0.27,-0.41,-0.08,
4.287,4.25,0.78,1.70,0.27,-0.41,-0.08,
4.289,4.25,0.78,1.70,0.30,-0.35,-0.12,
4.292,4.25,0.78,1.70,0.33,-0.29,-0.16,
4.292,4.61,0.44,1.34,0.33,-0.29,-0.16,
4.294,4.61,0.44,1.34,0.36,-0.24,-0.20,
4.297,4.61,0.44,1.34,0.40,-0.18,-0.23,
4.297,4.56,0.05,0.88,0.40,-0.18,-0.23,
4.301,4.56,0.05,0.88,0.44,-0.12,-0.26,
4.303,4.22,-0.19,0.21,0.44,-0.12,-0.26,
4.303,4.22,-0.19,0.21,0.47,-0.06,-0.27,
4.304,4.22,-0.19,0.21,0.50,-0.01,-0.29,
4.307,4.31,-0.65,-0.23,0.50,-0.01,-0.29,
4.307,4.31,-0.65,-0.23,0.54,0.04,-0.32,
4.312,4.31,-0.65,-0.23,0.57,0.07,-0.35,
4.312,3.96,-1.15,-0.68,0.57,0.07,-0.35,
4.312,3.96,-1.15,-0.68,0.59,0.09,-0.38,
4.314,3.96,-1.15,-0.68,0.62,0.10,-0.41,
4.317,3.25,-1.83,-0.89,0.62,0.10,-0.41,
4.32,3.25,-1.83,-0.89,0.64,0.11,-0.43,
4.32,3.25,-1.83,-0.89,0.68,0.11,-0.44,
4.322,3.25,-1.83,-0.89,0.71,0.10,-0.44,
4.326,2.42,-2.65,-0.61,0.71,0.10,-0.44,
4.327,1.56,-3.82,-0.04,0.71,0.10,-0.44,
4.327,1.56,-3.82,-0.04,0.74,0.08,-0.43,
4.327,1.56,-3.82,-0.04,0.77,0.04,-0.40,
4.329,1.56,-3.82,-0.04,0.79,-0.03,-0.36,
4.332,1.14,-5.24,0.97,0.79,-0.03,-0.36,
4.333,1.14,-5.24,0.97,0.81,-0.10,-0.31,
4.335,1.14,-5.24,0.97,0.82,-0.16,-0.26,
4.337,1.14,-5.24,0.97,0.81,-0.22,-0.22,
4.337,1.01,-6.65,2.09,0.81,-0.22,-0.22,
4.339,1.01,-6.65,2.09,0.81,-0.26,-0.20,
4.342,1.01,-6.65,2.09,0.79,-0.27,-0.19,
4.342,0.94,-8.14,3.11,0.79,-0.27,-0.19,
4.344,0.94,-8.14,3.11,0.78,-0.26,-0.19,
4.346,1.16,-9.66,3.89,0.78,-0.26,-0.19,
4.347,1.16,-9.66,3.89,0.77,-0.21,-0.22,
4.35,1.16,-9.66,3.89,0.76,-0.15,-0.26,
4.352,1.16,-9.66,3.89,0.74,-0.09,-0.31,
4.353,1.78,-11.05,4.22,0.74,-0.09,-0.31,
4.354,1.78,-11.05,4.22,0.71,-0.03,-0.35,
4.358,1.78,-11.05,4.22,0.68,0.03,-0.40,
4.358,3.14,-12.08,3.56,0.68,0.03,-0.40,
4.359,3.14,-12.08,3.56,0.63,0.10,-0.46,
4.37,4.19,-12.26,2.36,0.63,0.10,-0.46,
4.37,4.19,-12.26,2.36,0.59,0.18,-0.51,
4.371,4.19,-12.26,2.36,0.53,0.26,-0.54,
4.371,3.63,-11.63,0.71,0.53,0.26,-0.54,
4.371,3.63,-11.63,0.71,0.47,0.35,-0.53,
4.371,3.63,-11.63,0.71,0.41,0.43,-0.50,
4.371,3.63,-11.63,0.71,0.34,0.49,-0.43,
4.372,2.56,-10.14,-0.78,0.34,0.49,-0.43,
4.373,2.56,-10.14,-0.78,0.27,0.50,-0.33,
4.376,2.56,-10.14,-0.78,0.20,0.46,-0.23,
4.376,1.76,-7.85,-1.97,0.20,0.46,-0.23,
4.38,1.76,-7.85,-1.97,0.13,0.37,-0.14,
4.381,1.59,-5.70,-3.25,0.13,0.37,-0.14,
4.381,1.59,-5.70,-3.25,0.06,0.24,-0.06,
4.387,1.59,-5.70,-3.25,-0.01,0.09,-0.01,
4.388,1.59,-5.70,-3.25,-0.07,-0.07,0.03,
4.389,1.59,-4.25,-3.77,-0.07,-0.07,0.03,
4.389,1.59,-4.25,-3.77,-0.11,-0.23,0.06,
4.391,1.59,-4.25,-3.77,-0.12,-0.39,0.08,
4.392,1.43,-3.13,-3.48,-0.12,-0.39,0.08,
4.393,1.43,-3.13,-3.48,-0.12,-0.52,0.08,
4.396,1.42,-2.08,-3.03,-0.12,-0.52,0.08,
4.397,1.42,-2.08,-3.03,-0.11,-0.63,0.08,
4.399,1.42,-2.08,-3.03,-0.10,-0.71,0.07,
4.406,1.39,-1.08,-2.47,-0.10,-0.71,0.07,
4.406,1.39,-1.08,-2.47,-0.07,-0.76,0.06,
4.407,1.39,-1.08,-2.47,-0.05,-0.79,0.04,
4.407,1.44,-0.04,-1.96,-0.05,-0.79,0.04,
4.407,1.44,-0.04,-1.96,-0.02,-0.79,0.03,
4.408,1.44,-0.04,-1.96,-0.00,-0.78,0.01,
4.411,1.44,-0.04,-1.96,0.01,-0.75,-0.00,
4.411,1.58,1.06,-1.63,0.01,-0.75,-0.00,
4.414,1.58,1.06,-1.63,0.02,-0.72,-0.02,
4.417,1.58,1.06,-1.63,0.03,-0.68,-0.03,
4.418,1.49,2.06,-1.37,0.03,-0.68,-0.03,
4.42,1.49,2.06,-1.37,0.03,-0.64,-0.03,
4.422,1.49,2.06,-1.37,0.02,-0.59,-0.04,
4.422,1.42,2.70,-1.10,0.02,-0.59,-0.04,
4.424,1.42,2.70,-1.10,0.01,-0.55,-0.04,
4.426,1.30,2.98,-0.87,0.01,-0.55,-0.04,
4.426,1.30,2.98,-0.87,-0.01,-0.51,-0.03,
4.428,1.30,2.98,-0.87,-0.03,-0.47,-0.02,
4.431,1.12,3.04,-0.73,-0.03,-0.47,-0.02,
4.431,1.12,3.04,-0.73,-0.04,-0.43,-0.01,
4.434,1.12,3.04,-0.73,-0.06,-0.39,0.01,
4.436,1.12,3.04,-0.73,-0.07,-0.35,0.02,
4.436,0.85,2.98,-0.70,-0.07,-0.35,0.02,
4.438,0.85,2.98,-0.70,-0.08,-0.31,0.04,
4.441,0.85,2.98,-0.70,-0.09,-0.26,0.06,
4.441,0.41,2.81,-0.86,-0.09,-0.26,0.06,
4.443,0.41,2.81,-0.86,-0.10,-0.21,0.08,
4.446,0.41,2.81,-0.86,-0.11,-0.15,0.10,
4.447,-0.10,2.56,-1.16,-0.11,-0.15,0.10,
4.448,-0.10,2.56,-1.16,-0.12,-0.09,0.12,
4.451,-0.10,2.56,-1.16,-0.13,-0.03,0.14,
4.451,-0.50,2.28,-1.47,-0.13,-0.03,0.14,
4.453,-0.50,2.28,-1.47,-0.14,0.04,0.16,
4.456,-0.50,2.28,-1.47,-0.15,0.11,0.17,
4.456,-0.92,2.00,-1.85,-0.15,0.11,0.17,
4.458,-0.92,2.00,-1.85,-0.16,0.18,0.19,
4.46,-0.92,2.00,-1.85,-0.18,0.25,0.20,
4.461,-1.30,1.77,-2.22,-0.18,0.25,0.20,
4.463,-1.30,1.77,-2.22,-0.19,0.31,0.21,
4.465,-1.30,1.77,-2.22,-0.20,0.38,0.23,
4.467,-1.77,1.53,-2.37,-0.20,0.38,0.23,
4.469,-1.77,1.53,-2.37,-0.21,0.45,0.24,
4.471,-2.19,1.42,-2.61,-0.21,0.45,0.24,
4.471,-2.19,1.42,-2.61,-0.22,0.53,0.25,
4.473,-2.19,1.42,-2.61,-0.23,0.61,0.27,
4.475,-2.19,1.42,-2.61,-0.23,0.67,0.28,
4.476,-2.65,1.34,-2.56,-0.23,0.67,0.28,
4.478,-2.65,1.34,-2.56,-0.23,0.73,0.29,
4.481,-2.65,1.34,-2.56,-0.23,0.77,0.31,
4.481,-3.01,1.24,-2.52,-0.23,0.77,0.31,
4.486,-3.12,1.17,-2.49,-0.23,0.77,0.31,
4.489,-3.12,1.17,-2.49,-0.22,0.79,0.32,
4.489,-3.12,1.17,-2.49,-0.22,0.80,0.33,
4.49,-3.12,1.17,-2.49,-0.22,0.80,0.34,
4.491,-3.12,1.17,-2.49,-0.21,0.79,0.34,
4.491,-3.06,1.19,-2.55,-0.21,0.79,0.34,
4.493,-3.06,1.19,-2.55,-0.22,0.76,0.34,
4.495,-2.92,1.30,-2.74,-0.22,0.76,0.34,
4.496,-2.92,1.30,-2.74,-0.22,0.72,0.35,
4.498,-2.92,1.30,-2.74,-0.23,0.67,0.35,
4.507,-2.53,1.54,-2.93,-0.23,0.67,0.35,
4.508,-2.53,1.54,-2.93,-0.25,0.63,0.35,
4.509,-2.53,1.54,-2.93,-0.27,0.58,0.35,
4.51,-2.02,1.79,-3.01,-0.27,0.58,0.35,
4.51,-2.02,1.79,-3.01,-0.29,0.55,0.35,
4.511,-2.02,1.79,-3.01,-0.31,0.52,0.35,
4.512,-2.02,1.79,-3.01,-0.33,0.50,0.35,
4.513,-1.47,2.04,-2.98,-0.33,0.50,0.35,
4.513,-1.47,2.04,-2.98,-0.35,0.50,0.35,
4.517,-1.00,2.36,-3.11,-0.35,0.50,0.35,
4.518,-1.00,2.36,-3.11,-0.38,0.50,0.35,
4.531,-1.00,2.36,-3.11,-0.42,0.50,0.35,
4.531,-0.62,2.61,-2.95,-0.42,0.50,0.35,
4.532,-0.62,2.61,-2.95,-0.46,0.50,0.34,
4.534,-0.62,2.61,-2.95,-0.48,0.53,0.33,
4.535,-0.14,2.67,-2.13,-0.48,0.53,0.33,
4.568,-0.14,2.67,-2.13,-0.49,0.58,0.31,
4.569,-0.14,2.67,-2.13,-0.48,0.65,0.29,
4.569,-0.14,2.67,-2.13,-0.46,0.72,0.27,
4.569,0.08,2.69,-1.27,-0.46,0.72,0.27,
4.57,0.08,2.69,-1.27,-0.42,0.77,0.26,
4.57,0.08,2.69,-1.27,-0.37,0.81,0.24,
4.57,0.23,2.76,-0.43,-0.37,0.81,0.24,
4.571,0.23,2.76,-0.43,-0.31,0.85,0.21,
4.571,0.23,2.76,-0.43,-0.24,0.88,0.19,
4.571,0.23,2.76,-0.43,-0.16,0.90,0.17,
4.572,0.23,2.76,-0.43,-0.08,0.91,0.16,
4.572,0.29,3.04,0.20,-0.08,0.91,0.16,
4.572,0.02,3.48,0.50,-0.08,0.91,0.16,
4.573,0.02,3.48,0.50,-0.00,0.92,0.15,
4.573,-0.08,3.77,0.26,-0.00,0.92,0.15,
4.573,-0.08,3.77,0.26,0.07,0.90,0.14,
4.573,-0.08,3.77,0.26,0.12,0.88,0.14,
4.574,-0.63,4.12,-0.41,0.12,0.88,0.14,
4.574,-0.63,4.12,-0.41,0.16,0.86,0.15,
4.574,-0.63,4.12,-0.41,0.19,0.84,0.16,
4.574,-0.63,4.12,-0.41,0.20,0.81,0.18,
4.575,-0.94,4.46,-1.20,0.20,0.81,0.18,
4.575,-0.94,4.46,-1.20,0.19,0.79,0.20,
4.575,-0.94,4.46,-1.20,0.17,0.76,0.21,
4.575,-1.01,4.66,-1.87,0.17,0.76,0.21,
4.575,-1.01,4.66,-1.87,0.13,0.74,0.23,
4.575,-1.01,4.66,-1.87,0.08,0.72,0.25,
4.576,-0.94,4.71,-2.32,0.08,0.72,0.25,
4.576,-0.94,4.71,-2.32,0.02,0.72,0.26,
4.576,-0.94,4.71,-2.32,-0.03,0.71,0.28,
4.576,-0.73,4.53,-2.36,-0.03,0.71,0.28,
4.577,-0.73,4.53,-2.36,-0.08,0.71,0.29,
4.58,-0.73,4.53,-2.36,-0.13,0.70,0.30,
4.58,-0.45,4.23,-2.10,-0.13,0.70,0.30,
4.583,-0.45,4.23,-2.10,-0.18,0.69,0.31,
4.585,-0.45,4.23,-2.10,-0.22,0.67,0.31,
4.586,-0.05,3.85,-1.73,-0.22,0.67,0.31,
4.587,-0.05,3.85,-1.73,-0.25,0.64,0.31,
4.589,-0.05,3.85,-1.73,-0.28,0.60,0.31,
4.59,0.39,3.45,-1.37,-0.28,0.60,0.31,
4.591,0.39,3.45,-1.37,-0.31,0.56,0.30,
4.594,0.90,3.06,-1.13,-0.31,0.56,0.30,
4.595,0.90,3.06,-1.13,-0.33,0.52,0.29,
4.597,0.90,3.06,-1.13,-0.34,0.47,0.28,
4.606,1.35,2.71,-0.88,-0.34,0.47,0.28,
4.607,1.35,2.71,-0.88,-0.35,0.42,0.26,
4.607,1.35,2.71,-0.88,-0.36,0.37,0.24,
4.607,1.35,2.71,-0.88,-0.36,0.32,0.22,
4.608,1.75,2.52,-0.64,-0.36,0.32,0.22,
4.608,1.75,2.52,-0.64,-0.35,0.28,0.20,
4.609,2.15,2.50,-0.38,-0.35,0.28,0.20,
4.61,2.15,2.50,-0.38,-0.33,0.25,0.18,
4.611,2.15,2.50,-0.38,-0.31,0.22,0.15,
4.62,2.15,2.50,-0.38,-0.29,0.18,0.14,
4.62,2.50,2.47,-0.05,-0.29,0.18,0.14,
4.621,2.50,2.47,-0.05,-0.25,0.15,0.11,
4.621,2.50,2.47,-0.05,-0.21,0.10,0.09,
4.621,2.95,2.52,0.33,-0.21,0.10,0.09,
4.625,2.95,2.52,0.33,-0.17,0.05,0.07,
4.625,2.95,2.52,0.33,-0.12,-0.01,0.05,
4.625,3.30,2.62,0.78,-0.12,-0.01,0.05,
4.626,3.30,2.62,0.78,-0.07,-0.07,0.03,
4.629,3.30,2.62,0.78,-0.02,-0.12,0.01,
4.629,3.57,2.67,1.24,-0.02,-0.12,0.01,
4.631,3.57,2.67,1.24,0.04,-0.17,-0.01,
4.637,3.57,2.67,1.24,0.10,-0.20,-0.03,
4.638,3.81,2.68,1.64,0.10,-0.20,-0.03,
4.638,3.81,2.68,1.64,0.15,-0.22,-0.05,
4.641,3.81,2.68,1.64,0.21,-0.22,-0.07,
4.642,3.98,2.69,1.86,0.21,-0.22,-0.07,
4.642,3.98,2.69,1.86,0.26,-0.21,-0.08,
4.644,3.98,2.69,1.86,0.31,-0.19,-0.10,
4.644,4.02,2.73,1.99,0.31,-0.19,-0.10,
4.647,4.02,2.73,1.99,0.35,-0.17,-0.12,
4.649,4.02,2.73,1.99,0.38,-0.15,-0.14,
4.649,3.86,2.80,2.09,0.38,-0.15,-0.14,
4.651,3.86,2.80,2.09,0.41,-0.13,-0.16,
4.654,3.86,2.80,2.09,0.43,-0.12,-0.18,
4.654,3.71,2.92,2.04,0.43,-0.12,-0.18,
4.656,3.71,2.92,2.04,0.43,-0.11,-0.20,
4.659,3.71,2.92,2.04,0.42,-0.11,-0.22,
4.659,3.35,2.99,1.83,0.42,-0.11,-0.22,
4.661,3.35,2.99,1.83,0.41,-0.11,-0.23,
4.664,3.35,2.99,1.83,0.38,-0.11,-0.23,
4.664,2.90,2.98,1.73,0.38,-0.11,-0.23,
4.667,2.90,2.98,1.73,0.35,-0.10,-0.24,
4.67,2.90,2.98,1.73,0.31,-0.10,-0.24,
4.67,2.32,2.81,1.74,0.31,-0.10,-0.24,
4.671,2.32,2.81,1.74,0.27,-0.09,-0.24,
4.674,2.32,2.81,1.74,0.24,-0.08,-0.23,
4.674,1.59,2.29,1.87,0.24,-0.08,-0.23,
4.676,1.59,2.29,1.87,0.20,-0.06,-0.21,
4.679,1.59,2.29,1.87,0.17,-0.03,-0.20,
4.68,0.97,1.45,2.19,0.17,-0.03,-0.20,
4.681,0.97,1.45,2.19,0.15,0.01,-0.19,
4.686,0.97,1.45,2.19,0.14,0.05,-0.18,
4.686,0.75,0.67,2.54,0.14,0.05,-0.18,
4.687,0.75,0.67,2.54,0.14,0.10,-0.18,
4.689,0.75,0.67,2.54,0.14,0.15,-0.18,
4.689,0.46,-0.14,2.95,0.14,0.15,-0.18,
4.703,0.46,-0.14,2.95,0.15,0.18,-0.18,
4.704,0.46,-0.14,2.95,0.17,0.20,-0.18,
4.704,0.37,-1.16,3.59,0.17,0.20,-0.18,
4.704,0.37,-1.16,3.59,0.21,0.21,-0.20,
4.705,0.81,-2.28,4.52,0.21,0.21,-0.20,
4.705,0.81,-2.28,4.52,0.25,0.19,-0.23,
4.705,0.81,-2.28,4.52,0.30,0.13,-0.27,
4.705,0.81,-2.28,4.52,0.35,0.06,-0.31,
4.706,0.85,-3.69,5.44,0.35,0.06,-0.31,
4.706,0.85,-3.69,5.44,0.41,-0.03,-0.34,
4.711,0.56,-5.38,6.44,0.41,-0.03,-0.34,
4.715,0.56,-5.38,6.44,0.48,-0.14,-0.35,
4.715,0.56,-5.38,6.44,0.56,-0.27,-0.38,
4.715,1.23,-7.55,8.17,0.56,-0.27,-0.38,
4.732,1.23,-7.55,8.17,0.65,-0.45,-0.42,
4.733,1.23,-7.55,8.17,0.76,-0.64,-0.47,
4.733,1.23,-7.55,8.17,0.88,-0.80,-0.53,
4.733,1.23,-7.55,8.17,1.01,-0.89,-0.61,
4.734,1.23,-7.55,8.17,1.13,-0.89,-0.68,
4.734,1.75,-9.55,9.40,1.13,-0.89,-0.68,
4.735,1.31,-11.77,8.95,1.13,-0.89,-0.68,
4.735,1.31,-11.77,8.95,1.23,-0.78,-0.72,
4.736,1.31,-11.77,8.95,1.30,-0.55,-0.75,
4.736,0.30,-12.97,6.65,1.30,-0.55,-0.75,
4.736,0.30,-12.97,6.65,1.33,-0.23,-0.77,
4.737,0.30,-12.97,6.65,1.33,0.15,-0.75,
4.737,-0.47,-13.16,3.84,1.33,0.15,-0.75,
4.737,-0.47,-13.16,3.84,1.30,0.49,-0.72,
4.738,-0.47,-13.16,3.84,1.22,0.78,-0.67,
4.738,-0.96,-12.67,1.27,1.22,0.78,-0.67,
4.74,-0.96,-12.67,1.27,1.12,0.99,-0.61,
4.743,-0.96,-12.67,1.27,0.99,1.13,-0.56,
4.743,-1.23,-11.59,-1.50,0.99,1.13,-0.56,
4.745,-1.23,-11.59,-1.50,0.83,1.20,-0.51,
4.748,-1.82,-10.40,-4.58,0.83,1.20,-0.51,
4.748,-1.82,-10.40,-4.58,0.64,1.21,-0.47,
4.752,-1.82,-10.40,-4.58,0.40,1.15,-0.42,
4.753,-3.18,-9.18,-7.65,0.40,1.15,-0.42,
4.753,-3.18,-9.18,-7.65,0.12,1.01,-0.34,
4.755,-3.18,-9.18,-7.65,-0.17,0.81,-0.25,
4.758,-3.76,-7.60,-8.32,-0.17,0.81,-0.25,
4.758,-3.76,-7.60,-8.32,-0.44,0.62,-0.16,
4.76,-3.76,-7.60,-8.32,-0.66,0.48,-0.07,
4.763,-3.76,-7.60,-8.32,-0.82,0.36,-0.00,
4.763,-3.30,-5.84,-6.46,-0.82,0.36,-0.00,
4.766,-3.30,-5.84,-6.46,-0.91,0.27,0.06,
4.768,-3.30,-5.84,-6.46,-0.95,0.18,0.11,
4.769,-2.88,-4.22,-3.97,-0.95,0.18,0.11,
4.77,-2.88,-4.22,-3.97,-0.95,0.07,0.15,
4.774,-2.88,-4.22,-3.97,-0.92,-0.06,0.20,
4.774,-2.55,-2.64,-1.87,-0.92,-0.06,0.20,
4.776,-2.55,-2.64,-1.87,-0.86,-0.21,0.23,
4.778,-2.55,-2.64,-1.87,-0.78,-0.36,0.27,
4.778,-2.03,-1.25,-0.38,-0.78,-0.36,0.27,
4.781,-2.03,-1.25,-0.38,-0.68,-0.50,0.29,
4.783,-2.03,-1.25,-0.38,-0.57,-0.61,0.30,
4.783,-1.44,-0.32,0.63,-0.57,-0.61,0.30,
4.785,-1.44,-0.32,0.63,-0.44,-0.68,0.30,
4.788,-1.44,-0.32,0.63,-0.31,-0.73,0.28,
4.788,-0.84,0.01,1.38,-0.31,-0.73,0.28,
4.79,-0.84,0.01,1.38,-0.18,-0.76,0.26,
4.793,-0.84,0.01,1.38,-0.05,-0.76,0.24,
4.793,-0.37,0.12,1.61,-0.05,-0.76,0.24,
4.795,-0.37,0.12,1.61,0.07,-0.76,0.21,
4.798,-0.00,0.25,1.51,0.07,-0.76,0.21,
4.799,-0.00,0.25,1.51,0.16,-0.74,0.18,
4.805,-0.00,0.25,1.51,0.25,-0.70,0.14,
4.806,0.18,0.31,1.43,0.25,-0.70,0.14,
4.806,0.18,0.31,1.43,0.32,-0.66,0.11,
4.807,0.18,0.31,1.43,0.38,-0.61,0.07,
4.809,0.18,0.31,1.43,0.43,-0.56,0.04,
4.809,0.19,0.48,1.40,0.43,-0.56,0.04,
4.81,0.19,0.48,1.40,0.46,-0.52,0.01,
4.812,0.19,0.48,1.40,0.49,-0.48,-0.02,
4.813,0.17,0.68,1.35,0.49,-0.48,-0.02,
4.815,0.17,0.68,1.35,0.51,-0.45,-0.05,
4.832,0.17,0.68,1.35,0.52,-0.42,-0.08,
4.832,0.17,0.78,1.20,0.52,-0.42,-0.08,
4.832,0.17,0.78,1.20,0.52,-0.40,-0.11,
4.832,0.17,0.78,1.20,0.51,-0.38,-0.14,
4.832,0.30,0.83,0.84,0.51,-0.38,-0.14,
4.833,0.30,0.83,0.84,0.48,-0.36,-0.16,
4.833,0.50,0.75,0.42,0.48,-0.36,-0.16,
4.833,0.50,0.75,0.42,0.45,-0.36,-0.19,
4.833,0.50,0.75,0.42,0.41,-0.36,-0.21,
4.833,0.50,0.75,0.42,0.37,-0.36,-0.23,
4.833,0.83,0.75,0.12,0.37,-0.36,-0.23,
4.839,0.83,0.75,0.12,0.33,-0.37,-0.25,
4.84,0.83,0.75,0.12,0.29,-0.38,-0.28,
4.84,0.97,0.81,-0.04,0.29,-0.38,-0.28,
4.84,0.97,0.81,-0.04,0.25,-0.40,-0.29,
4.846,1.03,0.92,-0.22,0.25,-0.40,-0.29,
4.846,1.03,0.92,-0.22,0.21,-0.42,-0.31,
4.846,1.03,0.92,-0.22,0.18,-0.45,-0.32,
4.849,1.09,1.03,-0.38,0.18,-0.45,-0.32,
4.849,1.09,1.03,-0.38,0.14,-0.48,-0.33,
4.849,1.09,1.03,-0.38,0.11,-0.51,-0.33,
4.853,1.09,1.03,-0.38,0.08,-0.53,-0.33,
4.854,1.02,1.23,-0.68,0.08,-0.53,-0.33,
4.854,1.02,1.23,-0.68,0.05,-0.56,-0.33,
4.873,1.02,1.23,-0.68,0.02,-0.59,-0.32,
4.874,0.75,1.46,-0.88,0.02,-0.59,-0.32,
4.874,0.75,1.46,-0.88,-0.01,-0.63,-0.31,
4.874,0.18,1.67,-1.09,-0.01,-0.63,-0.31,
4.875,0.18,1.67,-1.09,-0.04,-0.66,-0.28,
4.875,0.18,1.67,-1.09,-0.07,-0.69,-0.26,
4.875,-0.40,1.85,-1.47,-0.07,-0.69,-0.26,
4.875,-0.40,1.85,-1.47,-0.11,-0.72,-0.23,
4.876,-0.40,1.85,-1.47,-0.15,-0.74,-0.20,
4.876,-0.40,1.85,-1.47,-0.19,-0.75,-0.18,
4.876,-0.88,1.89,-1.82,-0.19,-0.75,-0.18,
4.876,-0.88,1.89,-1.82,-0.23,-0.77,-0.15,
4.878,-0.88,1.89,-1.82,-0.27,-0.78,-0.13,
4.879,-1.44,1.98,-1.95,-0.27,-0.78,-0.13,
4.879,-1.44,1.98,-1.95,-0.30,-0.78,-0.11,
4.883,-1.44,1.98,-1.95,-0.34,-0.79,-0.09,
4.883,-1.91,2.08,-2.09,-0.34,-0.79,-0.09,
4.888,-1.91,2.08,-2.09,-0.37,-0.78,-0.07,
4.888,-2.26,2.16,-2.25,-0.37,-0.78,-0.07,
4.888,-2.26,2.16,-2.25,-0.40,-0.78,-0.04,
4.89,-2.26,2.16,-2.25,-0.44,-0.77,-0.02,
4.892,-2.26,2.16,-2.25,-0.47,-0.75,0.00,
4.892,-2.43,2.34,-2.52,-0.47,-0.75,0.00,
4.895,-2.43,2.34,-2.52,-0.50,-0.72,0.02,
4.897,-2.43,2.34,-2.52,-0.54,-0.70,0.04,
4.897,-2.58,2.47,-2.77,-0.54,-0.70,0.04,
4.899,-2.58,2.47,-2.77,-0.58,-0.67,0.05,
4.903,-2.58,2.47,-2.77,-0.61,-0.64,0.07,
4.903,-2.60,2.56,-2.99,-0.61,-0.64,0.07,
4.904,-2.60,2.56,-2.99,-0.65,-0.61,0.07,
4.907,-2.60,2.56,-2.99,-0.68,-0.59,0.08,
4.907,-2.59,2.61,-3.05,-0.68,-0.59,0.08,
4.909,-2.59,2.61,-3.05,-0.71,-0.56,0.08,
4.912,-2.59,2.61,-3.05,-0.73,-0.54,0.08,
4.912,-2.49,2.60,-2.98,-0.73,-0.54,0.08,
