
time,ax,ay,az,wx,wy,wz,
0.002,0.03,0.11,-0.57,0.02,-0.10,0.01,
0.002,0.03,0.11,-0.57,0.02,-0.10,0.01,
0.002,-0.01,0.12,-0.63,0.02,-0.10,0.01,
0.002,-0.01,0.12,-0.63,0.02,-0.09,0.00,
0.003,-0.01,0.12,-0.63,0.02,-0.08,0.00,
0.003,-0.04,0.12,-0.64,0.02,-0.08,0.00,
0.013,-0.04,0.12,-0.64,0.02,-0.08,0.00,
0.014,-0.03,0.11,-0.62,0.02,-0.08,0.00,
0.014,-0.03,0.11,-0.62,0.02,-0.07,0.01,
0.014,-0.03,0.11,-0.62,0.01,-0.06,0.01,
0.014,-0.03,0.11,-0.62,0.01,-0.06,0.01,
0.014,-0.03,0.09,-0.57,0.01,-0.06,0.01,
0.015,-0.03,0.09,-0.57,0.00,-0.05,0.01,
0.015,-0.03,0.09,-0.57,-0.00,-0.05,0.01,
0.015,-0.05,0.06,-0.48,-0.00,-0.05,0.01,
0.017,-0.05,0.06,-0.48,-0.00,-0.04,0.01,
0.02,-0.08,0.06,-0.40,-0.00,-0.04,0.01,
0.02,-0.08,0.06,-0.40,-0.01,-0.04,0.01,
0.024,-0.08,0.06,-0.40,-0.01,-0.04,0.01,
0.025,-0.08,0.06,-0.40,-0.01,-0.04,0.00,
0.025,-0.10,0.03,-0.33,-0.01,-0.04,0.00,
0.027,-0.10,0.03,-0.33,-0.02,-0.04,0.00,
0.03,-0.10,0.03,-0.33,-0.02,-0.05,0.00,
0.03,-0.13,-0.02,-0.20,-0.02,-0.05,0.00,
0.032,-0.13,-0.02,-0.20,-0.02,-0.05,0.00,
0.035,-0.13,-0.02,-0.20,-0.02,-0.06,0.00,
0.035,-0.16,-0.03,-0.10,-0.02,-0.06,0.00,
0.038,-0.16,-0.03,-0.10,-0.02,-0.07,0.00,
0.04,-0.16,-0.03,-0.10,-0.02,-0.07,0.00,
0.041,-0.15,-0.04,-0.01,-0.02,-0.07,0.00,
0.042,-0.15,-0.04,-0.01,-0.01,-0.08,0.01,
0.045,-0.07,-0.05,0.02,-0.01,-0.08,0.01,
0.045,-0.07,-0.05,0.02,-0.01,-0.09,0.00,
0.048,-0.07,-0.05,0.02,-0.01,-0.10,0.00,
0.05,-0.01,-0.06,-0.00,-0.01,-0.10,0.00,
0.051,-0.01,-0.06,-0.00,-0.01,-0.10,0.00,
0.052,-0.01,-0.06,-0.00,-0.00,-0.10,0.00,
0.055,-0.01,-0.06,-0.00,-0.00,-0.10,0.00,
0.056,0.04,-0.12,-0.04,-0.00,-0.10,0.00,
0.057,0.04,-0.12,-0.04,-0.00,-0.10,-0.00,
0.06,0.09,-0.10,-0.05,-0.00,-0.10,-0.00,
0.06,0.09,-0.10,-0.05,-0.00,-0.11,-0.00,
0.063,0.09,-0.10,-0.05,0.00,-0.10,-0.01,
0.065,0.09,-0.10,-0.05,0.00,-0.10,-0.01,
0.065,0.13,-0.08,-0.09,0.00,-0.10,-0.01,
0.067,0.13,-0.08,-0.09,0.00,-0.10,-0.01,
0.071,0.13,-0.08,-0.09,0.00,-0.09,-0.01,
0.071,0.15,-0.06,-0.11,0.00,-0.09,-0.01,
0.072,0.15,-0.06,-0.11,0.00,-0.09,-0.01,
0.074,0.15,-0.06,-0.11,-0.00,-0.08,-0.01,
0.075,0.13,-0.04,-0.12,-0.00,-0.08,-0.01,
0.077,0.13,-0.04,-0.12,-0.00,-0.08,-0.01,
0.079,0.13,-0.04,-0.12,-0.00,-0.08,-0.01,
0.079,0.13,-0.03,-0.13,-0.00,-0.08,-0.01,
0.082,0.13,-0.03,-0.13,-0.01,-0.08,-0.01,
0.084,0.13,-0.03,-0.13,-0.01,-0.08,-0.01,
0.084,0.16,-0.01,-0.13,-0.01,-0.08,-0.01,
0.087,0.16,-0.01,-0.13,-0.01,-0.07,-0.01,
0.09,0.16,-0.01,-0.13,-0.01,-0.07,-0.01,
0.09,0.16,0.02,-0.16,-0.01,-0.07,-0.01,
0.092,0.16,0.02,-0.16,-0.02,-0.07,-0.01,
0.094,0.16,0.02,-0.16,-0.02,-0.06,-0.01,
0.094,0.15,0.04,-0.16,-0.02,-0.06,-0.01,
0.096,0.15,0.04,-0.16,-0.02,-0.05,-0.01,
0.099,0.16,0.07,-0.12,-0.02,-0.05,-0.01,
0.1,0.16,0.07,-0.12,-0.02,-0.05,-0.00,
0.102,0.16,0.07,-0.12,-0.03,-0.04,-0.00,
0.112,0.16,0.07,-0.12,-0.03,-0.04,-0.00,
0.113,0.13,0.06,-0.06,-0.03,-0.04,-0.00,
0.113,0.13,0.06,-0.06,-0.02,-0.03,0.00,
0.113,0.13,0.06,-0.06,-0.02,-0.03,0.01,
0.114,0.12,0.07,-0.01,-0.02,-0.03,0.01,
0.114,0.12,0.07,-0.01,-0.02,-0.03,0.01,
0.114,0.12,0.07,-0.01,-0.02,-0.02,0.01,
0.114,0.12,0.06,0.02,-0.02,-0.02,0.01,
0.116,0.12,0.06,0.02,-0.01,-0.02,0.01,
0.119,0.12,0.06,0.02,-0.01,-0.02,0.01,
0.119,0.09,0.06,0.05,-0.01,-0.02,0.01,
0.122,0.09,0.06,0.05,-0.01,-0.02,0.01,
0.124,0.09,0.06,0.05,-0.01,-0.02,0.02,
0.124,0.05,0.07,0.06,-0.01,-0.02,0.02,
0.126,0.05,0.07,0.06,-0.01,-0.02,0.02,
0.129,0.05,0.07,0.06,-0.00,-0.02,0.02,
0.13,0.03,0.09,0.09,-0.00,-0.02,0.02,
0.132,0.03,0.09,0.09,0.00,-0.03,0.03,
0.134,0.03,0.09,0.09,0.00,-0.03,0.03,
0.134,0.02,0.09,0.11,0.00,-0.03,0.03,
0.137,0.02,0.09,0.11,0.00,-0.04,0.03,
0.139,0.02,0.09,0.11,0.00,-0.05,0.04,
0.139,0.03,0.09,0.10,0.00,-0.05,0.04,
0.141,0.03,0.09,0.10,0.01,-0.05,0.04,
0.145,0.04,0.08,0.10,0.01,-0.05,0.04,
0.157,0.04,0.08,0.10,0.01,-0.06,0.04,
0.157,0.04,0.08,0.10,0.01,-0.07,0.04,
0.157,0.04,0.08,0.10,0.01,-0.07,0.04,
0.158,0.07,0.08,0.07,0.01,-0.07,0.04,
0.158,0.07,0.08,0.07,0.00,-0.08,0.04,
0.158,0.07,0.08,0.07,0.00,-0.08,0.04,
0.158,0.09,0.07,0.00,0.00,-0.08,0.04,
0.158,0.09,0.07,0.00,-0.00,-0.09,0.04,
0.159,0.11,0.09,-0.04,-0.00,-0.09,0.04,
0.159,0.11,0.09,-0.04,-0.00,-0.09,0.04,
0.161,0.11,0.09,-0.04,-0.01,-0.09,0.04,
0.163,0.11,0.09,-0.04,-0.01,-0.09,0.04,
0.164,0.14,0.08,-0.11,-0.01,-0.09,0.04,
0.166,0.14,0.08,-0.11,-0.01,-0.09,0.04,
0.169,0.14,0.08,-0.11,-0.02,-0.09,0.04,
0.169,0.15,0.06,-0.13,-0.02,-0.09,0.04,
0.172,0.15,0.06,-0.13,-0.02,-0.10,0.04,
0.176,0.14,0.06,-0.12,-0.02,-0.10,0.04,
0.176,0.14,0.06,-0.12,-0.03,-0.10,0.04,
0.176,0.14,0.06,-0.12,-0.03,-0.10,0.04,
0.179,0.13,0.10,-0.08,-0.03,-0.10,0.04,
0.179,0.13,0.10,-0.08,-0.03,-0.10,0.04,
0.181,0.13,0.10,-0.08,-0.04,-0.10,0.03,
0.184,0.13,0.10,-0.08,-0.04,-0.10,0.03,
0.184,0.12,0.11,-0.05,-0.04,-0.10,0.03,
0.187,0.12,0.11,-0.05,-0.04,-0.10,0.03,
0.193,0.15,0.12,-0.03,-0.04,-0.10,0.03,
0.194,0.15,0.12,-0.03,-0.04,-0.10,0.03,
0.194,0.15,0.12,-0.03,-0.04,-0.09,0.03,
0.194,0.15,0.12,-0.03,-0.04,-0.08,0.02,
0.194,0.17,0.10,-0.02,-0.04,-0.08,0.02,
0.196,0.17,0.10,-0.02,-0.04,-0.07,0.02,
0.199,0.17,0.10,-0.02,-0.04,-0.06,0.02,
0.199,0.17,0.10,-0.05,-0.04,-0.06,0.02,
0.201,0.17,0.10,-0.05,-0.04,-0.05,0.01,
0.204,0.16,0.08,-0.08,-0.04,-0.05,0.01,
0.204,0.16,0.08,-0.08,-0.03,-0.04,0.01,
0.206,0.16,0.08,-0.08,-0.03,-0.03,0.01,
0.208,0.16,0.08,-0.08,-0.03,-0.02,0.01,
0.209,0.13,0.10,-0.05,-0.03,-0.02,0.01,
0.211,0.13,0.10,-0.05,-0.03,-0.01,0.00,
0.213,0.13,0.10,-0.05,-0.03,0.00,-0.00,
0.213,0.10,0.11,-0.01,-0.03,0.00,-0.00,
0.217,0.10,0.11,-0.01,-0.03,0.01,-0.00,
0.218,0.10,0.11,-0.01,-0.02,0.02,-0.00,
0.218,0.05,0.12,0.09,-0.02,0.02,-0.00,
0.221,0.05,0.12,0.09,-0.02,0.03,-0.01,
0.223,0.05,0.12,0.09,-0.01,0.03,-0.01,
0.223,-0.02,0.13,0.16,-0.01,0.03,-0.01,
0.225,-0.02,0.13,0.16,-0.01,0.03,-0.01,
0.228,-0.02,0.13,0.16,0.00,0.03,-0.01,
0.228,-0.07,0.13,0.21,0.00,0.03,-0.01,
0.233,-0.05,0.13,0.18,0.00,0.03,-0.01,
0.233,-0.05,0.13,0.18,0.01,0.03,-0.01,
0.233,-0.05,0.13,0.18,0.01,0.02,-0.01,
0.235,-0.05,0.13,0.18,0.02,0.02,-0.01,
0.238,-0.05,0.13,0.18,0.02,0.02,-0.01,
0.238,-0.01,0.13,0.11,0.02,0.02,-0.01,
0.241,-0.01,0.13,0.11,0.02,0.02,-0.01,
0.243,-0.01,0.13,0.11,0.02,0.01,-0.01,
0.243,0.02,0.11,0.04,0.02,0.01,-0.01,
0.245,0.02,0.11,0.04,0.02,0.02,-0.01,
0.248,0.02,0.11,0.04,0.02,0.02,-0.01,
0.248,0.02,0.12,-0.02,0.02,0.02,-0.01,
0.25,0.02,0.12,-0.02,0.02,0.01,-0.01,
0.254,0.02,0.12,-0.02,0.01,0.01,-0.01,
0.254,-0.01,0.13,-0.07,0.01,0.01,-0.01,
0.256,-0.01,0.13,-0.07,0.01,0.01,-0.01,
0.258,-0.01,0.13,-0.07,0.01,0.00,-0.01,
0.258,-0.03,0.15,-0.08,0.01,0.00,-0.01,
0.26,-0.03,0.15,-0.08,0.01,0.00,-0.01,
0.262,-0.03,0.15,-0.08,0.00,-0.00,-0.00,
0.263,-0.05,0.13,-0.09,0.00,-0.00,-0.00,
0.265,-0.05,0.13,-0.09,-0.00,-0.01,-0.00,
0.268,-0.05,0.13,-0.09,-0.00,-0.02,-0.00,
0.268,-0.05,0.10,-0.05,-0.00,-0.02,-0.00,
0.271,-0.05,0.10,-0.05,-0.01,-0.02,0.00,
0.273,-0.05,0.10,-0.05,-0.01,-0.03,0.00,
0.273,0.01,0.12,-0.04,-0.01,-0.03,0.00,
0.275,0.01,0.12,-0.04,-0.02,-0.04,0.00,
0.277,0.01,0.12,-0.04,-0.02,-0.04,0.00,
0.278,0.03,0.11,-0.03,-0.02,-0.04,0.00,
0.28,0.03,0.11,-0.03,-0.02,-0.05,0.00,
0.283,0.03,0.11,-0.03,-0.03,-0.05,0.00,
0.283,0.05,0.11,-0.01,-0.03,-0.05,0.00,
0.285,0.05,0.11,-0.01,-0.03,-0.06,0.00,
0.289,0.05,0.11,-0.01,-0.04,-0.06,0.00,
0.289,0.09,0.10,-0.00,-0.04,-0.06,0.00,
0.29,0.09,0.10,-0.00,-0.05,-0.06,-0.00,
0.293,0.09,0.10,-0.00,-0.05,-0.07,-0.00,
0.293,0.11,0.10,0.02,-0.05,-0.07,-0.00,
0.295,0.11,0.10,0.02,-0.05,-0.07,-0.01,
0.297,0.11,0.10,0.02,-0.06,-0.07,-0.01,
0.298,0.11,0.09,0.04,-0.06,-0.07,-0.01,
0.3,0.11,0.09,0.04,-0.06,-0.07,-0.01,
0.302,0.11,0.09,0.04,-0.06,-0.07,-0.01,
0.303,0.07,0.10,0.05,-0.06,-0.07,-0.01,
0.306,0.07,0.10,0.05,-0.06,-0.06,-0.01,
0.308,0.07,0.10,0.05,-0.06,-0.06,-0.02,
0.308,0.04,0.11,0.06,-0.06,-0.06,-0.02,
0.331,0.04,0.11,0.06,-0.06,-0.05,-0.01,
0.331,0.04,0.11,0.06,-0.06,-0.05,-0.01,
0.331,-0.00,0.11,0.12,-0.06,-0.05,-0.01,
0.332,-0.00,0.11,0.12,-0.05,-0.04,-0.01,
0.332,-0.00,0.11,0.12,-0.05,-0.03,-0.01,
0.332,-0.00,0.14,0.17,-0.05,-0.03,-0.01,
0.332,-0.00,0.14,0.17,-0.04,-0.01,-0.01,
0.332,-0.00,0.14,0.17,-0.03,-0.00,-0.01,
0.332,-0.00,0.13,0.22,-0.03,-0.00,-0.01,
0.333,-0.00,0.13,0.22,-0.02,0.01,-0.00,
0.333,-0.00,0.13,0.22,-0.01,0.02,-0.00,
0.333,0.03,0.12,0.22,-0.01,0.02,-0.00,
0.333,0.03,0.12,0.22,-0.00,0.03,-0.00,
0.333,0.03,0.12,0.22,0.01,0.04,-0.00,
0.333,0.07,0.10,0.18,0.01,0.04,-0.00,
0.335,0.07,0.10,0.18,0.02,0.04,0.00,
0.339,0.07,0.10,0.18,0.02,0.05,0.00,
0.339,0.05,0.08,0.13,0.02,0.05,0.00,
0.343,0.05,0.08,0.13,0.03,0.05,0.00,
0.343,0.05,0.08,0.13,0.03,0.06,0.00,
0.343,0.02,0.09,0.08,0.03,0.06,0.00,
0.344,0.02,0.09,0.08,0.04,0.06,0.00,
0.347,0.02,0.09,0.08,0.04,0.06,0.00,
0.347,-0.01,0.08,0.04,0.04,0.06,0.00,
0.349,-0.01,0.08,0.04,0.04,0.06,0.00,
0.352,-0.01,0.08,0.04,0.04,0.05,0.00,
0.352,-0.03,0.07,-0.01,0.04,0.05,0.00,
0.355,-0.03,0.07,-0.01,0.04,0.04,0.00,
0.357,-0.03,0.07,-0.01,0.04,0.04,0.01,
0.357,-0.05,0.06,-0.04,0.04,0.04,0.01,
0.359,-0.05,0.06,-0.04,0.04,0.03,0.00,
0.362,-0.05,0.06,-0.04,0.04,0.02,0.00,
0.362,-0.06,0.04,-0.06,0.04,0.02,0.00,
0.364,-0.06,0.04,-0.06,0.04,0.01,0.00,
0.367,-0.06,0.04,-0.06,0.03,0.01,0.00,
0.367,-0.04,0.03,-0.05,0.03,0.01,0.00,
0.369,-0.04,0.03,-0.05,0.03,0.00,0.00,
0.374,-0.04,0.03,-0.05,0.03,-0.00,0.00,
0.375,-0.04,0.04,-0.05,0.03,-0.00,0.00,
0.375,-0.04,0.04,-0.05,0.03,-0.01,0.00,
0.376,-0.04,0.04,-0.05,0.03,-0.02,0.00,
0.377,-0.03,0.02,-0.03,0.03,-0.02,0.00,
0.379,-0.03,0.02,-0.03,0.02,-0.02,0.00,
0.382,-0.03,0.02,-0.03,0.02,-0.03,-0.00,
0.382,-0.02,0.03,-0.04,0.02,-0.03,-0.00,
0.384,-0.02,0.03,-0.04,0.02,-0.03,-0.00,
0.397,-0.02,0.03,-0.04,0.02,-0.03,-0.00,
0.398,-0.01,0.02,-0.08,0.02,-0.03,-0.00,
0.398,-0.01,0.02,-0.08,0.02,-0.03,-0.00,
0.399,-0.01,0.02,-0.08,0.02,-0.03,-0.00,
0.399,-0.03,0.03,-0.09,0.02,-0.03,-0.00,
0.4,-0.03,0.03,-0.09,0.02,-0.03,-0.00,
0.4,-0.03,0.03,-0.09,0.02,-0.02,-0.00,
0.4,-0.05,0.03,-0.07,0.02,-0.02,-0.00,
0.4,-0.05,0.03,-0.07,0.02,-0.02,0.00,
0.402,-0.05,0.03,-0.07,0.02,-0.02,0.00,
0.403,-0.05,-0.01,-0.04,0.02,-0.02,0.00,
0.405,-0.05,-0.01,-0.04,0.03,-0.02,0.00,
0.41,-0.05,-0.01,-0.04,0.03,-0.02,0.00,
0.41,-0.05,-0.01,-0.04,0.03,-0.02,0.00,
0.41,-0.02,-0.04,-0.04,0.03,-0.02,0.00,
0.411,-0.02,-0.04,-0.04,0.03,-0.02,-0.00,
0.411,0.02,-0.06,-0.07,0.03,-0.02,-0.00,
0.414,0.02,-0.06,-0.07,0.03,-0.02,-0.00,
0.416,0.02,-0.06,-0.07,0.03,-0.02,-0.00,
0.417,0.02,-0.05,-0.08,0.03,-0.02,-0.00,
0.419,0.02,-0.05,-0.08,0.02,-0.02,-0.00,
0.421,0.01,-0.05,-0.06,0.02,-0.02,-0.00,
0.422,0.01,-0.05,-0.06,0.03,-0.01,-0.00,
0.424,0.01,-0.05,-0.06,0.02,-0.01,-0.00,
0.427,-0.03,-0.02,-0.08,0.02,-0.01,-0.00,
0.427,-0.03,-0.02,-0.08,0.03,-0.01,-0.00,
0.43,-0.03,-0.02,-0.08,0.02,-0.01,0.00,
0.432,-0.08,-0.01,-0.13,0.02,-0.01,0.00,
0.432,-0.08,-0.01,-0.13,0.02,-0.01,0.00,
0.434,-0.08,-0.01,-0.13,0.02,-0.01,0.01,
0.437,-0.08,-0.01,-0.13,0.02,-0.02,0.01,
0.437,-0.06,0.00,-0.18,0.02,-0.02,0.01,
0.439,-0.06,0.00,-0.18,0.01,-0.01,0.01,
0.441,-0.06,0.00,-0.18,0.00,-0.01,0.02,
0.441,-0.04,0.00,-0.21,0.00,-0.01,0.02,
0.444,-0.04,0.00,-0.21,-0.00,-0.01,0.02,
0.446,-0.04,0.00,-0.21,-0.01,-0.01,0.02,
0.446,0.02,-0.03,-0.18,-0.01,-0.01,0.02,
0.448,0.02,-0.03,-0.18,-0.01,-0.00,0.02,
0.451,0.02,-0.03,-0.18,-0.02,0.00,0.02,
0.451,0.04,-0.06,-0.14,-0.02,0.00,0.02,
0.454,0.04,-0.06,-0.14,-0.02,0.01,0.02,
0.456,0.04,-0.06,-0.14,-0.02,0.01,0.02,
0.457,0.04,-0.09,-0.08,-0.02,0.01,0.02,
0.458,0.04,-0.09,-0.08,-0.02,0.01,0.02,
0.461,0.04,-0.09,-0.08,-0.03,0.00,0.02,
0.461,0.02,-0.12,-0.03,-0.03,0.00,0.02,
0.463,0.02,-0.12,-0.03,-0.03,-0.00,0.02,
0.466,0.04,-0.15,-0.03,-0.03,-0.00,0.02,
0.466,0.04,-0.15,-0.03,-0.03,-0.00,0.02,
0.468,0.04,-0.15,-0.03,-0.03,-0.01,0.01,
0.472,0.03,-0.14,-0.03,-0.03,-0.01,0.01,
0.472,0.03,-0.14,-0.03,-0.03,-0.01,0.01,
0.474,0.03,-0.14,-0.03,-0.03,-0.01,0.01,
0.49,0.03,-0.14,-0.03,-0.03,-0.01,0.00,
0.49,0.04,-0.12,-0.01,-0.03,-0.01,0.00,
0.491,0.04,-0.12,-0.01,-0.02,-0.02,-0.00,
0.491,0.04,-0.12,-0.01,-0.02,-0.02,-0.00,
0.491,0.05,-0.10,0.03,-0.02,-0.02,-0.00,
0.491,0.05,-0.10,0.03,-0.02,-0.01,-0.01,
0.491,0.05,-0.10,0.03,-0.02,-0.01,-0.01,
0.492,0.06,-0.08,0.06,-0.02,-0.01,-0.01,
0.492,0.06,-0.08,0.06,-0.01,-0.00,-0.01,
0.492,0.06,-0.08,0.06,-0.00,0.00,-0.02,
0.492,0.03,-0.05,0.08,-0.00,0.00,-0.02,
0.498,0.03,-0.05,0.08,0.00,0.01,-0.02,
0.498,0.02,-0.06,0.06,0.00,0.01,-0.02,
0.499,0.02,-0.06,0.06,0.01,0.02,-0.02,
0.499,0.02,-0.06,0.06,0.01,0.02,-0.03,
0.502,0.02,-0.06,0.06,0.01,0.03,-0.03,
0.503,0.04,-0.04,0.04,0.01,0.03,-0.03,
0.51,0.04,-0.04,0.04,0.02,0.03,-0.04,
0.51,0.04,-0.04,0.04,0.02,0.04,-0.04,
0.51,-0.01,-0.01,0.02,0.02,0.04,-0.04,
0.511,-0.01,-0.01,0.02,0.03,0.04,-0.04,
0.511,-0.06,-0.00,-0.00,0.03,0.04,-0.04,
0.511,-0.06,-0.00,-0.00,0.03,0.05,-0.05,
0.513,-0.06,-0.00,-0.00,0.03,0.05,-0.05,
0.515,-0.06,-0.00,-0.00,0.03,0.06,-0.05,
0.516,-0.07,0.04,-0.02,0.03,0.06,-0.05,
0.518,-0.07,0.04,-0.02,0.04,0.06,-0.05,
0.521,-0.07,0.04,-0.02,0.04,0.07,-0.05,
0.522,-0.10,0.08,-0.05,0.04,0.07,-0.05,
0.523,-0.10,0.08,-0.05,0.04,0.07,-0.05,
0.525,-0.10,0.08,-0.05,0.03,0.08,-0.04,
0.525,-0.11,0.12,-0.07,0.03,0.08,-0.04,
0.528,-0.11,0.12,-0.07,0.03,0.08,-0.04,
0.531,-0.10,0.10,-0.11,0.03,0.08,-0.04,
0.531,-0.10,0.10,-0.11,0.03,0.08,-0.04,
0.534,-0.10,0.10,-0.11,0.02,0.08,-0.04,
0.536,-0.09,0.07,-0.15,0.02,0.08,-0.04,
0.537,-0.09,0.07,-0.15,0.02,0.08,-0.04,
0.54,-0.09,0.07,-0.15,0.02,0.08,-0.04,
0.541,-0.08,0.06,-0.18,0.02,0.08,-0.04,
0.541,-0.08,0.06,-0.18,0.01,0.08,-0.04,
0.544,-0.08,0.06,-0.18,0.00,0.08,-0.03,
0.546,-0.03,0.01,-0.21,0.00,0.08,-0.03,
0.547,-0.03,0.01,-0.21,-0.00,0.09,-0.03,
0.548,-0.03,0.01,-0.21,-0.01,0.09,-0.04,
0.55,0.01,0.02,-0.21,-0.01,0.09,-0.04,
0.55,0.01,0.02,-0.21,-0.01,0.09,-0.04,
0.553,0.01,0.02,-0.21,-0.01,0.09,-0.04,
0.555,0.03,0.01,-0.18,-0.01,0.09,-0.04,
0.555,0.03,0.01,-0.18,-0.01,0.09,-0.03,
0.558,0.03,0.01,-0.18,-0.02,0.10,-0.03,
0.56,0.03,0.01,-0.18,-0.02,0.10,-0.03,
0.561,0.09,-0.00,-0.22,-0.02,0.10,-0.03,
0.562,0.09,-0.00,-0.22,-0.02,0.10,-0.03,
0.565,0.09,-0.00,-0.22,-0.02,0.11,-0.03,
0.565,0.13,-0.01,-0.23,-0.02,0.11,-0.03,
0.567,0.13,-0.01,-0.23,-0.02,0.12,-0.04,
0.571,0.13,-0.01,-0.23,-0.02,0.13,-0.04,
0.571,0.15,-0.03,-0.27,-0.02,0.13,-0.04,
0.573,0.15,-0.03,-0.27,-0.02,0.14,-0.04,
0.575,0.15,-0.03,-0.27,-0.02,0.15,-0.04,
0.575,0.14,-0.04,-0.23,-0.02,0.15,-0.04,
0.577,0.14,-0.04,-0.23,-0.02,0.16,-0.05,
0.58,0.14,-0.04,-0.23,-0.02,0.17,-0.05,
0.58,0.11,-0.06,-0.17,-0.02,0.17,-0.05,
0.582,0.11,-0.06,-0.17,-0.02,0.19,-0.05,
0.585,0.11,-0.06,-0.17,-0.02,0.20,-0.06,
0.585,0.09,-0.02,-0.13,-0.02,0.20,-0.06,
0.588,0.09,-0.02,-0.13,-0.02,0.21,-0.06,
0.59,0.09,-0.02,-0.13,-0.02,0.22,-0.07,
0.591,0.08,0.00,-0.10,-0.02,0.22,-0.07,
0.593,0.08,0.00,-0.10,-0.02,0.24,-0.07,
0.595,0.08,0.00,-0.10,-0.02,0.25,-0.08,
0.595,0.06,0.04,-0.09,-0.02,0.25,-0.08,
0.597,0.06,0.04,-0.09,-0.01,0.27,-0.09,
0.6,0.06,0.04,-0.09,-0.01,0.29,-0.10,
0.6,0.03,0.10,-0.10,-0.01,0.29,-0.10,
0.602,0.03,0.10,-0.10,-0.00,0.32,-0.12,
0.607,-0.02,0.03,-0.14,-0.00,0.32,-0.12,
0.608,-0.02,0.03,-0.14,-0.00,0.34,-0.13,
0.608,-0.02,0.03,-0.14,0.00,0.36,-0.14,
0.61,-0.14,-0.04,-0.16,0.00,0.36,-0.14,
0.611,-0.14,-0.04,-0.16,0.01,0.38,-0.15,
0.617,-0.32,0.02,-0.16,0.01,0.38,-0.15,
0.617,-0.32,0.02,-0.16,0.02,0.39,-0.15,
0.617,-0.32,0.02,-0.16,0.02,0.40,-0.16,
0.618,-0.32,0.02,-0.16,0.03,0.42,-0.16,
0.62,-0.47,0.13,-0.29,0.03,0.42,-0.16,
0.621,-0.47,0.13,-0.29,0.04,0.43,-0.16,
0.63,-0.47,0.13,-0.29,0.04,0.46,-0.16,
0.632,-0.47,0.13,-0.29,0.04,0.51,-0.14,
0.632,-1.21,0.68,-0.64,0.04,0.51,-0.14,
0.633,-1.21,0.68,-0.64,0.05,0.55,-0.11,
0.633,-1.21,0.68,-0.64,0.05,0.59,-0.09,
0.633,-1.28,0.80,-0.64,0.05,0.59,-0.09,
0.634,-1.28,0.80,-0.64,0.06,0.63,-0.08,
0.635,-1.28,0.80,-0.64,0.07,0.66,-0.06,
0.635,-1.31,0.74,-0.69,0.07,0.66,-0.06,
0.639,-1.31,0.74,-0.69,0.07,0.69,-0.04,
0.64,-1.31,0.74,-0.69,0.07,0.71,-0.03,
0.668,-1.40,0.67,-0.64,0.07,0.71,-0.03,
0.669,-1.40,0.67,-0.64,0.07,0.72,-0.02,
0.669,-1.40,0.67,-0.64,0.08,0.73,-0.01,
0.669,-1.41,0.61,-0.49,0.08,0.73,-0.01,
0.67,-1.41,0.61,-0.49,0.08,0.73,-0.00,
0.67,-1.41,0.61,-0.49,0.09,0.73,0.01,
0.67,-1.37,0.55,-0.29,0.09,0.73,0.01,
0.671,-1.37,0.55,-0.29,0.09,0.72,0.01,
0.671,-1.30,0.44,-0.18,0.09,0.72,0.01,
0.671,-1.30,0.44,-0.18,0.10,0.71,0.02,
0.672,-1.30,0.44,-0.18,0.10,0.69,0.02,
0.672,-1.26,0.34,-0.11,0.10,0.69,0.02,
0.673,-1.26,0.34,-0.11,0.11,0.68,0.02,
0.673,-1.26,0.34,-0.11,0.11,0.66,0.02,
0.673,-1.21,0.17,-0.10,0.11,0.66,0.02,
0.673,-1.21,0.17,-0.10,0.12,0.64,0.02,
0.674,-1.21,0.17,-0.10,0.12,0.63,0.01,
0.674,-1.21,0.17,-0.10,0.12,0.62,0.00,
0.674,-1.20,-0.10,-0.15,0.12,0.62,0.00,
0.674,-1.20,-0.10,-0.15,0.13,0.61,-0.01,
0.676,-1.20,-0.10,-0.15,0.13,0.60,-0.02,
0.676,-1.19,-0.38,-0.11,0.13,0.60,-0.02,
0.677,-1.19,-0.38,-0.11,0.14,0.59,-0.05,
0.68,-1.19,-0.38,-0.11,0.15,0.59,-0.07,
0.681,-1.13,-0.58,-0.04,0.15,0.59,-0.07,
0.683,-1.13,-0.58,-0.04,0.16,0.59,-0.10,
0.686,-1.05,-0.66,0.05,0.16,0.59,-0.10,
0.686,-1.05,-0.66,0.05,0.17,0.58,-0.13,
0.688,-1.05,-0.66,0.05,0.19,0.58,-0.17,
0.691,-1.05,-0.66,0.05,0.22,0.58,-0.20,
0.692,-0.99,-0.67,-0.01,0.22,0.58,-0.20,
0.694,-0.99,-0.67,-0.01,0.24,0.60,-0.23,
0.694,-0.99,-0.67,-0.01,0.26,0.62,-0.26,
0.695,-0.95,-0.64,-0.17,0.26,0.62,-0.26,
0.696,-0.95,-0.64,-0.17,0.29,0.65,-0.29,
0.699,-0.95,-0.64,-0.17,0.30,0.69,-0.32,
0.699,-0.95,-0.63,-0.46,0.30,0.69,-0.32,
0.701,-0.95,-0.63,-0.46,0.32,0.76,-0.37,
0.71,-0.95,-0.63,-0.46,0.32,0.86,-0.48,
0.711,-0.56,-0.99,-0.96,0.32,0.86,-0.48,
0.712,-0.56,-0.99,-0.96,0.31,0.96,-0.59,
0.712,-0.56,-0.99,-0.96,0.30,1.06,-0.69,
0.712,-0.42,-1.17,-1.19,0.30,1.06,-0.69,
0.713,-0.42,-1.17,-1.19,0.31,1.17,-0.78,
0.714,-0.45,-1.11,-1.28,0.31,1.17,-0.78,
0.715,-0.45,-1.11,-1.28,0.32,1.27,-0.86,
0.718,-0.45,-1.11,-1.28,0.33,1.37,-0.92,
0.719,-0.98,-0.76,-1.41,0.33,1.37,-0.92,
0.719,-0.98,-0.76,-1.41,0.35,1.47,-0.95,
0.723,-0.98,-0.76,-1.41,0.37,1.57,-0.96,
0.724,-0.98,-0.76,-1.41,0.40,1.66,-0.96,
0.724,-1.46,-0.22,-1.33,0.40,1.66,-0.96,
0.726,-1.46,-0.22,-1.33,0.43,1.74,-0.94,
0.728,-1.46,-0.22,-1.33,0.46,1.82,-0.91,
0.729,-1.70,0.14,-1.18,0.46,1.82,-0.91,
0.731,-1.70,0.14,-1.18,0.50,1.89,-0.87,
0.734,-1.70,0.14,-1.18,0.54,1.95,-0.83,
0.734,-1.87,0.27,-1.00,0.54,1.95,-0.83,
0.736,-1.87,0.27,-1.00,0.58,1.99,-0.78,
0.739,-2.04,0.12,-0.80,0.58,1.99,-0.78,
0.742,-2.04,0.12,-0.80,0.62,2.04,-0.74,
0.742,-2.04,0.12,-0.80,0.67,2.07,-0.70,
0.744,-2.04,0.12,-0.80,0.71,2.10,-0.67,
0.744,-2.16,-0.18,-0.69,0.71,2.10,-0.67,
0.746,-2.16,-0.18,-0.69,0.76,2.13,-0.64,
0.749,-2.16,-0.18,-0.69,0.80,2.14,-0.63,
0.75,-2.10,-0.58,-0.55,0.80,2.14,-0.63,
0.752,-2.10,-0.58,-0.55,0.85,2.16,-0.63,
0.754,-2.10,-0.58,-0.55,0.89,2.17,-0.65,
0.755,-1.83,-1.05,-0.43,0.89,2.17,-0.65,
0.757,-1.83,-1.05,-0.43,0.94,2.18,-0.68,
0.759,-1.40,-1.39,-0.38,0.94,2.18,-0.68,
0.76,-1.40,-1.39,-0.38,0.98,2.19,-0.73,
0.762,-1.40,-1.39,-0.38,1.02,2.19,-0.79,
0.763,-1.40,-1.39,-0.38,1.06,2.20,-0.86,
0.764,-0.94,-1.73,-0.45,1.06,2.20,-0.86,
0.766,-0.94,-1.73,-0.45,1.10,2.21,-0.93,
0.768,-0.94,-1.73,-0.45,1.14,2.23,-1.03,
0.769,-0.46,-2.13,-0.60,1.14,2.23,-1.03,
0.772,-0.46,-2.13,-0.60,1.19,2.26,-1.13,
0.774,-0.46,-2.13,-0.60,1.23,2.31,-1.25,
0.775,-0.04,-2.55,-0.68,1.23,2.31,-1.25,
0.776,-0.04,-2.55,-0.68,1.27,2.36,-1.36,
0.778,-0.04,-2.55,-0.68,1.31,2.41,-1.46,
0.779,0.29,-2.71,-0.72,1.31,2.41,-1.46,
0.781,0.29,-2.71,-0.72,1.36,2.47,-1.56,
0.783,0.29,-2.71,-0.72,1.40,2.54,-1.66,
0.784,0.52,-2.96,-0.74,1.40,2.54,-1.66,
0.786,0.52,-2.96,-0.74,1.45,2.61,-1.75,
0.789,0.67,-3.30,-0.69,1.45,2.61,-1.75,
0.79,0.67,-3.30,-0.69,1.51,2.68,-1.84,
0.791,0.67,-3.30,-0.69,1.57,2.75,-1.93,
0.794,0.88,-3.67,-0.66,1.57,2.75,-1.93,
0.794,0.88,-3.67,-0.66,1.64,2.81,-2.02,
0.796,0.88,-3.67,-0.66,1.71,2.87,-2.10,
0.798,0.88,-3.67,-0.66,1.79,2.93,-2.20,
0.798,1.18,-4.03,-0.57,1.79,2.93,-2.20,
0.8,1.18,-4.03,-0.57,1.88,2.97,-2.29,
0.803,1.62,-4.35,-0.47,1.88,2.97,-2.29,
0.804,1.62,-4.35,-0.47,1.97,3.02,-2.39,
0.829,1.62,-4.35,-0.47,2.06,3.07,-2.50,
0.83,2.08,-4.59,-0.63,2.06,3.07,-2.50,
0.83,2.08,-4.59,-0.63,2.16,3.12,-2.61,
0.83,2.08,-4.59,-0.63,2.25,3.19,-2.72,
0.832,1.88,-4.99,-1.02,2.25,3.19,-2.72,
0.832,1.88,-4.99,-1.02,2.35,3.29,-2.82,
0.832,1.88,-4.99,-1.02,2.44,3.40,-2.92,
0.832,1.39,-5.36,-1.19,2.44,3.40,-2.92,
0.832,1.39,-5.36,-1.19,2.52,3.52,-3.00,
0.832,1.39,-5.36,-1.19,2.61,3.65,-3.08,
0.833,1.45,-5.65,-1.20,2.61,3.65,-3.08,
0.833,1.45,-5.65,-1.20,2.69,3.79,-3.16,
0.833,1.45,-5.65,-1.20,2.78,3.93,-3.24,
0.833,1.55,-5.39,-1.24,2.78,3.93,-3.24,
0.835,1.55,-5.39,-1.24,2.86,4.07,-3.31,
0.835,1.55,-5.39,-1.24,2.95,4.22,-3.38,
0.836,1.44,-5.23,-1.37,2.95,4.22,-3.38,
0.836,1.44,-5.23,-1.37,3.04,4.37,-3.44,
0.836,1.44,-5.23,-1.37,3.13,4.54,-3.49,
0.842,0.94,-5.21,-1.43,3.13,4.54,-3.49,
0.844,0.94,-5.21,-1.43,3.23,4.71,-3.53,
0.845,0.94,-5.21,-1.43,3.32,4.88,-3.56,
0.845,0.94,-5.21,-1.43,3.42,5.04,-3.59,
0.845,0.53,-5.15,-1.25,3.42,5.04,-3.59,
0.846,0.53,-5.15,-1.25,3.52,5.18,-3.61,
0.849,0.53,-5.15,-1.25,3.61,5.31,-3.62,
0.849,0.40,-5.07,-1.11,3.61,5.31,-3.62,
0.851,0.40,-5.07,-1.11,3.71,5.42,-3.62,
0.857,0.40,-5.07,-1.11,3.79,5.51,-3.62,
0.857,0.46,-4.99,-1.06,3.79,5.51,-3.62,
0.858,0.46,-4.99,-1.06,3.87,5.58,-3.63,
0.858,0.46,-4.99,-1.06,3.94,5.64,-3.63,
0.858,0.75,-5.12,-1.02,3.94,5.64,-3.63,
0.863,0.75,-5.12,-1.02,4.01,5.67,-3.64,
0.863,0.75,-5.12,-1.02,4.07,5.68,-3.66,
0.863,1.28,-5.39,-0.94,4.07,5.68,-3.66,
0.865,1.28,-5.39,-0.94,4.13,5.68,-3.68,
0.867,1.28,-5.39,-0.94,4.18,5.66,-3.72,
0.867,1.90,-5.68,-0.87,4.18,5.66,-3.72,
0.871,1.90,-5.68,-0.87,4.22,5.62,-3.76,
0.873,1.90,-5.68,-0.87,4.25,5.56,-3.81,
0.874,2.47,-6.00,-0.71,4.25,5.56,-3.81,
0.875,2.47,-6.00,-0.71,4.28,5.49,-3.87,
0.877,2.47,-6.00,-0.71,4.31,5.41,-3.93,
0.877,2.95,-6.28,-0.58,4.31,5.41,-3.93,
0.879,2.95,-6.28,-0.58,4.33,5.32,-4.01,
0.882,2.95,-6.28,-0.58,4.34,5.21,-4.08,
0.882,3.37,-6.55,-0.42,4.34,5.21,-4.08,
0.884,3.37,-6.55,-0.42,4.34,5.10,-4.16,
0.89,3.37,-6.55,-0.42,4.35,4.98,-4.23,
0.891,3.59,-6.84,-0.14,4.35,4.98,-4.23,
0.891,3.59,-6.84,-0.14,4.35,4.86,-4.30,
0.892,3.79,-7.18,0.21,4.35,4.86,-4.30,
0.892,3.79,-7.18,0.21,4.35,4.74,-4.38,
0.896,3.79,-7.18,0.21,4.36,4.61,-4.47,
0.898,4.12,-7.45,0.51,4.36,4.61,-4.47,
0.898,4.12,-7.45,0.51,4.37,4.47,-4.57,
0.9,4.12,-7.45,0.51,4.38,4.33,-4.66,
0.903,4.12,-7.45,0.51,4.40,4.19,-4.76,
0.903,4.20,-7.38,0.83,4.40,4.19,-4.76,
0.912,4.20,-7.38,0.83,4.43,4.04,-4.86,
0.912,4.20,-7.38,0.83,4.46,3.90,-4.96,
0.912,4.35,-7.61,1.01,4.46,3.90,-4.96,
0.912,4.35,-7.61,1.01,4.49,3.77,-5.05,
0.912,4.35,-7.61,1.01,4.51,3.67,-5.15,
0.913,4.16,-8.09,0.51,4.51,3.67,-5.15,
0.915,4.16,-8.09,0.51,4.52,3.59,-5.24,
0.917,4.16,-8.09,0.51,4.53,3.52,-5.32,
0.917,3.59,-8.15,0.21,4.53,3.52,-5.32,
0.919,3.59,-8.15,0.21,4.53,3.44,-5.41,
0.923,3.20,-7.88,0.19,4.53,3.44,-5.41,
0.923,3.20,-7.88,0.19,4.53,3.37,-5.49,
0.925,3.20,-7.88,0.19,4.53,3.29,-5.57,
0.927,3.20,-7.88,0.19,4.52,3.21,-5.65,
0.927,2.70,-7.53,0.22,4.52,3.21,-5.65,
0.929,2.70,-7.53,0.22,4.51,3.13,-5.71,
0.932,2.70,-7.53,0.22,4.50,3.04,-5.77,
0.932,1.97,-7.21,0.25,4.50,3.04,-5.77,
0.934,1.97,-7.21,0.25,4.48,2.94,-5.82,
0.937,1.97,-7.21,0.25,4.46,2.85,-5.85,
0.937,1.26,-6.94,0.06,4.46,2.85,-5.85,
0.94,1.26,-6.94,0.06,4.43,2.75,-5.88,
0.942,1.26,-6.94,0.06,4.39,2.66,-5.89,
0.942,0.65,-6.54,-0.20,4.39,2.66,-5.89,
0.944,0.65,-6.54,-0.20,4.34,2.57,-5.90,
0.947,0.65,-6.54,-0.20,4.29,2.47,-5.91,
0.947,0.26,-5.96,-0.47,4.29,2.47,-5.91,
0.949,0.26,-5.96,-0.47,4.23,2.35,-5.91,
0.952,0.26,-5.96,-0.47,4.16,2.23,-5.92,
0.952,-0.17,-5.63,-0.70,4.16,2.23,-5.92,
0.955,-0.17,-5.63,-0.70,4.08,2.08,-5.93,
0.957,-0.58,-5.52,-0.81,4.08,2.08,-5.93,
0.958,-0.58,-5.52,-0.81,3.99,1.93,-5.93,
0.96,-0.58,-5.52,-0.81,3.89,1.76,-5.94,
0.963,-0.92,-5.44,-0.86,3.89,1.76,-5.94,
0.963,-0.92,-5.44,-0.86,3.79,1.58,-5.95,
0.965,-0.92,-5.44,-0.86,3.68,1.40,-5.96,
0.967,-0.92,-5.44,-0.86,3.56,1.23,-5.95,
0.967,-1.30,-5.03,-0.95,3.56,1.23,-5.95,
0.969,-1.30,-5.03,-0.95,3.44,1.05,-5.95,
0.993,-1.68,-4.30,-1.05,3.44,1.05,-5.95,
0.993,-1.68,-4.30,-1.05,3.32,0.89,-5.94,
0.993,-1.68,-4.30,-1.05,3.20,0.73,-5.93,
0.994,-1.68,-4.30,-1.05,3.07,0.58,-5.92,
0.994,-2.01,-3.55,-1.28,3.07,0.58,-5.92,
0.994,-2.01,-3.55,-1.28,2.94,0.43,-5.89,
0.994,-2.33,-2.95,-1.46,2.94,0.43,-5.89,
0.995,-2.33,-2.95,-1.46,2.80,0.29,-5.87,
0.995,-2.33,-2.95,-1.46,2.65,0.16,-5.84,
0.995,-2.33,-2.95,-1.46,2.50,0.03,-5.80,
0.995,-2.76,-2.50,-1.58,2.50,0.03,-5.80,
0.996,-2.76,-2.50,-1.58,2.35,-0.10,-5.76,
0.996,-2.76,-2.50,-1.58,2.20,-0.22,-5.72,
0.996,-3.25,-1.95,-1.72,2.20,-0.22,-5.72,
0.996,-3.25,-1.95,-1.72,2.05,-0.34,-5.67,
0.997,-3.25,-1.95,-1.72,1.90,-0.44,-5.61,
0.997,-3.76,-1.16,-1.83,1.90,-0.44,-5.61,
0.999,-3.76,-1.16,-1.83,1.76,-0.53,-5.55,
1.002,-3.76,-1.16,-1.83,1.61,-0.61,-5.48,
1.002,-4.45,-0.37,-1.89,1.61,-0.61,-5.48,
1.004,-4.45,-0.37,-1.89,1.47,-0.67,-5.40,
1.011,-5.19,0.39,-1.94,1.47,-0.67,-5.40,
1.012,-5.19,0.39,-1.94,1.33,-0.72,-5.31,
1.013,-5.19,0.39,-1.94,1.20,-0.76,-5.21,
1.013,-5.19,0.39,-1.94,1.07,-0.79,-5.11,
1.013,-5.93,1.16,-1.88,1.07,-0.79,-5.11,
1.017,-5.93,1.16,-1.88,0.94,-0.82,-5.00,
1.017,-6.61,1.85,-1.69,0.94,-0.82,-5.00,
1.018,-6.61,1.85,-1.69,0.81,-0.84,-4.89,
1.019,-6.61,1.85,-1.69,0.69,-0.85,-4.76,
1.022,-7.15,2.45,-1.31,0.69,-0.85,-4.76,
1.022,-7.15,2.45,-1.31,0.58,-0.86,-4.64,
1.031,-7.15,2.45,-1.31,0.47,-0.87,-4.51,
1.032,-7.15,2.45,-1.31,0.37,-0.88,-4.38,
1.032,-7.59,2.87,-0.68,0.37,-0.88,-4.38,
1.033,-7.59,2.87,-0.68,0.29,-0.88,-4.25,
1.033,-7.77,3.16,0.11,0.29,-0.88,-4.25,
1.034,-7.77,3.16,0.11,0.21,-0.89,-4.13,
1.034,-7.77,3.16,0.11,0.14,-0.91,-4.01,
1.036,-7.77,3.16,0.11,0.09,-0.92,-3.90,
1.036,-7.84,3.35,0.88,0.09,-0.92,-3.90,
1.039,-7.84,3.35,0.88,0.04,-0.94,-3.79,
1.043,-7.84,3.35,0.88,0.00,-0.96,-3.70,
1.043,-7.93,3.53,1.48,0.00,-0.96,-3.70,
1.044,-7.93,3.53,1.48,-0.02,-0.98,-3.60,
1.046,-8.19,3.82,2.07,-0.02,-0.98,-3.60,
1.046,-8.19,3.82,2.07,-0.04,-1.00,-3.49,
1.05,-8.19,3.82,2.07,-0.04,-1.02,-3.37,
1.051,-8.19,3.82,2.07,-0.04,-1.03,-3.25,
1.051,-8.62,4.11,2.61,-0.04,-1.03,-3.25,
1.053,-8.62,4.11,2.61,-0.02,-1.04,-3.12,
1.057,-8.96,4.46,3.07,-0.02,-1.04,-3.12,
1.058,-8.96,4.46,3.07,0.01,-1.04,-3.00,
1.06,-8.96,4.46,3.07,0.05,-1.03,-2.88,
1.062,-9.07,4.85,3.34,0.05,-1.03,-2.88,
1.062,-9.07,4.85,3.34,0.09,-1.01,-2.77,
1.064,-9.07,4.85,3.34,0.15,-1.00,-2.66,
1.066,-9.07,4.85,3.34,0.20,-0.97,-2.55,
1.067,-9.20,5.17,3.34,0.20,-0.97,-2.55,
1.068,-9.20,5.17,3.34,0.26,-0.95,-2.44,
1.071,-9.20,5.17,3.34,0.32,-0.92,-2.33,
1.071,-9.35,5.49,3.11,0.32,-0.92,-2.33,
1.074,-9.35,5.49,3.11,0.38,-0.89,-2.22,
1.076,-9.30,5.81,2.69,0.38,-0.89,-2.22,
1.076,-9.30,5.81,2.69,0.43,-0.85,-2.11,
1.078,-9.30,5.81,2.69,0.48,-0.81,-2.01,
1.081,-9.30,5.81,2.69,0.52,-0.77,-1.91,
1.081,-9.11,6.03,2.25,0.52,-0.77,-1.91,
1.083,-9.11,6.03,2.25,0.56,-0.73,-1.81,
1.086,-9.17,6.31,1.00,0.56,-0.73,-1.81,
1.086,-9.17,6.31,1.00,0.59,-0.68,-1.72,
1.088,-9.17,6.31,1.00,0.58,-0.60,-1.61,
1.09,-9.03,6.73,-0.22,0.58,-0.60,-1.61,
1.091,-9.03,6.73,-0.22,0.57,-0.55,-1.51,
1.093,-9.03,6.73,-0.22,0.57,-0.53,-1.42,
1.096,-9.03,6.73,-0.22,0.57,-0.52,-1.33,
1.096,-8.64,6.78,-0.20,0.57,-0.52,-1.33,
1.098,-8.64,6.78,-0.20,0.59,-0.55,-1.25,
1.1,-8.64,6.78,-0.20,0.63,-0.58,-1.18,
1.101,-8.41,6.51,0.28,0.63,-0.58,-1.18,
1.103,-8.41,6.51,0.28,0.66,-0.61,-1.10,
1.111,-8.45,6.44,0.05,0.66,-0.61,-1.10,
1.111,-8.45,6.44,0.05,0.69,-0.63,-1.02,
1.112,-8.45,6.44,0.05,0.69,-0.63,-0.93,
1.112,-8.45,6.44,0.05,0.69,-0.63,-0.84,
1.112,-8.53,6.71,-0.73,0.69,-0.63,-0.84,
1.118,-8.58,6.81,-1.66,0.69,-0.63,-0.84,
1.118,-8.58,6.81,-1.66,0.68,-0.62,-0.74,
1.119,-8.58,6.81,-1.66,0.65,-0.61,-0.64,
1.119,-8.58,6.81,-1.66,0.61,-0.62,-0.54,
1.121,-8.68,6.80,-2.57,0.61,-0.62,-0.54,
1.121,-8.68,6.80,-2.57,0.56,-0.62,-0.44,
1.136,-8.68,6.80,-2.57,0.50,-0.63,-0.33,
1.137,-8.56,6.86,-3.06,0.50,-0.63,-0.33,
1.137,-8.56,6.86,-3.06,0.45,-0.64,-0.23,
1.137,-8.56,6.86,-3.06,0.39,-0.66,-0.13,
1.137,-8.56,6.86,-3.06,0.33,-0.69,-0.04,
1.137,-8.34,6.74,-3.61,0.33,-0.69,-0.04,
1.137,-8.34,6.74,-3.61,0.26,-0.73,0.05,
1.138,-8.34,6.74,-3.61,0.19,-0.78,0.14,
1.153,-7.93,6.49,-4.08,0.19,-0.78,0.14,
1.153,-7.93,6.49,-4.08,0.11,-0.84,0.23,
1.153,-7.93,6.49,-4.08,0.03,-0.90,0.31,
1.153,-7.47,6.20,-4.37,0.03,-0.90,0.31,
1.153,-7.47,6.20,-4.37,-0.05,-0.96,0.39,
1.154,-7.47,6.20,-4.37,-0.13,-1.02,0.47,
1.154,-6.89,5.78,-4.59,-0.13,-1.02,0.47,
1.154,-6.89,5.78,-4.59,-0.22,-1.08,0.54,
1.154,-6.89,5.78,-4.59,-0.29,-1.14,0.61,
1.154,-6.14,5.42,-4.71,-0.29,-1.14,0.61,
1.154,-6.14,5.42,-4.71,-0.36,-1.18,0.67,
1.156,-6.14,5.42,-4.71,-0.43,-1.22,0.72,
1.156,-5.21,5.02,-4.69,-0.43,-1.22,0.72,
1.158,-5.21,5.02,-4.69,-0.48,-1.24,0.76,
1.16,-5.21,5.02,-4.69,-0.52,-1.26,0.80,
1.161,-4.26,4.50,-4.45,-0.52,-1.26,0.80,
1.163,-4.26,4.50,-4.45,-0.54,-1.25,0.83,
1.165,-4.26,4.50,-4.45,-0.56,-1.24,0.85,
1.165,-3.32,4.03,-4.24,-0.56,-1.24,0.85,
1.168,-3.32,4.03,-4.24,-0.56,-1.22,0.87,
1.171,-3.32,4.03,-4.24,-0.55,-1.18,0.88,
1.171,-2.45,3.62,-4.16,-0.55,-1.18,0.88,
1.173,-2.45,3.62,-4.16,-0.53,-1.13,0.89,
1.175,-2.45,3.62,-4.16,-0.51,-1.06,0.91,
1.175,-1.74,3.41,-4.06,-0.51,-1.06,0.91,
1.179,-1.74,3.41,-4.06,-0.47,-0.98,0.93,
1.18,-1.74,3.41,-4.06,-0.43,-0.88,0.95,
1.18,-0.93,3.23,-4.08,-0.43,-0.88,0.95,
1.182,-0.93,3.23,-4.08,-0.39,-0.76,0.96,
1.185,-0.93,3.23,-4.08,-0.35,-0.62,0.96,
1.185,-0.01,2.87,-4.28,-0.35,-0.62,0.96,
1.187,-0.01,2.87,-4.28,-0.30,-0.47,0.96,
1.19,0.86,2.45,-4.42,-0.30,-0.47,0.96,
1.191,0.86,2.45,-4.42,-0.26,-0.30,0.94,
1.192,0.86,2.45,-4.42,-0.22,-0.13,0.93,
1.195,0.86,2.45,-4.42,-0.17,0.04,0.90,
1.195,1.49,2.11,-4.50,-0.17,0.04,0.90,
1.197,1.49,2.11,-4.50,-0.13,0.22,0.88,
1.199,1.49,2.11,-4.50,-0.09,0.40,0.84,
1.2,2.03,1.79,-4.65,-0.09,0.40,0.84,
1.202,2.03,1.79,-4.65,-0.05,0.58,0.81,
1.205,2.03,1.79,-4.65,-0.01,0.77,0.78,
1.205,2.28,1.49,-4.71,-0.01,0.77,0.78,
1.209,2.28,1.49,-4.71,0.02,0.95,0.75,
1.211,2.10,1.22,-4.65,0.02,0.95,0.75,
1.211,2.10,1.22,-4.65,0.05,1.14,0.73,
1.212,2.10,1.22,-4.65,0.08,1.34,0.71,
1.215,1.74,1.05,-4.53,0.08,1.34,0.71,
1.215,1.74,1.05,-4.53,0.11,1.53,0.70,
1.218,1.74,1.05,-4.53,0.12,1.72,0.69,
1.22,1.74,1.05,-4.53,0.14,1.88,0.68,
1.22,1.26,0.97,-4.40,0.14,1.88,0.68,
1.227,1.26,0.97,-4.40,0.14,2.03,0.67,
1.227,1.26,0.97,-4.40,0.14,2.15,0.65,
1.227,0.99,0.81,-4.30,0.14,2.15,0.65,
1.227,0.99,0.81,-4.30,0.12,2.23,0.63,
1.231,0.49,0.64,-3.94,0.12,2.23,0.63,
1.231,0.49,0.64,-3.94,0.08,2.27,0.61,
1.233,0.49,0.64,-3.94,0.03,2.27,0.60,
1.234,0.08,0.64,-3.37,0.03,2.27,0.60,
1.234,0.08,0.64,-3.37,-0.02,2.23,0.60,
1.237,0.08,0.64,-3.37,-0.07,2.16,0.59,
1.239,-0.12,0.60,-2.67,-0.07,2.16,0.59,
1.239,-0.12,0.60,-2.67,-0.14,2.05,0.60,
1.242,-0.12,0.60,-2.67,-0.20,1.93,0.60,
1.244,-0.34,0.86,-1.97,-0.20,1.93,0.60,
1.245,-0.34,0.86,-1.97,-0.27,1.77,0.62,
1.246,-0.34,0.86,-1.97,-0.33,1.61,0.63,
1.249,-0.77,0.83,-0.10,-0.33,1.61,0.63,
1.249,-0.77,0.83,-0.10,-0.36,1.42,0.65,
1.251,-0.77,0.83,-0.10,-0.35,1.21,0.68,
1.254,-0.77,0.83,-0.10,-0.34,1.01,0.73,
1.254,-1.34,0.69,1.41,-0.34,1.01,0.73,
1.257,-1.34,0.69,1.41,-0.32,0.84,0.76,
1.259,-1.34,0.69,1.41,-0.29,0.72,0.79,
1.259,-0.87,0.82,1.82,-0.29,0.72,0.79,
1.261,-0.87,0.82,1.82,-0.26,0.63,0.81,
1.264,-0.87,0.82,1.82,-0.24,0.56,0.83,
1.264,-0.27,0.99,1.89,-0.24,0.56,0.83,
1.266,-0.27,0.99,1.89,-0.21,0.51,0.85,
1.27,-0.27,0.99,1.89,-0.18,0.46,0.85,
1.27,0.80,0.76,1.90,-0.18,0.46,0.85,
1.271,0.80,0.76,1.90,-0.15,0.43,0.85,
1.277,1.36,0.30,1.25,-0.15,0.43,0.85,
1.277,1.36,0.30,1.25,-0.13,0.41,0.84,
1.277,1.36,0.30,1.25,-0.11,0.42,0.84,
1.279,1.36,0.30,1.25,-0.11,0.44,0.83,
1.279,1.66,0.45,0.24,-0.11,0.44,0.83,
1.281,1.66,0.45,0.24,-0.11,0.47,0.82,
1.284,1.91,0.33,-0.65,-0.11,0.47,0.82,
1.284,1.91,0.33,-0.65,-0.12,0.52,0.81,
1.286,1.91,0.33,-0.65,-0.14,0.57,0.80,
1.293,2.04,-0.16,-1.07,-0.14,0.57,0.80,
1.294,2.04,-0.16,-1.07,-0.16,0.64,0.78,
1.294,2.04,-0.16,-1.07,-0.19,0.69,0.76,
1.294,2.04,-0.16,-1.07,-0.22,0.75,0.72,
1.295,2.61,-0.63,-1.21,-0.22,0.75,0.72,
1.297,2.61,-0.63,-1.21,-0.25,0.81,0.66,
1.299,2.61,-0.63,-1.21,-0.28,0.84,0.61,
1.299,2.91,-1.14,-1.00,-0.28,0.84,0.61,
1.32,2.91,-1.14,-1.00,-0.31,0.86,0.55,
1.32,2.91,-1.14,-1.00,-0.33,0.85,0.50,
1.321,2.73,-1.82,-0.49,-0.33,0.85,0.50,
1.321,2.73,-1.82,-0.49,-0.35,0.84,0.44,
1.321,2.73,-1.82,-0.49,-0.38,0.81,0.38,
1.321,2.56,-2.36,-0.13,-0.38,0.81,0.38,
1.322,2.56,-2.36,-0.13,-0.40,0.78,0.31,
1.322,2.21,-2.79,0.13,-0.40,0.78,0.31,
1.322,2.21,-2.79,0.13,-0.43,0.74,0.25,
1.322,2.21,-2.79,0.13,-0.46,0.70,0.18,
1.323,2.21,-2.79,0.13,-0.48,0.64,0.12,
1.323,1.77,-3.20,0.56,-0.48,0.64,0.12,
1.323,1.77,-3.20,0.56,-0.50,0.58,0.06,
1.324,1.77,-3.20,0.56,-0.52,0.51,0.01,
1.325,0.37,-3.99,1.06,-0.52,0.51,0.01,
1.326,0.37,-3.99,1.06,-0.53,0.44,-0.01,
1.328,0.37,-3.99,1.06,-0.53,0.37,-0.01,
1.329,-1.29,-4.11,1.70,-0.53,0.37,-0.01,
1.331,-1.29,-4.11,1.70,-0.52,0.30,0.01,
1.334,-1.29,-4.11,1.70,-0.51,0.22,0.04,
1.335,-2.24,-3.37,2.33,-0.51,0.22,0.04,
1.337,-2.24,-3.37,2.33,-0.48,0.13,0.07,
1.339,-2.24,-3.37,2.33,-0.44,0.04,0.09,
1.34,-2.66,-3.16,2.59,-0.44,0.04,0.09,
1.341,-2.66,-3.16,2.59,-0.41,-0.02,0.12,
1.344,-2.66,-3.16,2.59,-0.39,-0.08,0.13,
1.344,-2.73,-3.05,2.39,-0.39,-0.08,0.13,
1.346,-2.73,-3.05,2.39,-0.34,-0.18,0.18,
1.348,-2.73,-3.05,2.39,-0.27,-0.27,0.24,
1.349,-3.80,-3.46,3.22,-0.27,-0.27,0.24,
1.351,-3.80,-3.46,3.22,-0.23,-0.32,0.27,
1.353,-3.80,-3.46,3.22,-0.21,-0.32,0.29,
1.353,-2.35,-3.04,1.58,-0.21,-0.32,0.29,
1.356,-2.35,-3.04,1.58,-0.20,-0.29,0.29,
1.358,-2.35,-3.04,1.58,-0.21,-0.25,0.28,
1.359,-1.08,-2.88,-0.06,-0.21,-0.25,0.28,
1.36,-1.08,-2.88,-0.06,-0.23,-0.21,0.27,
1.363,-1.08,-2.88,-0.06,-0.25,-0.17,0.25,
1.363,-0.01,-2.72,-0.95,-0.25,-0.17,0.25,
1.366,-0.01,-2.72,-0.95,-0.25,-0.13,0.23,
1.368,-0.01,-2.72,-0.95,-0.24,-0.10,0.21,
1.368,0.35,-2.26,-0.81,-0.24,-0.10,0.21,
1.371,0.35,-2.26,-0.81,-0.23,-0.06,0.20,
1.373,0.35,-2.26,-0.81,-0.22,-0.02,0.19,
1.374,0.17,-2.27,-1.45,-0.22,-0.02,0.19,
1.376,0.17,-2.27,-1.45,-0.20,0.02,0.17,
1.378,0.17,-2.27,-1.45,-0.19,0.06,0.15,
1.378,0.10,-2.48,-1.66,-0.19,0.06,0.15,
1.38,0.10,-2.48,-1.66,-0.18,0.11,0.13,
1.383,0.10,-2.48,-1.66,-0.16,0.16,0.11,
1.383,-0.01,-2.39,-1.53,-0.16,0.16,0.11,
1.385,-0.01,-2.39,-1.53,-0.15,0.22,0.10,
1.388,-0.01,-2.39,-1.53,-0.13,0.27,0.10,
1.388,-0.26,-2.26,-1.38,-0.13,0.27,0.10,
1.391,-0.26,-2.26,-1.38,-0.11,0.32,0.09,
1.393,-0.41,-2.10,-1.22,-0.11,0.32,0.09,
1.393,-0.41,-2.10,-1.22,-0.08,0.37,0.08,
1.395,-0.41,-2.10,-1.22,-0.06,0.41,0.08,
1.398,-0.41,-2.10,-1.22,-0.04,0.45,0.08,
1.398,-0.57,-1.93,-1.05,-0.04,0.45,0.08,
1.4,-0.57,-1.93,-1.05,-0.02,0.49,0.08,
1.403,-0.57,-1.93,-1.05,-0.00,0.55,0.08,
1.403,-0.61,-1.80,-1.04,-0.00,0.55,0.08,
1.405,-0.61,-1.80,-1.04,0.02,0.62,0.08,
1.409,-0.61,-1.80,-1.04,0.05,0.70,0.10,
1.409,-0.76,-1.63,-0.72,0.05,0.70,0.10,
1.412,-0.76,-1.63,-0.72,0.09,0.80,0.12,
1.413,-0.76,-1.63,-0.72,0.14,0.93,0.14,
1.415,-0.75,-1.56,0.15,0.14,0.93,0.14,
1.415,-0.75,-1.56,0.15,0.20,1.06,0.15,
1.418,-0.75,-1.56,0.15,0.29,1.22,0.18,
1.418,-0.77,-1.71,1.51,0.29,1.22,0.18,
1.42,-0.77,-1.71,1.51,0.39,1.38,0.20,
1.429,-0.77,-1.71,1.51,0.50,1.57,0.21,
1.43,-0.61,-2.02,2.79,0.50,1.57,0.21,
1.43,-0.61,-2.02,2.79,0.63,1.76,0.24,
1.431,-0.61,-2.02,2.79,0.77,1.97,0.27,
1.431,-0.31,-2.28,4.05,0.77,1.97,0.27,
1.431,-0.31,-2.28,4.05,0.93,2.16,0.30,
1.436,0.24,-2.72,4.66,0.93,2.16,0.30,
1.436,0.24,-2.72,4.66,1.09,2.36,0.33,
1.436,0.24,-2.72,4.66,1.25,2.53,0.36,
1.438,0.24,-2.72,4.66,1.42,2.69,0.40,
1.438,0.76,-3.38,5.02,1.42,2.69,0.40,
1.441,0.76,-3.38,5.02,1.57,2.83,0.42,
1.443,0.76,-3.38,5.02,1.71,2.95,0.44,
1.444,1.15,-4.13,4.93,1.71,2.95,0.44,
1.445,1.15,-4.13,4.93,1.83,3.03,0.43,
1.453,1.15,-4.13,4.93,1.93,3.06,0.42,
1.453,1.52,-4.55,4.64,1.93,3.06,0.42,
1.453,1.52,-4.55,4.64,2.02,3.03,0.39,
1.454,1.52,-4.55,4.64,2.11,2.97,0.37,
1.454,1.75,-4.40,4.24,2.11,2.97,0.37,
1.455,1.75,-4.40,4.24,2.18,2.86,0.34,
1.458,1.84,-4.03,3.07,2.18,2.86,0.34,
1.459,1.84,-4.03,3.07,2.22,2.70,0.31,
1.46,1.84,-4.03,3.07,2.23,2.50,0.27,
1.463,1.84,-4.03,3.07,2.18,2.31,0.21,
1.463,1.72,-3.40,0.65,2.18,2.31,0.21,
1.464,1.72,-3.40,0.65,2.09,2.10,0.16,
1.491,1.72,-3.40,0.65,1.98,1.86,0.11,
1.491,1.50,-2.66,-1.46,1.98,1.86,0.11,
1.492,1.50,-2.66,-1.46,1.84,1.60,0.07,
1.493,1.08,-1.84,-3.47,1.84,1.60,0.07,
1.493,1.08,-1.84,-3.47,1.68,1.34,0.04,
1.494,1.08,-1.84,-3.47,1.49,1.10,-0.00,
1.494,1.08,-1.84,-3.47,1.28,0.87,-0.04,
1.495,1.02,-1.00,-5.28,1.28,0.87,-0.04,
1.495,1.02,-1.00,-5.28,1.05,0.65,-0.07,
1.495,1.02,-1.00,-5.28,0.84,0.47,-0.10,
1.496,0.46,-0.65,-5.91,0.84,0.47,-0.10,
1.496,0.46,-0.65,-5.91,0.63,0.32,-0.11,
1.497,0.46,-0.65,-5.91,0.45,0.18,-0.13,
1.497,0.25,-0.71,-5.10,0.45,0.18,-0.13,
1.498,-0.01,-0.74,-3.96,0.45,0.18,-0.13,
1.498,0.04,-0.86,-2.67,0.45,0.18,-0.13,
1.498,0.04,-0.86,-2.67,0.30,0.06,-0.16,
1.499,0.04,-0.86,-2.67,0.18,-0.04,-0.18,
1.499,0.04,-0.86,-2.67,0.08,-0.13,-0.20,
1.5,0.04,-0.86,-2.67,0.02,-0.20,-0.23,
1.5,0.04,-0.86,-2.67,0.00,-0.26,-0.26,
1.502,0.04,-0.86,-2.67,0.00,-0.31,-0.28,
1.503,0.09,-0.95,-1.57,0.00,-0.31,-0.28,
1.505,0.09,-0.95,-1.57,0.03,-0.35,-0.31,
1.509,0.09,-0.95,-1.57,0.06,-0.38,-0.34,
1.509,0.34,-0.78,-1.12,0.06,-0.38,-0.34,
1.51,0.34,-0.78,-1.12,0.11,-0.42,-0.37,
1.513,0.34,-0.78,-1.12,0.17,-0.46,-0.39,
1.513,0.58,-0.53,-0.81,0.17,-0.46,-0.39,
1.516,0.58,-0.53,-0.81,0.23,-0.51,-0.42,
1.517,0.58,-0.53,-0.81,0.29,-0.54,-0.44,
1.517,0.70,-0.15,-0.80,0.29,-0.54,-0.44,
1.519,0.70,-0.15,-0.80,0.35,-0.56,-0.45,
1.522,0.70,-0.15,-0.80,0.41,-0.56,-0.45,
1.522,0.60,0.47,-1.11,0.41,-0.56,-0.45,
1.529,0.60,0.47,-1.11,0.45,-0.54,-0.45,
1.529,0.60,0.47,-1.11,0.47,-0.48,-0.45,
1.53,0.73,1.08,-1.73,0.47,-0.48,-0.45,
1.53,0.73,1.08,-1.73,0.49,-0.40,-0.46,
1.532,0.73,1.08,-1.73,0.49,-0.29,-0.46,
1.532,0.76,1.67,-2.19,0.49,-0.29,-0.46,
1.534,0.76,1.67,-2.19,0.48,-0.17,-0.46,
1.545,0.75,2.21,-2.30,0.48,-0.17,-0.46,
1.546,0.75,2.21,-2.30,0.46,-0.04,-0.47,
1.547,0.75,2.21,-2.30,0.44,0.08,-0.46,
1.547,0.75,2.21,-2.30,0.43,0.19,-0.46,
1.547,0.80,2.54,-1.87,0.43,0.19,-0.46,
1.547,0.80,2.54,-1.87,0.43,0.29,-0.45,
1.547,0.80,2.54,-1.87,0.43,0.37,-0.45,
1.548,0.83,2.55,-1.06,0.43,0.37,-0.45,
1.549,0.83,2.55,-1.06,0.45,0.45,-0.44,
1.552,0.83,2.55,-1.06,0.47,0.52,-0.42,
1.552,0.56,2.44,-0.09,0.47,0.52,-0.42,
1.554,0.56,2.44,-0.09,0.50,0.57,-0.40,
1.557,0.56,2.44,-0.09,0.54,0.62,-0.39,
1.557,0.40,2.45,0.59,0.54,0.62,-0.39,
1.561,0.40,2.45,0.59,0.57,0.67,-0.37,
1.562,0.17,2.47,0.82,0.57,0.67,-0.37,
1.562,0.17,2.47,0.82,0.60,0.71,-0.34,
1.565,0.17,2.47,0.82,0.64,0.75,-0.32,
1.567,0.17,2.47,0.82,0.67,0.76,-0.26,
1.567,-1.26,2.95,1.08,0.67,0.76,-0.26,
1.569,-1.26,2.95,1.08,0.69,0.77,-0.20,
1.572,-1.26,2.95,1.08,0.70,0.79,-0.19,
1.572,0.13,2.59,0.66,0.70,0.79,-0.19,
1.574,0.13,2.59,0.66,0.70,0.78,-0.21,
1.576,0.13,2.59,0.66,0.71,0.75,-0.23,
1.576,0.12,2.33,0.88,0.71,0.75,-0.23,
1.58,0.12,2.33,0.88,0.72,0.68,-0.26,
1.581,0.12,2.33,0.88,0.73,0.58,-0.29,
1.581,-0.08,2.30,1.06,0.73,0.58,-0.29,
1.585,-0.08,2.30,1.06,0.75,0.47,-0.31,
1.586,-0.08,2.30,1.06,0.75,0.39,-0.32,
1.586,-0.64,3.00,0.56,0.75,0.39,-0.32,
1.588,-0.64,3.00,0.56,0.75,0.33,-0.30,
1.592,-0.64,3.00,0.56,0.74,0.28,-0.27,
1.593,-1.47,3.60,-0.01,0.74,0.28,-0.27,
1.594,-1.47,3.60,-0.01,0.70,0.25,-0.22,
1.596,-1.47,3.60,-0.01,0.64,0.22,-0.15,
1.597,-2.29,4.19,-1.13,0.64,0.22,-0.15,
1.599,-2.29,4.19,-1.13,0.57,0.19,-0.08,
1.601,-2.33,4.25,-1.21,0.57,0.19,-0.08,
1.602,-2.33,4.25,-1.21,0.50,0.16,-0.01,
1.603,-2.33,4.25,-1.21,0.43,0.12,0.05,
1.612,-2.67,4.16,-0.96,0.43,0.12,0.05,
1.612,-2.67,4.16,-0.96,0.38,0.07,0.12,
1.613,-2.67,4.16,-0.96,0.33,0.02,0.18,
1.613,-2.67,4.16,-0.96,0.29,-0.04,0.24,
1.613,-2.64,3.82,-0.43,0.29,-0.04,0.24,
1.617,-2.64,3.82,-0.43,0.27,-0.09,0.29,
1.617,-2.24,3.32,0.08,0.27,-0.09,0.29,
1.617,-2.24,3.32,0.08,0.26,-0.14,0.33,
1.619,-2.24,3.32,0.08,0.26,-0.18,0.35,
1.621,-2.24,3.32,0.08,0.25,-0.20,0.36,
1.622,-1.40,2.81,0.31,0.25,-0.20,0.36,
1.631,-1.40,2.81,0.31,0.26,-0.22,0.36,
1.631,-1.40,2.81,0.31,0.26,-0.23,0.36,
1.632,-0.94,2.34,0.36,0.26,-0.23,0.36,
1.632,-0.94,2.34,0.36,0.26,-0.24,0.36,
1.632,-0.94,2.34,0.36,0.27,-0.23,0.36,
1.651,-0.82,2.08,0.24,0.27,-0.23,0.36,
1.651,-0.82,2.08,0.24,0.28,-0.22,0.36,
1.651,-0.82,2.08,0.24,0.29,-0.21,0.37,
1.651,-1.08,2.09,-0.04,0.29,-0.21,0.37,
1.652,-1.08,2.09,-0.04,0.29,-0.20,0.38,
1.652,-1.08,2.09,-0.04,0.29,-0.19,0.40,
1.652,-1.32,2.21,-0.56,0.29,-0.19,0.40,
1.652,-1.32,2.21,-0.56,0.28,-0.18,0.42,
1.652,-1.58,2.33,-1.12,0.28,-0.18,0.42,
1.653,-1.58,2.33,-1.12,0.26,-0.16,0.45,
1.653,-1.58,2.33,-1.12,0.25,-0.15,0.48,
1.653,-1.58,2.33,-1.12,0.23,-0.14,0.50,
1.653,-1.65,2.42,-1.67,0.23,-0.14,0.50,
1.654,-1.65,2.42,-1.67,0.21,-0.12,0.53,
1.658,-1.48,2.35,-1.99,0.21,-0.12,0.53,
1.658,-1.48,2.35,-1.99,0.18,-0.11,0.54,
1.659,-1.48,2.35,-1.99,0.17,-0.11,0.55,
1.662,-1.54,2.35,-1.88,0.17,-0.11,0.55,
1.666,-1.54,2.35,-1.88,0.15,-0.13,0.55,
1.667,-1.54,2.35,-1.88,0.14,-0.15,0.56,
1.667,-1.54,2.35,-1.88,0.12,-0.18,0.58,
1.669,-1.74,2.56,-1.91,0.12,-0.18,0.58,
1.669,-1.74,2.56,-1.91,0.10,-0.21,0.60,
1.672,-1.85,2.84,-1.61,0.10,-0.21,0.60,
1.672,-1.85,2.84,-1.61,0.07,-0.24,0.62,
1.675,-1.85,2.84,-1.61,0.04,-0.28,0.65,
1.678,-1.40,2.74,-1.23,0.04,-0.28,0.65,
1.678,-1.40,2.74,-1.23,0.01,-0.33,0.67,
1.678,-1.40,2.74,-1.23,-0.03,-0.37,0.68,
1.681,-1.40,2.74,-1.23,-0.07,-0.42,0.69,
1.681,-1.25,2.28,-0.68,-0.07,-0.42,0.69,
1.683,-1.25,2.28,-0.68,-0.11,-0.50,0.72,
1.686,-1.25,2.28,-0.68,-0.14,-0.60,0.76,
1.686,-1.56,1.90,0.23,-0.14,-0.60,0.76,
1.688,-1.56,1.90,0.23,-0.19,-0.71,0.79,
1.692,-1.56,1.90,0.23,-0.25,-0.83,0.81,
1.692,-1.05,2.23,0.12,-0.25,-0.83,0.81,
1.693,-1.05,2.23,0.12,-0.32,-0.93,0.83,
1.695,-1.05,2.23,0.12,-0.41,-1.03,0.86,
1.695,-1.00,2.22,-0.32,-0.41,-1.03,0.86,
1.697,-1.00,2.22,-0.32,-0.50,-1.12,0.90,
1.7,-1.00,2.22,-0.32,-0.60,-1.20,0.94,
1.7,-0.90,1.97,-0.69,-0.60,-1.20,0.94,
1.702,-0.90,1.97,-0.69,-0.69,-1.28,0.98,
1.705,-0.90,1.97,-0.69,-0.78,-1.36,1.03,
1.705,-0.65,1.97,-0.55,-0.78,-1.36,1.03,
1.71,-0.65,1.97,-0.55,-0.86,-1.43,1.07,
1.71,-0.65,1.97,-0.55,-0.92,-1.49,1.12,
1.711,-0.30,2.18,-0.78,-0.92,-1.49,1.12,
1.715,-0.30,2.18,-0.78,-1.00,-1.51,1.17,
1.715,-0.30,2.18,-0.78,-1.07,-1.53,1.22,
1.715,-0.06,2.16,-1.52,-1.07,-1.53,1.22,
1.718,-0.06,2.16,-1.52,-1.13,-1.52,1.27,
1.72,-0.06,2.16,-1.52,-1.16,-1.59,1.30,
1.721,0.30,1.28,-0.22,-1.16,-1.59,1.30,
1.723,0.30,1.28,-0.22,-1.17,-1.67,1.31,
1.727,0.30,1.28,-0.22,-1.18,-1.71,1.35,
1.728,0.43,1.21,-0.59,-1.18,-1.71,1.35,
1.728,0.43,1.21,-0.59,-1.21,-1.73,1.37,
1.73,0.50,1.33,-1.93,-1.21,-1.73,1.37,
1.73,0.50,1.33,-1.93,-1.27,-1.72,1.39,
1.732,0.50,1.33,-1.93,-1.45,-1.62,1.43,
1.736,0.50,1.33,-1.93,-1.46,-1.58,1.44,
1.736,0.40,0.39,-2.48,-1.46,-1.58,1.44,
1.738,0.40,0.39,-2.48,-1.50,-1.45,1.46,
1.741,0.40,0.39,-2.48,-1.54,-1.52,1.48,
1.741,0.37,-0.54,-0.92,-1.54,-1.52,1.48,
1.743,0.37,-0.54,-0.92,-1.58,-1.59,1.43,
1.745,1.19,-1.71,-1.44,-1.58,-1.59,1.43,
1.745,1.19,-1.71,-1.44,-1.64,-1.64,1.41,
1.748,1.19,-1.71,-1.44,-1.76,-1.69,1.39,
1.75,1.09,-2.17,-2.44,-1.76,-1.69,1.39,
1.75,1.09,-2.17,-2.44,-1.89,-1.71,1.38,
1.752,1.09,-2.17,-2.44,-2.03,-1.70,1.35,
1.755,1.09,-2.17,-2.44,-2.15,-1.68,1.32,
1.755,1.51,-0.13,-0.75,-2.15,-1.68,1.32,
1.758,1.51,-0.13,-0.75,-2.21,-1.74,1.25,
1.761,1.51,-0.13,-0.75,-2.21,-1.83,1.17,
1.761,1.57,-0.46,1.51,-2.21,-1.83,1.17,
1.763,1.57,-0.46,1.51,-2.17,-1.90,1.13,
1.765,1.57,-0.46,1.51,-2.14,-1.92,1.11,
1.766,0.12,-2.34,2.02,-2.14,-1.92,1.11,
1.767,0.12,-2.34,2.02,-2.11,-1.90,1.11,
1.77,0.12,-2.34,2.02,-2.08,-1.81,1.10,
1.77,-0.50,-3.65,2.33,-2.08,-1.81,1.10,
1.772,-0.50,-3.65,2.33,-2.05,-1.67,1.10,
1.775,-0.50,-3.65,2.33,-2.01,-1.51,1.09,
1.775,-0.33,-3.98,3.17,-2.01,-1.51,1.09,
1.777,-0.33,-3.98,3.17,-1.94,-1.36,1.08,
1.78,-0.33,-3.98,3.17,-1.83,-1.21,1.08,
1.78,-0.32,-3.73,4.49,-1.83,-1.21,1.08,
1.782,-0.32,-3.73,4.49,-1.69,-1.10,1.07,
1.784,-0.32,-3.73,4.49,-1.54,-1.00,1.06,
1.785,-0.19,-3.82,4.81,-1.54,-1.00,1.06,
1.787,-0.19,-3.82,4.81,-1.39,-0.88,1.05,
1.79,-0.19,-3.82,4.81,-1.25,-0.77,1.03,
1.791,-0.18,-3.81,4.50,-1.25,-0.77,1.03,
1.793,-0.18,-3.81,4.50,-1.12,-0.67,1.02,
1.795,-0.18,-3.81,4.50,-1.01,-0.58,1.02,
1.795,0.13,-3.85,3.29,-1.01,-0.58,1.02,
1.818,0.13,-3.85,3.29,-0.92,-0.50,1.01,
1.818,0.13,-3.85,3.29,-0.86,-0.43,1.02,
1.818,-0.84,-4.68,1.88,-0.86,-0.43,1.02,
1.819,-0.84,-4.68,1.88,-0.82,-0.37,1.09,
1.819,-0.84,-4.68,1.88,-0.81,-0.31,1.11,
1.819,0.80,-4.77,-0.17,-0.81,-0.31,1.11,
1.819,0.80,-4.77,-0.17,-0.82,-0.26,1.10,
1.82,0.80,-4.77,-0.17,-0.84,-0.22,1.07,
1.82,1.66,-4.77,-1.50,-0.84,-0.22,1.07,
1.82,1.66,-4.77,-1.50,-0.88,-0.18,1.02,
1.82,1.66,-4.77,-1.50,-0.92,-0.14,0.96,
1.821,2.19,-3.53,-1.90,-0.92,-0.14,0.96,
1.821,2.19,-3.53,-1.90,-0.98,-0.09,0.90,
1.821,2.19,-3.53,-1.90,-1.03,-0.05,0.83,
1.821,2.10,-2.32,-1.85,-1.03,-0.05,0.83,
1.825,2.10,-2.32,-1.85,-1.06,-0.04,0.79,
1.828,2.10,-2.32,-1.85,-1.09,-0.02,0.74,
1.828,1.15,-1.77,-1.53,-1.09,-0.02,0.74,
1.829,1.15,-1.77,-1.53,-1.10,0.00,0.72,
1.829,1.15,-1.77,-1.53,-1.09,0.02,0.72,
1.83,-0.83,-3.05,-1.30,-1.09,0.02,0.72,
1.832,-0.83,-3.05,-1.30,-1.08,0.02,0.73,
1.834,-0.83,-3.05,-1.30,-1.05,0.02,0.73,
1.835,-0.30,-4.35,-1.46,-1.05,0.02,0.73,
1.836,-0.30,-4.35,-1.46,-1.02,0.04,0.71,
1.839,-0.30,-4.35,-1.46,-0.97,0.08,0.68,
1.839,0.64,-4.66,-1.62,-0.97,0.08,0.68,
1.846,0.64,-4.66,-1.62,-0.93,0.15,0.64,
1.847,0.64,-4.66,-1.62,-0.87,0.24,0.61,
1.848,1.17,-4.58,-1.68,-0.87,0.24,0.61,
1.851,1.17,-4.58,-1.68,-0.82,0.33,0.58,
1.852,1.45,-4.38,-1.62,-0.82,0.33,0.58,
1.852,1.45,-4.38,-1.62,-0.77,0.41,0.56,
1.853,1.45,-4.38,-1.62,-0.71,0.50,0.54,
1.854,1.26,-3.99,-1.34,-0.71,0.50,0.54,
1.855,1.26,-3.99,-1.34,-0.65,0.58,0.51,
1.86,1.26,-3.99,-1.34,-0.58,0.66,0.50,
1.861,1.26,-3.99,-1.34,-0.51,0.74,0.48,
1.862,0.87,-3.44,-1.05,-0.51,0.74,0.48,
1.862,0.87,-3.44,-1.05,-0.44,0.81,0.46,
1.864,0.87,-3.44,-1.05,-0.36,0.89,0.45,
1.864,0.32,-2.98,-0.77,-0.36,0.89,0.45,
1.866,0.32,-2.98,-0.77,-0.28,0.98,0.44,
1.869,0.32,-2.98,-0.77,-0.20,1.07,0.43,
1.869,0.17,-2.53,-0.58,-0.20,1.07,0.43,
1.871,0.17,-2.53,-0.58,-0.12,1.15,0.43,
1.874,0.17,-2.53,-0.58,-0.08,1.16,0.43,
1.874,0.08,-2.16,-0.20,-0.08,1.16,0.43,
1.877,0.08,-2.16,-0.20,-0.05,1.16,0.44,
1.879,-0.11,-2.07,-0.18,-0.05,1.16,0.44,
1.879,-0.11,-2.07,-0.18,-0.02,1.21,0.44,
1.881,-0.11,-2.07,-0.18,0.03,1.27,0.44,
1.884,-0.11,-2.07,-0.18,0.08,1.34,0.45,
1.884,-0.27,-1.95,-0.13,0.08,1.34,0.45,
1.886,-0.27,-1.95,-0.13,0.13,1.42,0.47,
1.889,-0.27,-1.95,-0.13,0.19,1.48,0.48,
1.889,0.32,-1.67,-0.29,0.19,1.48,0.48,
1.892,0.32,-1.67,-0.29,0.25,1.51,0.52,
1.894,0.39,-1.33,-0.53,0.25,1.51,0.52,
1.894,0.39,-1.33,-0.53,0.30,1.53,0.57,
1.896,0.39,-1.33,-0.53,0.34,1.55,0.63,
1.899,1.37,-1.64,-0.99,0.34,1.55,0.63,
1.899,1.37,-1.64,-0.99,0.39,1.58,0.69,
1.901,1.37,-1.64,-0.99,0.44,1.62,0.73,
1.904,1.93,-2.12,-1.23,0.44,1.62,0.73,
1.904,1.93,-2.12,-1.23,0.49,1.67,0.77,
1.906,1.93,-2.12,-1.23,0.54,1.75,0.81,
1.909,2.48,-2.53,-1.05,0.54,1.75,0.81,
1.909,2.48,-2.53,-1.05,0.60,1.87,0.82,
1.912,2.48,-2.53,-1.05,0.69,2.04,0.83,
1.914,2.40,-2.97,-0.93,0.69,2.04,0.83,
1.915,2.40,-2.97,-0.93,0.79,2.23,0.82,
1.917,2.40,-2.97,-0.93,0.91,2.43,0.79,
1.921,2.39,-3.14,-0.78,0.91,2.43,0.79,
1.922,2.39,-3.14,-0.78,1.02,2.61,0.76,
1.922,2.39,-3.14,-0.78,1.12,2.76,0.71,
1.929,2.39,-3.14,-0.78,1.21,2.87,0.68,
1.93,1.67,-2.73,-0.71,1.21,2.87,0.68,
1.93,1.67,-2.73,-0.71,1.26,2.93,0.66,
1.931,1.67,-2.73,-0.71,1.30,2.98,0.64,
1.931,1.39,-2.39,-0.73,1.30,2.98,0.64,
1.931,1.39,-2.39,-0.73,1.30,3.00,0.64,
1.934,1.39,-2.39,-0.73,1.27,3.00,0.65,
1.934,0.98,-1.86,-1.13,1.27,3.00,0.65,
1.936,0.98,-1.86,-1.13,1.24,2.97,0.67,
1.938,0.98,-1.86,-1.13,1.21,2.89,0.69,
1.939,0.47,-1.41,-0.92,1.21,2.89,0.69,
1.941,0.47,-1.41,-0.92,1.15,2.78,0.72,
1.943,0.77,-1.34,-0.82,1.15,2.78,0.72,
1.944,0.77,-1.34,-0.82,1.10,2.67,0.73,
1.946,0.77,-1.34,-0.82,1.03,2.55,0.73,
1.948,0.77,-1.34,-0.82,0.97,2.43,0.72,
1.948,1.09,-1.50,-0.84,0.97,2.43,0.72,
1.95,1.09,-1.50,-0.84,0.91,2.32,0.71,
1.953,1.09,-1.50,-0.84,0.85,2.23,0.69,
1.953,1.30,-1.53,-0.64,0.85,2.23,0.69,
1.955,1.30,-1.53,-0.64,0.81,2.15,0.68,
1.958,1.28,-1.31,-0.37,0.81,2.15,0.68,
1.959,1.28,-1.31,-0.37,0.77,2.10,0.67,
1.96,1.28,-1.31,-0.37,0.75,2.07,0.68,
1.982,1.28,-1.31,-0.37,0.73,2.07,0.71,
1.982,0.78,-0.86,-0.48,0.73,2.07,0.71,
1.983,0.78,-0.86,-0.48,0.71,2.09,0.77,
1.983,0.78,-0.86,-0.48,0.71,2.15,0.80,
1.983,0.62,-1.38,-0.46,0.71,2.15,0.80,
1.984,0.62,-1.38,-0.46,0.74,2.24,0.81,
1.984,0.62,-1.38,-0.46,0.78,2.31,0.80,
1.985,1.81,-1.21,0.79,0.78,2.31,0.80,
1.985,1.81,-1.21,0.79,0.82,2.34,0.78,
1.986,1.63,-1.74,1.35,0.82,2.34,0.78,
1.986,1.63,-1.74,1.35,0.86,2.34,0.76,
1.987,1.63,-1.74,1.35,0.90,2.32,0.76,
1.987,1.63,-1.74,1.35,0.93,2.28,0.77,
1.987,0.43,-1.19,1.33,0.93,2.28,0.77,
1.988,0.43,-1.19,1.33,0.94,2.24,0.79,
1.988,-0.10,-0.47,1.04,0.94,2.24,0.79,
1.989,-0.10,-0.47,1.04,0.94,2.19,0.81,
1.991,-0.10,-0.47,1.04,0.93,2.14,0.84,
1.993,-0.10,-0.47,1.04,0.91,2.10,0.87,
1.994,-0.75,0.06,0.61,0.91,2.10,0.87,
1.996,-0.75,0.06,0.61,0.91,2.10,0.92,
1.999,-0.75,0.06,0.61,0.98,2.31,0.97,
1.999,-1.18,0.92,2.57,0.98,2.31,0.97,
2.0,-1.18,0.92,2.57,1.30,3.19,0.99,
2.002,-1.18,0.92,2.57,1.67,4.21,0.90,
2.003,4.40,1.11,2.22,1.67,4.21,0.90,
2.006,4.40,1.11,2.22,1.94,4.81,0.68,
2.015,4.40,1.11,2.22,2.21,5.13,0.46,
2.015,7.26,-3.76,2.78,2.21,5.13,0.46,
2.016,7.26,-3.76,2.78,2.39,5.19,0.29,
2.016,7.26,-3.76,2.78,2.49,4.90,0.17,
2.016,3.51,-1.79,3.79,2.49,4.90,0.17,
2.017,3.51,-1.79,3.79,2.47,4.34,0.07,
2.021,-2.41,2.53,2.54,2.47,4.34,0.07,
2.021,-2.41,2.53,2.54,2.35,3.65,0.04,
2.021,-2.41,2.53,2.54,2.09,2.90,0.15,
2.024,-7.29,5.93,-2.38,2.09,2.90,0.15,
2.024,-7.29,5.93,-2.38,1.70,2.05,0.30,
2.031,-7.29,5.93,-2.38,1.26,1.23,0.43,
2.032,-6.27,6.98,-5.53,1.26,1.23,0.43,
2.032,-6.27,6.98,-5.53,0.80,0.53,0.52,
2.032,-6.27,6.98,-5.53,0.38,0.01,0.52,
2.033,-3.02,6.03,-6.13,0.38,0.01,0.52,
2.033,-3.02,6.03,-6.13,0.04,-0.36,0.46,
2.035,-3.02,6.03,-6.13,-0.23,-0.60,0.36,
2.037,-3.02,6.03,-6.13,-0.43,-0.69,0.24,
2.038,-1.39,5.11,-5.69,-0.43,-0.69,0.24,
2.04,-1.39,5.11,-5.69,-0.57,-0.65,0.13,
2.043,-1.96,4.99,-4.67,-0.57,-0.65,0.13,
2.044,-1.96,4.99,-4.67,-0.66,-0.49,0.06,
2.045,-1.96,4.99,-4.67,-0.70,-0.27,0.04,
2.047,-1.96,4.99,-4.67,-0.68,-0.01,0.06,
2.048,-3.40,5.37,-2.66,-0.68,-0.01,0.06,
2.051,-3.40,5.37,-2.66,-0.60,0.25,0.11,
2.052,-3.40,5.37,-2.66,-0.49,0.49,0.19,
2.052,-4.48,5.49,-0.24,-0.49,0.49,0.19,
2.055,-4.48,5.49,-0.24,-0.35,0.72,0.28,
2.058,-4.48,5.49,-0.24,-0.19,0.91,0.38,
2.058,-4.80,5.29,1.56,-0.19,0.91,0.38,
2.06,-4.80,5.29,1.56,-0.03,1.08,0.48,
2.063,-4.26,4.85,2.76,-0.03,1.08,0.48,
2.063,-4.26,4.85,2.76,0.14,1.21,0.57,
2.065,-4.26,4.85,2.76,0.29,1.30,0.65,
2.067,-4.26,4.85,2.76,0.42,1.36,0.72,
2.067,-3.19,4.27,3.01,0.42,1.36,0.72,
2.069,-3.19,4.27,3.01,0.52,1.38,0.78,
2.072,-2.11,3.86,2.45,0.52,1.38,0.78,
2.072,-2.11,3.86,2.45,0.58,1.37,0.81,
2.076,-2.11,3.86,2.45,0.62,1.31,0.82,
2.078,-2.11,3.86,2.45,0.64,1.22,0.82,
2.078,-1.02,3.63,1.76,0.64,1.22,0.82,
2.079,-1.02,3.63,1.76,0.62,1.11,0.79,
2.082,-0.19,3.50,0.89,0.62,1.11,0.79,
2.082,-0.19,3.50,0.89,0.58,0.97,0.74,
2.084,-0.19,3.50,0.89,0.52,0.81,0.69,
2.087,0.14,3.47,0.03,0.52,0.81,0.69,
2.087,0.14,3.47,0.03,0.45,0.65,0.64,
2.089,0.14,3.47,0.03,0.36,0.50,0.57,
2.092,0.50,3.58,-0.87,0.36,0.50,0.57,
2.093,0.50,3.58,-0.87,0.27,0.39,0.50,
2.095,0.50,3.58,-0.87,0.16,0.30,0.44,
2.097,0.50,3.58,-0.87,0.06,0.24,0.39,
2.097,0.50,3.69,-1.23,0.06,0.24,0.39,
2.099,0.50,3.69,-1.23,-0.02,0.21,0.35,
2.102,0.50,3.69,-1.23,-0.09,0.20,0.31,
2.102,0.37,3.87,-1.14,-0.09,0.20,0.31,
2.104,0.37,3.87,-1.14,-0.14,0.19,0.28,
2.112,0.07,4.10,-0.88,-0.14,0.19,0.28,
2.113,0.07,4.10,-0.88,-0.18,0.19,0.27,
2.113,0.07,4.10,-0.88,-0.20,0.20,0.27,
2.113,0.07,4.10,-0.88,-0.22,0.19,0.27,
2.114,0.11,4.55,-0.50,-0.22,0.19,0.27,
2.114,0.11,4.55,-0.50,-0.23,0.19,0.28,
2.122,0.69,4.80,-0.67,-0.23,0.19,0.28,
2.122,0.69,4.80,-0.67,-0.26,0.20,0.27,
2.122,0.69,4.80,-0.67,-0.30,0.18,0.26,
2.122,0.69,4.80,-0.67,-0.35,0.16,0.24,
2.123,1.37,4.98,-1.16,-0.35,0.16,0.24,
2.133,1.37,4.98,-1.16,-0.42,0.13,0.20,
2.134,2.20,5.05,-1.09,-0.42,0.13,0.20,
2.158,2.20,5.05,-1.09,-0.50,0.07,0.15,
2.158,2.20,5.05,-1.09,-0.57,-0.02,0.10,
2.159,2.20,5.05,-1.09,-0.66,-0.11,0.04,
2.159,2.70,5.60,-1.47,-0.66,-0.11,0.04,
2.159,2.70,5.60,-1.47,-0.78,-0.20,-0.04,
2.16,2.70,5.60,-1.47,-0.91,-0.29,-0.13,
2.16,3.75,6.07,-2.27,-0.91,-0.29,-0.13,
2.16,3.75,6.07,-2.27,-1.04,-0.39,-0.22,
2.16,3.77,5.80,-1.98,-1.04,-0.39,-0.22,
2.162,3.77,5.80,-1.98,-1.15,-0.48,-0.31,
2.162,3.77,5.80,-1.98,-1.26,-0.57,-0.40,
2.163,4.31,5.74,-2.35,-1.26,-0.57,-0.40,
2.163,4.31,5.74,-2.35,-1.37,-0.65,-0.50,
2.164,4.31,5.74,-2.35,-1.47,-0.72,-0.59,
2.164,4.80,5.41,-2.16,-1.47,-0.72,-0.59,
2.165,4.80,5.41,-2.16,-1.57,-0.77,-0.70,
2.165,4.80,5.41,-2.16,-1.68,-0.80,-0.80,
2.166,4.80,5.41,-2.16,-1.77,-0.84,-0.91,
2.166,4.92,4.80,-1.82,-1.77,-0.84,-0.91,
2.166,4.92,4.80,-1.82,-1.81,-0.89,-1.02,
2.167,4.81,4.49,-1.15,-1.81,-0.89,-1.02,
2.167,4.81,4.49,-1.15,-1.88,-0.94,-1.13,
2.168,4.81,4.49,-1.15,-1.97,-0.99,-1.23,
2.168,4.81,4.49,-1.15,-2.05,-1.02,-1.33,
2.169,4.67,3.82,-1.45,-2.05,-1.02,-1.33,
2.169,4.67,3.82,-1.45,-2.12,-1.08,-1.44,
2.172,4.67,3.82,-1.45,-2.17,-1.14,-1.54,
2.172,4.47,2.75,-0.54,-2.17,-1.14,-1.54,
2.176,4.47,2.75,-0.54,-2.21,-1.21,-1.65,
2.177,4.47,2.75,-0.54,-2.25,-1.30,-1.76,
2.177,4.83,1.76,0.18,-2.25,-1.30,-1.76,
2.179,4.83,1.76,0.18,-2.27,-1.42,-1.89,
2.182,4.83,1.76,0.18,-2.30,-1.54,-1.98,
2.183,2.67,1.23,0.48,-2.30,-1.54,-1.98,
2.185,2.67,1.23,0.48,-2.32,-1.73,-2.08,
2.187,2.67,1.23,0.48,-2.33,-1.89,-2.19,
2.187,2.08,1.75,1.11,-2.33,-1.89,-2.19,
2.189,2.08,1.75,1.11,-2.32,-2.00,-2.23,
2.192,-1.12,1.11,0.16,-2.32,-2.00,-2.23,
2.192,-1.12,1.11,0.16,-2.36,-2.13,-2.22,
2.196,-1.12,1.11,0.16,-2.40,-2.26,-2.19,
2.197,-1.12,1.11,0.16,-2.44,-2.39,-2.15,
2.197,-2.41,1.33,-0.22,-2.44,-2.39,-2.15,
2.198,-2.41,1.33,-0.22,-2.48,-2.49,-2.12,
2.201,-2.41,1.33,-0.22,-2.52,-2.56,-2.07,
2.201,-3.30,1.17,-0.44,-2.52,-2.56,-2.07,
2.203,-3.30,1.17,-0.44,-2.57,-2.63,-2.04,
2.206,-3.30,1.17,-0.44,-2.60,-2.70,-1.99,
2.206,-3.42,0.90,-0.37,-2.60,-2.70,-1.99,
2.21,-3.42,0.90,-0.37,-2.61,-2.78,-1.95,
2.213,-3.42,0.90,-0.37,-2.62,-2.85,-1.90,
2.213,-3.42,0.57,-0.19,-2.62,-2.85,-1.90,
2.218,-3.26,0.24,0.35,-2.62,-2.85,-1.90,
2.219,-3.26,0.24,0.35,-2.62,-2.92,-1.85,
2.219,-3.26,0.24,0.35,-2.61,-3.01,-1.81,
2.22,-3.26,0.24,0.35,-2.60,-3.11,-1.77,
2.221,-3.26,0.24,0.35,-2.58,-3.20,-1.72,
2.222,-3.70,0.40,0.76,-2.58,-3.20,-1.72,
2.224,-3.70,0.40,0.76,-2.58,-3.30,-1.67,
2.226,-3.70,0.40,0.76,-2.58,-3.42,-1.63,
2.229,-3.93,0.06,0.60,-2.58,-3.42,-1.63,
2.229,-3.93,0.06,0.60,-2.60,-3.52,-1.58,
2.231,-3.93,0.06,0.60,-2.63,-3.64,-1.55,
2.231,-3.60,-0.49,0.21,-2.63,-3.64,-1.55,
2.234,-3.60,-0.49,0.21,-2.67,-3.81,-1.52,
2.237,-3.60,-0.49,0.21,-2.71,-4.00,-1.48,
2.237,-3.40,-0.03,0.62,-2.71,-4.00,-1.48,
2.239,-3.40,-0.03,0.62,-2.77,-4.20,-1.40,
2.241,-4.22,0.36,0.47,-2.77,-4.20,-1.40,
2.241,-4.22,0.36,0.47,-2.83,-4.40,-1.30,
2.243,-4.22,0.36,0.47,-2.90,-4.56,-1.21,
2.247,-4.22,0.36,0.47,-2.99,-4.60,-1.14,
2.247,-3.62,-1.29,-1.60,-2.99,-4.60,-1.14,
2.248,-3.62,-1.29,-1.60,-3.07,-4.56,-1.08,
2.251,-3.62,-1.29,-1.60,-3.12,-4.52,-1.04,
2.251,-3.76,-1.61,-1.68,-3.12,-4.52,-1.04,
2.253,-3.76,-1.61,-1.68,-3.11,-4.46,-1.00,
2.255,-3.76,-1.61,-1.68,-3.07,-4.44,-0.97,
2.256,-2.47,-2.70,-1.10,-3.07,-4.44,-0.97,
2.258,-2.47,-2.70,-1.10,-3.02,-4.41,-0.95,
2.261,-2.47,-2.70,-1.10,-2.98,-4.31,-0.92,
2.261,-0.57,-4.28,-1.79,-2.98,-4.31,-0.92,
2.263,-0.57,-4.28,-1.79,-2.93,-4.19,-0.91,
2.266,-0.57,-4.28,-1.79,-2.88,-3.99,-0.94,
2.266,1.32,-5.40,-2.64,-2.88,-3.99,-0.94,
2.268,1.32,-5.40,-2.64,-2.84,-3.76,-0.98,
2.27,1.32,-5.40,-2.64,-2.79,-3.54,-1.08,
2.271,3.30,-7.10,-2.88,-2.79,-3.54,-1.08,
2.273,3.30,-7.10,-2.88,-2.73,-3.33,-1.17,
2.276,3.81,-7.02,-2.44,-2.73,-3.33,-1.17,
2.277,3.81,-7.02,-2.44,-2.66,-3.11,-1.24,
2.28,3.81,-7.02,-2.44,-2.59,-2.86,-1.30,
2.281,4.06,-6.91,-2.94,-2.59,-2.86,-1.30,
2.282,4.06,-6.91,-2.94,-2.51,-2.59,-1.35,
2.283,4.06,-6.91,-2.94,-2.43,-2.32,-1.40,
2.285,2.76,-7.03,-2.93,-2.43,-2.32,-1.40,
2.285,2.76,-7.03,-2.93,-2.32,-2.01,-1.42,
2.288,2.76,-7.03,-2.93,-2.22,-1.68,-1.41,
2.29,1.93,-6.30,-3.21,-2.22,-1.68,-1.41,
2.291,1.93,-6.30,-3.21,-2.10,-1.32,-1.40,
2.314,1.93,-6.30,-3.21,-1.98,-1.00,-1.38,
2.314,1.93,-6.30,-3.21,-1.84,-0.77,-1.35,
2.314,1.06,-5.19,-2.47,-1.84,-0.77,-1.35,
2.315,1.06,-5.19,-2.47,-1.68,-0.62,-1.32,
2.315,1.06,-5.19,-2.47,-1.52,-0.51,-1.27,
2.315,0.98,-4.45,-1.95,-1.52,-0.51,-1.27,
2.315,0.98,-4.45,-1.95,-1.37,-0.45,-1.22,
2.315,0.52,-4.82,-1.89,-1.37,-0.45,-1.22,
2.315,0.52,-4.82,-1.89,-1.22,-0.44,-1.18,
2.316,0.52,-4.82,-1.89,-1.08,-0.47,-1.14,
2.316,0.52,-4.82,-1.89,-0.98,-0.52,-1.11,
2.316,-0.01,-4.95,-2.01,-0.98,-0.52,-1.11,
2.316,-0.01,-4.95,-2.01,-0.95,-0.61,-1.08,
2.316,-0.01,-4.95,-2.01,-0.97,-0.68,-1.07,
2.316,-0.29,-5.14,-2.65,-0.97,-0.68,-1.07,
2.318,-0.29,-5.14,-2.65,-1.02,-0.76,-1.07,
2.321,-0.42,-4.89,-2.70,-1.02,-0.76,-1.07,
2.323,-0.42,-4.89,-2.70,-1.05,-0.90,-1.07,
2.323,-0.42,-4.89,-2.70,-1.06,-1.08,-1.07,
2.33,-0.42,-4.89,-2.70,-1.06,-1.26,-1.07,
2.331,-0.33,-4.59,-2.06,-1.06,-1.26,-1.07,
2.332,-0.33,-4.59,-2.06,-1.04,-1.43,-1.06,
2.332,-0.33,-4.59,-2.06,-1.00,-1.54,-1.05,
2.332,-0.29,-3.93,-1.79,-1.00,-1.54,-1.05,
2.333,-0.29,-3.93,-1.79,-0.97,-1.61,-1.05,
2.336,-0.29,-3.93,-1.79,-0.94,-1.65,-1.08,
2.336,-0.04,-3.21,-1.25,-0.94,-1.65,-1.08,
2.337,-0.04,-3.21,-1.25,-0.90,-1.68,-1.10,
2.34,-0.04,-3.21,-1.25,-0.84,-1.68,-1.13,
2.34,0.36,-2.71,-0.37,-0.84,-1.68,-1.13,
2.345,0.36,-2.71,-0.37,-0.75,-1.62,-1.17,
2.345,0.36,-2.71,-0.37,-0.65,-1.50,-1.21,
2.346,1.33,-2.14,-0.12,-0.65,-1.50,-1.21,
2.347,1.33,-2.14,-0.12,-0.53,-1.25,-1.27,
2.352,1.33,-2.14,-0.12,-0.40,-0.84,-1.36,
2.352,3.30,-0.82,0.57,-0.40,-0.84,-1.36,
2.352,3.30,-0.82,0.57,-0.26,-0.44,-1.46,
2.355,3.30,-0.82,0.57,-0.11,-0.11,-1.55,
2.355,3.49,-0.39,1.85,-0.11,-0.11,-1.55,
2.357,3.49,-0.39,1.85,0.03,0.17,-1.65,
2.36,3.49,-0.39,1.85,0.18,0.41,-1.75,
2.36,3.68,-0.09,2.75,0.18,0.41,-1.75,
2.362,3.68,-0.09,2.75,0.33,0.61,-1.84,
2.364,3.68,-0.09,2.75,0.48,0.79,-1.92,
2.365,3.86,0.12,3.28,0.48,0.79,-1.92,
2.367,3.86,0.12,3.28,0.63,0.93,-2.00,
2.369,3.86,0.12,3.28,0.78,1.04,-2.07,
2.369,3.90,0.27,3.75,0.78,1.04,-2.07,
2.373,3.90,0.27,3.75,0.92,1.11,-2.13,
2.375,3.90,0.27,3.75,1.06,1.16,-2.19,
2.375,3.91,0.42,4.11,1.06,1.16,-2.19,
2.377,3.91,0.42,4.11,1.19,1.18,-2.24,
2.38,3.91,0.42,4.11,1.32,1.18,-2.29,
2.38,4.01,0.45,4.29,1.32,1.18,-2.29,
2.383,4.01,0.45,4.29,1.45,1.16,-2.34,
2.384,4.01,0.45,4.29,1.57,1.13,-2.39,
2.385,4.27,0.32,4.23,1.57,1.13,-2.39,
2.387,4.27,0.32,4.23,1.69,1.10,-2.44,
2.389,4.27,0.32,4.23,1.81,1.08,-2.49,
2.39,4.46,0.11,4.00,1.81,1.08,-2.49,
2.392,4.46,0.11,4.00,1.93,1.05,-2.55,
2.395,4.46,0.11,4.00,2.04,1.04,-2.61,
2.395,4.51,0.06,3.67,2.04,1.04,-2.61,
2.397,4.51,0.06,3.67,2.15,1.04,-2.67,
2.4,4.51,0.06,3.67,2.26,1.04,-2.73,
2.4,4.58,0.11,3.21,2.26,1.04,-2.73,
2.402,4.58,0.11,3.21,2.36,1.04,-2.80,
2.404,4.58,0.11,3.21,2.44,1.02,-2.88,
2.404,4.72,0.25,2.83,2.44,1.02,-2.88,
2.407,4.72,0.25,2.83,2.50,0.97,-2.95,
2.41,4.72,0.25,2.83,2.53,0.88,-3.03,
2.411,4.83,0.46,2.34,2.53,0.88,-3.03,
2.412,4.83,0.46,2.34,2.52,0.74,-3.11,
2.422,4.83,0.46,2.34,2.47,0.59,-3.18,
2.422,4.83,0.46,2.34,2.40,0.46,-3.26,
2.422,4.86,0.66,1.63,2.40,0.46,-3.26,
2.423,4.86,0.66,1.63,2.33,0.35,-3.34,
2.423,4.86,0.66,1.63,2.26,0.29,-3.43,
2.424,5.06,0.84,0.79,2.26,0.29,-3.43,
2.426,5.06,0.84,0.79,2.21,0.28,-3.52,
2.427,5.22,1.03,-0.10,2.21,0.28,-3.52,
2.427,5.22,1.03,-0.10,2.16,0.34,-3.62,
2.43,5.26,1.02,-0.86,2.16,0.34,-3.62,
2.431,5.26,1.02,-0.86,2.12,0.44,-3.73,
2.431,5.26,1.02,-0.86,2.09,0.55,-3.84,
2.434,5.26,1.02,-0.86,2.06,0.67,-3.95,
2.434,5.05,0.92,-1.11,2.06,0.67,-3.95,
2.436,5.05,0.92,-1.11,2.02,0.78,-4.07,
2.439,5.05,0.92,-1.11,1.99,0.89,-4.20,
2.439,5.03,0.93,-1.39,1.99,0.89,-4.20,
2.442,5.03,0.93,-1.39,1.96,1.00,-4.32,
2.444,4.79,0.99,-1.67,1.96,1.00,-4.32,
2.445,4.79,0.99,-1.67,1.92,1.12,-4.45,
2.446,4.79,0.99,-1.67,1.89,1.24,-4.58,
2.449,4.79,0.99,-1.67,1.86,1.33,-4.71,
2.449,4.66,1.00,-1.64,1.86,1.33,-4.71,
2.451,4.66,1.00,-1.64,1.83,1.39,-4.84,
2.454,4.66,1.00,-1.64,1.80,1.41,-4.97,
2.454,4.25,0.91,-1.24,1.80,1.41,-4.97,
2.456,4.25,0.91,-1.24,1.77,1.43,-5.10,
2.471,3.54,0.76,-0.82,1.77,1.43,-5.10,
2.472,3.54,0.76,-0.82,1.75,1.44,-5.22,
2.472,3.54,0.76,-0.82,1.76,1.39,-5.33,
2.472,3.54,0.76,-0.82,1.84,1.20,-5.42,
2.472,1.30,0.48,3.15,1.84,1.20,-5.42,
2.473,1.30,0.48,3.15,1.98,0.92,-5.46,
2.473,1.30,0.48,3.15,1.97,0.89,-5.56,
2.473,2.81,0.78,-2.07,1.97,0.89,-5.56,
2.474,2.81,0.78,-2.07,1.82,1.06,-5.72,
2.475,2.81,0.78,-2.07,1.64,1.26,-5.89,
2.476,3.38,0.92,-5.70,1.64,1.26,-5.89,
2.478,3.38,0.92,-5.70,1.43,1.42,-6.07,
2.479,3.26,0.98,-5.59,1.43,1.42,-6.07,
2.479,3.26,0.98,-5.59,1.23,1.57,-6.25,
2.481,3.26,0.98,-5.59,1.02,1.72,-6.44,
2.484,3.26,0.98,-5.59,0.78,1.87,-6.62,
2.484,2.00,1.26,-6.28,0.78,1.87,-6.62,
2.486,2.00,1.26,-6.28,0.55,2.04,-6.75,
2.489,2.00,1.26,-6.28,0.53,1.91,-6.77,
2.489,-5.85,0.62,6.29,0.53,1.91,-6.77,
2.492,-5.85,0.62,6.29,1.01,0.96,-6.55,
2.494,-5.85,0.62,6.29,1.23,0.70,-6.36,
2.494,-7.61,1.34,-0.11,1.23,0.70,-6.36,
2.496,-7.61,1.34,-0.11,0.86,1.35,-6.26,
2.499,-7.61,1.34,-0.11,0.36,2.19,-6.20,
2.499,-4.03,2.61,-16.51,0.36,2.19,-6.20,
2.501,-4.03,2.61,-16.51,-0.02,2.80,-6.19,
2.503,-4.03,2.61,-16.51,0.07,2.71,-6.20,
2.504,-3.32,1.24,5.39,0.07,2.71,-6.20,
2.506,-3.32,1.24,5.39,0.47,2.26,-6.17,
2.516,-3.32,1.24,5.39,0.67,2.22,-6.19,
2.516,-1.02,1.72,-0.31,0.67,2.22,-6.19,
2.517,-1.02,1.72,-0.31,0.60,2.58,-6.27,
2.517,-1.02,1.72,-0.31,0.60,2.83,-6.37,
2.517,0.50,2.00,-1.39,0.60,2.83,-6.37,
2.518,0.50,2.00,-1.39,0.81,2.79,-6.43,
2.519,0.03,1.69,5.07,0.81,2.79,-6.43,
2.519,0.03,1.69,5.07,1.10,2.63,-6.49,
2.522,0.03,1.69,5.07,1.36,2.40,-6.54,
2.523,0.03,1.69,5.07,1.68,1.94,-6.57,
2.525,-0.98,1.16,7.13,1.68,1.94,-6.57,
2.533,-0.98,1.16,7.13,1.90,1.65,-6.60,
2.533,-0.98,1.16,7.13,1.88,1.74,-6.65,
2.533,0.45,2.04,-5.05,1.88,1.74,-6.65,
2.533,0.45,2.04,-5.05,1.80,1.92,-6.72,
2.534,0.45,2.04,-5.05,1.81,1.90,-6.78,
2.534,0.38,1.82,-1.16,1.81,1.90,-6.78,
2.535,0.38,1.82,-1.16,1.91,1.73,-6.84,
2.538,0.49,2.05,-2.52,1.91,1.73,-6.84,
2.539,0.49,2.05,-2.52,1.96,1.70,-6.92,
2.541,0.49,2.05,-2.52,1.98,1.69,-7.00,
2.543,0.49,2.05,-2.52,2.08,1.41,-7.06,
2.546,-0.42,1.61,1.89,2.08,1.41,-7.06,
2.546,-0.42,1.61,1.89,2.11,1.16,-7.11,
2.548,-0.42,1.61,1.89,1.98,1.19,-7.16,
2.548,-0.92,2.13,-4.82,1.98,1.19,-7.16,
2.55,-0.92,2.13,-4.82,1.92,1.00,-7.16,
2.553,-0.92,2.13,-4.82,1.94,0.67,-7.16,
2.553,-2.16,1.39,0.53,1.94,0.67,-7.16,
2.555,-2.16,1.39,0.53,1.90,0.36,-7.16,
2.558,-1.87,1.91,-0.73,1.90,0.36,-7.16,
2.558,-1.87,1.91,-0.73,1.82,0.03,-7.15,
2.56,-1.87,1.91,-0.73,1.76,-0.38,-7.14,
2.563,-1.87,1.91,-0.73,1.69,-0.84,-7.10,
2.563,-2.14,1.88,1.09,1.69,-0.84,-7.10,
2.565,-2.14,1.88,1.09,1.59,-1.29,-7.06,
2.568,-2.14,1.88,1.09,1.44,-1.61,-7.00,
2.568,-1.56,2.62,-1.25,1.44,-1.61,-7.00,
2.57,-1.56,2.62,-1.25,1.28,-1.90,-6.93,
2.573,-1.56,2.62,-1.25,1.18,-2.24,-6.87,
2.573,-1.59,2.78,2.10,1.18,-2.24,-6.87,
2.575,-1.59,2.78,2.10,1.09,-2.53,-6.79,
2.578,-2.27,2.43,3.36,1.09,-2.53,-6.79,
2.579,-2.27,2.43,3.36,1.05,-2.68,-6.71,
2.58,-2.27,2.43,3.36,1.08,-2.60,-6.59,
2.583,-2.27,2.43,3.36,1.04,-2.36,-6.48,
2.583,-3.03,0.93,0.62,1.04,-2.36,-6.48,
2.585,-3.03,0.93,0.62,1.08,-1.99,-6.32,
2.588,-4.91,-5.96,0.49,1.08,-1.99,-6.32,
2.588,-4.91,-5.96,0.49,1.20,-1.25,-6.01,
2.59,-4.91,-5.96,0.49,0.88,-0.62,-5.90,
2.593,-4.91,-5.96,0.49,0.70,0.05,-5.78,
2.593,-2.33,-6.29,-2.77,0.70,0.05,-5.78,
2.595,-2.33,-6.29,-2.77,0.57,0.53,-5.80,
2.598,-2.33,-6.29,-2.77,0.40,0.45,-5.86,
2.598,-0.18,-8.49,1.46,0.40,0.45,-5.86,
2.6,-0.18,-8.49,1.46,0.16,-0.10,-6.07,
2.603,1.54,-13.05,0.78,0.16,-0.10,-6.07,
2.604,1.54,-13.05,0.78,-0.04,-0.35,-6.33,
2.605,1.54,-13.05,0.78,-0.14,0.03,-6.60,
2.607,1.54,-13.05,0.78,-0.07,0.65,-6.90,
2.608,1.75,-15.98,0.15,-0.07,0.65,-6.90,
2.612,1.75,-15.98,0.15,-0.03,1.04,-7.19,
2.615,1.55,-16.22,0.02,-0.03,1.04,-7.19,
2.617,1.55,-16.22,0.02,-0.01,1.11,-7.50,
2.622,1.55,-16.22,0.02,-0.03,1.12,-7.74,
2.623,1.55,-16.22,0.02,-0.02,1.08,-7.97,
2.623,0.43,-15.22,-0.13,-0.02,1.08,-7.97,
2.624,0.43,-15.22,-0.13,0.00,0.99,-8.14,
2.624,0.43,-15.22,-0.13,0.05,0.86,-8.25,
2.656,-1.73,-13.48,2.11,0.05,0.86,-8.25,
2.656,-1.73,-13.48,2.11,0.12,0.65,-8.28,
2.656,-4.16,-11.13,2.17,0.12,0.65,-8.28,
2.657,-4.16,-11.13,2.17,0.21,0.43,-8.19,
2.657,-4.16,-11.13,2.17,0.28,0.18,-8.03,
2.657,-4.16,-11.13,2.17,0.36,-0.11,-7.77,
2.657,-4.73,-9.16,0.85,0.36,-0.11,-7.77,
2.658,-4.73,-9.16,0.85,0.33,-0.28,-7.19,
2.658,-4.95,-7.68,-0.74,0.33,-0.28,-7.19,
2.658,-4.95,-7.68,-0.74,0.26,-0.41,-6.42,
2.659,-4.95,-7.68,-0.74,0.14,-0.50,-5.61,
2.659,-2.16,-6.05,-1.30,0.14,-0.50,-5.61,
2.659,-2.16,-6.05,-1.30,-0.03,-0.52,-4.74,
2.659,-2.16,-6.05,-1.30,-0.28,-0.52,-3.85,
2.66,1.89,-2.07,-1.80,-0.28,-0.52,-3.85,
2.66,1.89,-2.07,-1.80,-0.53,-0.55,-3.05,
2.66,1.89,-2.07,-1.80,-0.77,-0.63,-2.39,
2.661,4.61,2.41,-2.01,-0.77,-0.63,-2.39,
2.661,4.61,2.41,-2.01,-0.94,-0.72,-1.87,
2.661,4.61,2.41,-2.01,-1.06,-0.78,-1.43,
2.661,4.61,2.41,-2.01,-1.12,-0.83,-1.02,
2.662,5.76,5.07,-1.65,-1.12,-0.83,-1.02,
2.662,5.76,5.07,-1.65,-1.13,-0.90,-0.66,
2.662,5.76,5.07,-1.65,-1.11,-0.97,-0.36,
2.663,6.38,6.21,-0.74,-1.11,-0.97,-0.36,
2.67,6.38,6.21,-0.74,-1.03,-1.01,-0.10,
2.671,6.38,6.21,-0.74,-0.93,-1.01,0.12,
2.671,4.99,6.08,-0.52,-0.93,-1.01,0.12,
2.671,4.99,6.08,-0.52,-0.80,-0.94,0.28,
2.672,4.99,6.08,-0.52,-0.65,-0.82,0.37,
2.672,4.27,5.40,-0.31,-0.65,-0.82,0.37,
2.675,4.27,5.40,-0.31,-0.49,-0.67,0.43,
2.68,3.08,3.97,0.52,-0.49,-0.67,0.43,
2.681,3.08,3.97,0.52,-0.32,-0.50,0.45,
2.681,3.08,3.97,0.52,-0.14,-0.34,0.45,
2.683,1.72,2.20,1.45,-0.14,-0.34,0.45,
2.683,1.72,2.20,1.45,0.05,-0.18,0.45,
2.685,1.72,2.20,1.45,0.23,-0.05,0.44,
2.688,1.72,2.20,1.45,0.39,0.08,0.43,
2.688,0.66,0.73,1.80,0.39,0.08,0.43,
2.69,0.66,0.73,1.80,0.55,0.21,0.42,
2.693,-0.02,-0.00,1.28,0.55,0.21,0.42,
2.693,-0.02,-0.00,1.28,0.68,0.34,0.40,
2.694,-0.02,-0.00,1.28,0.79,0.44,0.39,
2.697,0.04,0.18,0.58,0.79,0.44,0.39,
2.697,0.04,0.18,0.58,0.88,0.51,0.38,
2.699,0.04,0.18,0.58,0.92,0.55,0.36,
2.701,0.04,0.18,0.58,0.94,0.57,0.35,
2.702,0.30,0.45,-0.49,0.94,0.57,0.35,
2.709,0.35,0.45,-1.23,0.94,0.57,0.35,
2.71,0.35,0.45,-1.23,0.92,0.57,0.34,
2.711,0.35,0.45,-1.23,0.87,0.55,0.35,
2.712,0.35,0.45,-1.23,0.79,0.52,0.36,
2.712,0.14,0.44,-1.92,0.79,0.52,0.36,
2.712,0.14,0.44,-1.92,0.70,0.51,0.39,
2.714,0.14,0.44,-1.92,0.60,0.52,0.43,
2.716,0.14,0.44,-1.92,0.49,0.54,0.47,
2.717,0.03,0.87,-2.20,0.49,0.54,0.47,
2.719,0.03,0.87,-2.20,0.39,0.57,0.52,
2.721,0.03,0.87,-2.20,0.28,0.58,0.58,
2.721,0.03,1.02,-2.18,0.28,0.58,0.58,
2.724,0.03,1.02,-2.18,0.18,0.60,0.64,
2.728,0.27,0.94,-2.05,0.18,0.60,0.64,
2.729,0.27,0.94,-2.05,0.08,0.61,0.71,
2.729,0.27,0.94,-2.05,-0.00,0.62,0.77,
2.736,0.43,0.75,-1.57,-0.00,0.62,0.77,
2.737,0.43,0.75,-1.57,-0.08,0.60,0.82,
2.737,0.43,0.75,-1.57,-0.14,0.58,0.88,
2.737,0.43,0.75,-1.57,-0.20,0.57,0.93,
2.737,0.54,0.57,-1.24,-0.20,0.57,0.93,
2.739,0.54,0.57,-1.24,-0.24,0.56,0.97,
2.743,0.95,0.28,-0.56,-0.24,0.56,0.97,
2.743,0.95,0.28,-0.56,-0.27,0.53,1.00,
2.744,0.95,0.28,-0.56,-0.28,0.49,1.02,
2.746,0.95,0.28,-0.56,-0.29,0.45,1.03,
2.747,1.28,-0.20,-0.01,-0.29,0.45,1.03,
2.749,1.28,-0.20,-0.01,-0.28,0.42,1.02,
2.752,1.28,-0.20,-0.01,-0.26,0.40,1.01,
2.753,1.41,-0.79,0.41,-0.26,0.40,1.01,
2.753,1.41,-0.79,0.41,-0.23,0.37,0.99,
2.756,1.41,-0.79,0.41,-0.19,0.36,0.97,
2.756,1.37,-1.17,0.66,-0.19,0.36,0.97,
2.759,1.37,-1.17,0.66,-0.15,0.37,0.94,
2.761,1.37,-1.17,0.66,-0.10,0.38,0.90,
2.762,1.28,-1.51,0.83,-0.10,0.38,0.90,
2.763,1.28,-1.51,0.83,-0.04,0.38,0.86,
2.766,1.28,-1.51,0.83,0.02,0.40,0.81,
2.766,1.06,-1.81,0.75,0.02,0.40,0.81,
2.768,1.06,-1.81,0.75,0.08,0.41,0.75,
2.771,1.06,-1.81,0.75,0.14,0.42,0.70,
2.771,0.75,-1.87,0.54,0.14,0.42,0.70,
2.773,0.75,-1.87,0.54,0.19,0.42,0.64,
2.777,0.75,-1.87,0.54,0.25,0.41,0.59,
2.777,0.24,-1.84,0.30,0.25,0.41,0.59,
2.778,0.24,-1.84,0.30,0.29,0.40,0.54,
2.781,0.24,-1.84,0.30,0.34,0.38,0.50,
2.781,-0.27,-1.47,-0.10,0.34,0.38,0.50,
2.784,-0.27,-1.47,-0.10,0.38,0.35,0.46,
2.787,-0.27,-1.47,-0.10,0.41,0.29,0.42,
2.787,-0.68,-1.11,-0.34,0.41,0.29,0.42,
2.8,-0.68,-1.11,-0.34,0.44,0.23,0.39,
2.8,-0.68,-1.11,-0.34,0.46,0.16,0.36,
2.801,-0.97,-0.91,-0.54,0.46,0.16,0.36,
2.801,-0.97,-0.91,-0.54,0.47,0.07,0.33,
2.802,-0.97,-0.91,-0.54,0.47,-0.01,0.30,
2.802,-0.97,-0.73,-0.84,0.47,-0.01,0.30,
2.802,-0.97,-0.73,-0.84,0.47,-0.08,0.26,
2.802,-0.97,-0.73,-0.84,0.46,-0.13,0.23,
2.802,-1.09,-0.64,-1.10,0.46,-0.13,0.23,
2.805,-1.09,-0.64,-1.10,0.44,-0.17,0.20,
2.806,-1.08,-0.47,-1.25,0.44,-0.17,0.20,
2.806,-1.08,-0.47,-1.25,0.42,-0.19,0.17,
2.809,-1.08,-0.47,-1.25,0.40,-0.20,0.14,
2.812,-0.90,-0.30,-1.32,0.40,-0.20,0.14,
2.812,-0.90,-0.30,-1.32,0.37,-0.20,0.11,
2.813,-0.90,-0.30,-1.32,0.34,-0.19,0.08,
2.816,-0.90,-0.30,-1.32,0.31,-0.19,0.05,
2.816,-0.62,-0.12,-1.18,0.31,-0.19,0.05,
2.818,-0.62,-0.12,-1.18,0.28,-0.20,0.02,
2.821,-0.62,-0.12,-1.18,0.24,-0.21,-0.01,
2.821,-0.41,0.04,-1.00,0.24,-0.21,-0.01,
2.823,-0.41,0.04,-1.00,0.21,-0.22,-0.04,
2.828,-0.41,0.04,-1.00,0.18,-0.24,-0.05,
2.828,-0.14,0.19,-0.72,0.18,-0.24,-0.05,
2.829,-0.14,0.19,-0.72,0.15,-0.26,-0.07,
2.83,-0.14,0.19,-0.72,0.12,-0.28,-0.08,
2.831,0.13,0.34,-0.53,0.12,-0.28,-0.08,
2.835,0.13,0.34,-0.53,0.10,-0.30,-0.09,
2.835,0.13,0.34,-0.53,0.08,-0.32,-0.10,
2.835,0.40,0.49,-0.29,0.08,-0.32,-0.10,
2.838,0.40,0.49,-0.29,0.06,-0.34,-0.10,
2.841,0.40,0.49,-0.29,0.04,-0.36,-0.10,
2.841,0.55,0.56,-0.20,0.04,-0.36,-0.10,
2.843,0.55,0.56,-0.20,0.03,-0.37,-0.10,
2.848,0.55,0.56,-0.20,0.02,-0.39,-0.10,
2.849,0.73,0.62,-0.12,0.02,-0.39,-0.10,
2.849,0.73,0.62,-0.12,0.01,-0.40,-0.10,
2.851,0.73,0.62,-0.12,0.01,-0.41,-0.10,
2.852,0.83,0.68,-0.19,0.01,-0.41,-0.10,
2.854,0.83,0.68,-0.19,0.00,-0.41,-0.09,
2.856,0.83,0.68,-0.19,0.00,-0.41,-0.08,
2.856,0.91,0.58,-0.28,0.00,-0.41,-0.08,
2.858,0.91,0.58,-0.28,0.00,-0.41,-0.08,
2.862,0.91,0.58,-0.28,0.01,-0.40,-0.08,
2.863,0.99,0.56,-0.38,0.01,-0.40,-0.08,
2.863,0.99,0.56,-0.38,0.01,-0.39,-0.07,
2.866,0.99,0.56,-0.38,0.02,-0.38,-0.07,
2.866,0.85,0.56,-0.55,0.02,-0.38,-0.07,
2.868,0.85,0.56,-0.55,0.02,-0.36,-0.06,
2.87,0.85,0.56,-0.55,0.03,-0.35,-0.06,
2.87,0.80,0.49,-0.64,0.03,-0.35,-0.06,
2.873,0.80,0.49,-0.64,0.04,-0.35,-0.06,
2.877,0.70,0.43,-0.70,0.04,-0.35,-0.06,
2.878,0.70,0.43,-0.70,0.04,-0.34,-0.05,
2.879,0.70,0.43,-0.70,0.05,-0.33,-0.05,
2.881,0.61,0.40,-0.80,0.05,-0.33,-0.05,
2.881,0.61,0.40,-0.80,0.06,-0.33,-0.05,
2.883,0.61,0.40,-0.80,0.07,-0.32,-0.04,
2.885,0.61,0.40,-0.80,0.08,-0.31,-0.04,
2.885,0.52,0.34,-0.84,0.08,-0.31,-0.04,
2.887,0.52,0.34,-0.84,0.09,-0.31,-0.04,
2.89,0.52,0.34,-0.84,0.10,-0.30,-0.04,
2.89,0.34,0.30,-0.88,0.10,-0.30,-0.04,
2.894,0.34,0.30,-0.88,0.11,-0.30,-0.04,
2.895,0.17,0.36,-0.93,0.11,-0.30,-0.04,
2.896,0.17,0.36,-0.93,0.11,-0.30,-0.03,
2.897,0.17,0.36,-0.93,0.13,-0.29,-0.03,
2.9,0.17,0.36,-0.93,0.13,-0.29,-0.03,
2.9,0.10,0.34,-0.90,0.13,-0.29,-0.03,
2.902,0.10,0.34,-0.90,0.14,-0.30,-0.03,
2.905,0.10,0.34,-0.90,0.15,-0.30,-0.03,
2.905,-0.03,0.29,-0.94,0.15,-0.30,-0.03,
2.907,-0.03,0.29,-0.94,0.15,-0.30,-0.03,
2.915,-0.12,0.29,-0.98,0.15,-0.30,-0.03,
2.916,-0.12,0.29,-0.98,0.16,-0.30,-0.03,
2.916,-0.12,0.29,-0.98,0.16,-0.29,-0.03,
2.917,-0.20,0.18,-1.08,0.16,-0.29,-0.03,
2.917,-0.20,0.18,-1.08,0.17,-0.29,-0.03,
2.917,-0.20,0.18,-1.08,0.17,-0.29,-0.03,
2.92,-0.29,0.13,-1.17,0.17,-0.29,-0.03,
2.921,-0.29,0.13,-1.17,0.17,-0.29,-0.02,
2.94,-0.38,0.07,-1.23,0.17,-0.29,-0.02,
2.941,-0.38,0.07,-1.23,0.17,-0.29,-0.02,
2.941,-0.38,0.07,-1.23,0.17,-0.28,-0.02,
2.941,-0.38,0.07,-1.23,0.17,-0.27,-0.02,
2.941,-0.45,-0.05,-1.28,0.17,-0.27,-0.02,
2.942,-0.45,-0.05,-1.28,0.16,-0.27,-0.02,
2.942,-0.54,-0.06,-1.36,0.16,-0.27,-0.02,
2.942,-0.54,-0.06,-1.36,0.16,-0.26,-0.02,
2.942,-0.54,-0.06,-1.36,0.15,-0.26,-0.02,
2.942,-0.54,-0.06,-1.36,0.15,-0.25,-0.01,
2.943,-0.59,-0.18,-1.40,0.15,-0.25,-0.01,
2.943,-0.59,-0.18,-1.40,0.14,-0.24,-0.01,
2.943,-0.59,-0.18,-1.40,0.13,-0.24,-0.00,
2.947,-0.66,-0.24,-1.38,0.13,-0.24,-0.00,
2.948,-0.66,-0.24,-1.38,0.13,-0.24,-0.00,
2.949,-0.66,-0.24,-1.38,0.12,-0.23,-0.00,
2.95,-0.66,-0.24,-1.38,0.12,-0.23,0.00,
2.95,-0.72,-0.30,-1.32,0.12,-0.23,0.00,
2.952,-0.72,-0.30,-1.32,0.11,-0.23,0.01,
2.968,-0.72,-0.30,-1.32,0.11,-0.22,0.01,
2.968,-0.72,-0.35,-1.34,0.11,-0.22,0.01,
2.968,-0.72,-0.35,-1.34,0.11,-0.22,0.01,
2.969,-0.78,-0.39,-1.33,0.11,-0.22,0.01,
2.969,-0.78,-0.39,-1.33,0.11,-0.21,0.01,
2.969,-0.78,-0.39,-1.33,0.11,-0.20,0.02,
2.969,-0.78,-0.39,-1.33,0.10,-0.20,0.02,
2.969,-0.75,-0.36,-1.32,0.10,-0.20,0.02,
2.97,-0.75,-0.36,-1.32,0.10,-0.20,0.02,
2.97,-0.75,-0.36,-1.32,0.10,-0.19,0.02,
2.97,-0.74,-0.36,-1.32,0.10,-0.19,0.02,
2.974,-0.74,-0.36,-1.32,0.10,-0.19,0.02,
2.975,-0.74,-0.36,-1.32,0.11,-0.18,0.02,
2.975,-0.72,-0.31,-1.30,0.11,-0.18,0.02,
2.978,-0.72,-0.31,-1.30,0.11,-0.17,0.02,
2.98,-0.72,-0.31,-1.30,0.12,-0.17,0.02,
2.981,-0.71,-0.29,-1.28,0.12,-0.17,0.02,
2.985,-0.71,-0.29,-1.28,0.12,-0.16,0.02,
2.985,-0.71,-0.29,-1.28,0.12,-0.16,0.03,
2.985,-0.68,-0.22,-1.23,0.12,-0.16,0.03,
2.987,-0.68,-0.22,-1.23,0.13,-0.16,0.03,
2.989,-0.68,-0.22,-1.23,0.13,-0.17,0.04,
2.99,-0.63,-0.16,-1.22,0.13,-0.17,0.04,
2.992,-0.63,-0.16,-1.22,0.13,-0.17,0.04,
2.995,-0.48,-0.11,-1.19,0.13,-0.17,0.04,
2.995,-0.48,-0.11,-1.19,0.13,-0.17,0.05,
2.997,-0.48,-0.11,-1.19,0.13,-0.18,0.05,
3.0,-0.48,-0.11,-1.19,0.13,-0.19,0.06,
3.0,-0.38,-0.14,-1.10,0.13,-0.19,0.06,
3.002,-0.38,-0.14,-1.10,0.14,-0.19,0.06,
3.004,-0.38,-0.14,-1.10,0.14,-0.19,0.06,
3.005,-0.30,-0.13,-1.06,0.14,-0.19,0.06,
3.007,-0.30,-0.13,-1.06,0.14,-0.19,0.05,
3.013,-0.21,-0.06,-0.99,0.14,-0.19,0.05,
3.014,-0.21,-0.06,-0.99,0.14,-0.19,0.05,
3.014,-0.21,-0.06,-0.99,0.15,-0.19,0.04,
3.015,-0.21,-0.06,-0.99,0.15,-0.19,0.03,
3.016,-0.18,-0.00,-0.95,0.15,-0.19,0.03,
3.017,-0.18,-0.00,-0.95,0.16,-0.19,0.03,
3.021,-0.19,0.09,-0.95,0.16,-0.19,0.03,
3.022,-0.19,0.09,-0.95,0.16,-0.19,0.02,
3.022,-0.19,0.09,-0.95,0.16,-0.20,0.01,
3.025,-0.22,0.19,-0.94,0.16,-0.20,0.01,
3.043,-0.22,0.19,-0.94,0.17,-0.20,0.01,
3.043,-0.22,0.19,-0.94,0.17,-0.20,0.00,
3.043,-0.22,0.19,-0.94,0.17,-0.20,-0.00,
3.044,-0.17,0.27,-0.93,0.17,-0.20,-0.00,
3.044,-0.17,0.27,-0.93,0.17,-0.20,-0.01,
3.044,-0.17,0.27,-0.93,0.18,-0.21,-0.01,
3.044,-0.12,0.29,-0.88,0.18,-0.21,-0.01,
3.044,-0.12,0.29,-0.88,0.18,-0.21,-0.01,
3.044,-0.12,0.29,-0.88,0.18,-0.22,-0.02,
3.044,-0.08,0.33,-0.81,0.18,-0.22,-0.02,
3.045,-0.08,0.33,-0.81,0.18,-0.22,-0.02,
3.045,-0.06,0.36,-0.77,0.18,-0.22,-0.02,
3.045,-0.06,0.36,-0.77,0.18,-0.22,-0.02,
3.05,0.00,0.37,-0.74,0.18,-0.22,-0.02,
3.051,0.00,0.37,-0.74,0.19,-0.22,-0.02,
3.051,0.00,0.37,-0.74,0.19,-0.22,-0.02,
3.051,0.00,0.37,-0.74,0.19,-0.23,-0.02,
3.055,0.06,0.42,-0.68,0.19,-0.23,-0.02,
3.055,0.06,0.42,-0.68,0.20,-0.23,-0.02,
3.056,0.06,0.42,-0.68,0.20,-0.23,-0.02,
3.059,0.06,0.42,-0.68,0.21,-0.23,-0.01,
3.059,0.07,0.40,-0.69,0.21,-0.23,-0.01,
3.061,0.07,0.40,-0.69,0.21,-0.23,-0.01,
3.064,0.08,0.45,-0.73,0.21,-0.23,-0.01,
3.064,0.08,0.45,-0.73,0.22,-0.23,-0.01,
3.066,0.08,0.45,-0.73,0.22,-0.22,-0.00,
3.069,0.08,0.45,-0.73,0.23,-0.22,0.00,
3.07,0.06,0.46,-0.81,0.23,-0.22,0.00,
3.072,0.06,0.46,-0.81,0.24,-0.21,0.00,
3.074,0.06,0.46,-0.81,0.24,-0.21,0.01,
3.074,0.02,0.51,-0.87,0.24,-0.21,0.01,
3.078,0.02,0.51,-0.87,0.25,-0.21,0.01,
3.079,-0.05,0.54,-0.92,0.25,-0.21,0.01,
3.08,-0.05,0.54,-0.92,0.26,-0.21,0.02,
3.082,-0.05,0.54,-0.92,0.26,-0.21,0.03,
3.084,-0.05,0.54,-0.92,0.27,-0.21,0.03,
3.084,-0.03,0.53,-0.95,0.27,-0.21,0.03,
3.086,-0.03,0.53,-0.95,0.28,-0.20,0.04,
3.088,-0.03,0.53,-0.95,0.29,-0.20,0.04,
3.089,-0.04,0.57,-1.00,0.29,-0.20,0.04,
3.091,-0.04,0.57,-1.00,0.30,-0.19,0.05,
3.094,-0.12,0.56,-1.02,0.30,-0.19,0.05,
3.096,-0.12,0.56,-1.02,0.31,-0.19,0.05,
3.102,-0.10,0.49,-1.02,0.31,-0.19,0.05,
3.102,-0.10,0.49,-1.02,0.32,-0.19,0.06,
3.102,-0.10,0.49,-1.02,0.33,-0.20,0.06,
3.103,-0.10,0.49,-1.02,0.34,-0.20,0.07,
3.104,-0.08,0.42,-1.00,0.34,-0.20,0.07,
3.104,-0.08,0.42,-1.00,0.35,-0.20,0.07,
3.106,-0.08,0.42,-1.00,0.36,-0.21,0.08,
3.109,-0.10,0.34,-1.03,0.36,-0.21,0.08,
3.109,-0.10,0.34,-1.03,0.37,-0.21,0.08,
3.115,-0.10,0.34,-1.03,0.38,-0.21,0.08,
3.117,-0.06,0.24,-1.06,0.38,-0.21,0.08,
3.117,-0.06,0.24,-1.06,0.39,-0.21,0.09,
3.118,-0.06,0.24,-1.06,0.40,-0.22,0.09,
3.119,-0.04,0.18,-1.09,0.40,-0.22,0.09,
3.145,-0.04,0.18,-1.09,0.40,-0.22,0.08,
3.145,-0.04,0.18,-1.09,0.41,-0.22,0.08,
3.145,-0.04,0.18,-1.09,0.41,-0.23,0.08,
3.146,0.01,0.04,-1.08,0.41,-0.23,0.08,
3.146,0.01,0.04,-1.08,0.41,-0.23,0.07,
3.146,0.01,0.04,-1.08,0.41,-0.24,0.07,
3.146,-0.06,-0.02,-1.11,0.41,-0.24,0.07,
3.147,-0.06,-0.02,-1.11,0.42,-0.24,0.06,
3.147,-0.06,-0.02,-1.11,0.42,-0.24,0.06,
3.147,-0.05,-0.08,-1.18,0.42,-0.24,0.06,
3.147,-0.05,-0.08,-1.18,0.42,-0.24,0.06,
3.148,-0.05,-0.08,-1.18,0.41,-0.24,0.05,
3.148,-0.09,-0.13,-1.29,0.41,-0.24,0.05,
3.148,-0.09,-0.13,-1.29,0.41,-0.24,0.05,
3.148,-0.09,-0.13,-1.38,0.41,-0.24,0.05,
3.149,-0.09,-0.13,-1.38,0.40,-0.24,0.05,
3.149,-0.09,-0.13,-1.38,0.39,-0.24,0.04,
3.149,-0.09,-0.13,-1.38,0.39,-0.24,0.04,
3.149,-0.03,-0.19,-1.42,0.39,-0.24,0.04,
3.151,-0.03,-0.19,-1.42,0.38,-0.24,0.04,
3.158,-0.03,-0.19,-1.42,0.38,-0.24,0.03,
3.158,-0.03,-0.19,-1.42,0.37,-0.23,0.03,
3.158,-0.05,-0.22,-1.50,0.37,-0.23,0.03,
3.158,-0.05,-0.22,-1.50,0.36,-0.22,0.03,
3.158,-0.11,-0.16,-1.61,0.36,-0.22,0.03,
3.162,-0.11,-0.16,-1.61,0.35,-0.22,0.03,
3.163,-0.11,-0.16,-1.61,0.34,-0.21,0.04,
3.163,-0.09,-0.16,-1.64,0.34,-0.21,0.04,
3.165,-0.09,-0.16,-1.64,0.33,-0.20,0.04,
3.168,-0.09,-0.16,-1.64,0.33,-0.19,0.04,
3.168,-0.08,-0.11,-1.65,0.33,-0.19,0.04,
3.17,-0.08,-0.11,-1.65,0.32,-0.19,0.04,
3.173,-0.08,-0.11,-1.65,0.32,-0.18,0.04,
3.173,-0.10,-0.11,-1.65,0.32,-0.18,0.04,
3.175,-0.10,-0.11,-1.65,0.32,-0.18,0.04,
3.179,-0.10,-0.11,-1.65,0.32,-0.18,0.04,
3.179,-0.04,-0.04,-1.61,0.32,-0.18,0.04,
3.18,-0.04,-0.04,-1.61,0.32,-0.18,0.04,
3.183,-0.02,-0.07,-1.65,0.32,-0.18,0.04,
3.183,-0.02,-0.07,-1.65,0.33,-0.17,0.05,
3.186,-0.02,-0.07,-1.65,0.33,-0.17,0.05,
3.187,-0.02,-0.07,-1.65,0.33,-0.17,0.06,
3.188,-0.03,-0.02,-1.66,0.33,-0.17,0.06,
3.19,-0.03,-0.02,-1.66,0.33,-0.17,0.07,
3.194,-0.03,-0.02,-1.66,0.34,-0.17,0.07,
3.195,0.10,-0.09,-1.61,0.34,-0.17,0.07,
3.196,0.10,-0.09,-1.61,0.34,-0.17,0.07,
3.199,0.10,-0.09,-1.61,0.35,-0.17,0.08,
3.199,0.13,-0.04,-1.64,0.35,-0.17,0.08,
3.202,0.13,-0.04,-1.64,0.35,-0.17,0.08,
3.203,0.13,-0.04,-1.64,0.35,-0.18,0.09,
3.203,0.17,-0.06,-1.67,0.35,-0.18,0.09,
3.206,0.17,-0.06,-1.67,0.36,-0.18,0.10,
3.207,0.17,-0.06,-1.67,0.36,-0.18,0.10,
3.207,0.27,-0.15,-1.72,0.36,-0.18,0.10,
3.213,0.27,-0.15,-1.72,0.36,-0.18,0.10,
3.218,0.27,-0.15,-1.72,0.36,-0.18,0.11,
3.218,0.41,-0.15,-1.76,0.36,-0.18,0.11,
3.219,0.41,-0.15,-1.76,0.36,-0.19,0.11,
3.221,0.41,-0.15,-1.76,0.36,-0.19,0.12,
3.222,0.41,-0.15,-1.76,0.35,-0.19,0.12,
3.222,0.45,-0.13,-1.85,0.35,-0.19,0.12,
3.223,0.48,-0.11,-1.96,0.35,-0.19,0.12,
3.226,0.48,-0.11,-1.96,0.35,-0.19,0.13,
3.226,0.48,-0.11,-1.96,0.34,-0.19,0.13,
3.234,0.48,-0.11,-1.96,0.33,-0.19,0.13,
3.235,0.58,-0.05,-2.02,0.33,-0.19,0.13,
3.235,0.58,-0.05,-2.02,0.32,-0.19,0.14,
3.235,0.58,-0.05,-2.02,0.31,-0.19,0.15,
3.236,0.60,-0.01,-2.04,0.31,-0.19,0.15,
3.236,0.60,-0.01,-2.04,0.30,-0.20,0.15,
3.237,0.68,-0.04,-2.02,0.30,-0.20,0.15,
3.237,0.68,-0.04,-2.02,0.29,-0.20,0.15,
3.239,0.68,-0.04,-2.02,0.29,-0.21,0.15,
3.242,0.68,-0.04,-2.02,0.28,-0.22,0.15,
3.242,0.75,-0.11,-1.92,0.28,-0.22,0.15,
3.245,0.75,-0.11,-1.92,0.28,-0.22,0.15,
3.249,0.75,-0.11,-1.92,0.28,-0.22,0.15,
3.249,0.68,-0.02,-1.99,0.28,-0.22,0.15,
3.25,0.68,-0.02,-1.99,0.27,-0.22,0.15,
3.254,0.68,-0.02,-1.99,0.27,-0.22,0.16,
3.254,0.70,0.06,-2.10,0.27,-0.22,0.16,
3.254,0.70,0.06,-2.10,0.27,-0.22,0.16,
3.258,0.70,0.06,-2.10,0.26,-0.22,0.16,
3.258,0.74,0.07,-2.12,0.26,-0.22,0.16,
3.26,0.74,0.07,-2.12,0.26,-0.23,0.16,
3.262,0.74,0.07,-2.12,0.25,-0.23,0.16,
3.262,0.67,0.14,-2.19,0.25,-0.23,0.16,
3.264,0.67,0.14,-2.19,0.25,-0.23,0.17,
3.267,0.67,0.14,-2.19,0.25,-0.24,0.17,
3.267,0.63,0.15,-2.21,0.25,-0.24,0.17,
3.269,0.63,0.15,-2.21,0.24,-0.24,0.17,
3.272,0.63,0.15,-2.21,0.24,-0.25,0.18,
3.272,0.62,0.13,-2.23,0.24,-0.25,0.18,
3.274,0.62,0.13,-2.23,0.24,-0.25,0.18,
3.277,0.61,0.17,-2.32,0.24,-0.25,0.18,
3.281,0.61,0.17,-2.32,0.25,-0.26,0.19,
3.281,0.61,0.17,-2.32,0.25,-0.26,0.19,
3.284,0.61,0.17,-2.32,0.25,-0.27,0.19,
3.284,0.57,0.20,-2.35,0.25,-0.27,0.19,
3.303,0.57,0.20,-2.35,0.25,-0.28,0.20,
3.304,0.57,0.20,-2.35,0.25,-0.28,0.20,
3.304,0.58,0.19,-2.40,0.25,-0.28,0.20,
3.304,0.58,0.19,-2.40,0.26,-0.29,0.21,
3.304,0.58,0.19,-2.40,0.27,-0.30,0.22,
3.305,0.62,0.19,-2.41,0.27,-0.30,0.22,
3.305,0.62,0.19,-2.41,0.27,-0.31,0.22,
3.305,0.62,0.19,-2.41,0.28,-0.32,0.23,
3.305,0.63,0.22,-2.38,0.28,-0.32,0.23,
3.306,0.63,0.22,-2.38,0.28,-0.34,0.23,
3.306,0.63,0.22,-2.38,0.29,-0.35,0.24,
3.306,0.65,0.21,-2.36,0.29,-0.35,0.24,
3.306,0.65,0.21,-2.36,0.30,-0.36,0.25,
3.307,0.65,0.21,-2.36,0.31,-0.37,0.26,
3.307,0.68,0.27,-2.28,0.31,-0.37,0.26,
3.314,0.68,0.27,-2.28,0.32,-0.39,0.27,
3.314,0.68,0.27,-2.28,0.33,-0.41,0.27,
3.315,0.76,0.26,-2.04,0.33,-0.41,0.27,
3.315,0.76,0.26,-2.04,0.34,-0.44,0.28,
3.317,0.93,0.20,-1.53,0.34,-0.44,0.28,
3.317,0.93,0.20,-1.53,0.37,-0.47,0.29,
3.319,0.93,0.20,-1.53,0.40,-0.51,0.29,
3.321,0.93,0.20,-1.53,0.43,-0.55,0.29,
3.322,1.13,0.13,-0.89,0.43,-0.55,0.29,
3.324,1.13,0.13,-0.89,0.48,-0.60,0.30,
3.327,1.31,0.02,-0.29,0.48,-0.60,0.30,
3.327,1.31,0.02,-0.29,0.52,-0.65,0.30,
3.329,1.31,0.02,-0.29,0.58,-0.70,0.30,
3.331,1.31,0.02,-0.29,0.63,-0.76,0.30,
3.331,1.61,-0.20,0.19,0.63,-0.76,0.30,
3.333,1.61,-0.20,0.19,0.69,-0.82,0.30,
3.336,1.61,-0.20,0.19,0.74,-0.89,0.29,
3.336,2.04,-0.48,0.57,0.74,-0.89,0.29,
3.339,2.04,-0.48,0.57,0.80,-0.95,0.28,
3.341,2.04,-0.48,0.57,0.85,-1.01,0.27,
3.342,2.41,-0.84,0.69,0.85,-1.01,0.27,
3.346,2.41,-0.84,0.69,0.90,-1.07,0.25,
3.346,2.41,-0.84,0.69,0.94,-1.12,0.24,
3.347,2.83,-1.18,0.61,0.94,-1.12,0.24,
3.348,2.83,-1.18,0.61,0.97,-1.16,0.22,
3.351,2.83,-1.18,0.61,1.00,-1.20,0.19,
3.352,3.19,-1.60,0.37,1.00,-1.20,0.19,
3.355,3.19,-1.60,0.37,1.01,-1.23,0.16,
3.356,3.19,-1.60,0.37,1.02,-1.25,0.13,
3.356,3.41,-1.96,-0.17,1.02,-1.25,0.13,
3.36,3.41,-1.96,-0.17,1.01,-1.25,0.09,
3.363,3.41,-1.96,-0.17,0.99,-1.23,0.05,
3.363,3.54,-2.33,-1.00,0.99,-1.23,0.05,
3.364,3.54,-2.33,-1.00,0.96,-1.20,0.01,
3.366,3.54,-2.33,-1.00,0.91,-1.15,-0.03,
3.367,3.36,-2.61,-1.62,0.91,-1.15,-0.03,
3.369,3.36,-2.61,-1.62,0.86,-1.10,-0.07,
3.373,3.36,-2.61,-1.62,0.81,-1.04,-0.10,
3.376,3.36,-2.61,-1.62,0.75,-0.98,-0.13,
3.376,2.94,-2.62,-2.09,0.75,-0.98,-0.13,
3.377,2.23,-2.40,-2.36,0.75,-0.98,-0.13,
3.378,2.23,-2.40,-2.36,0.70,-0.93,-0.15,
3.379,2.23,-2.40,-2.36,0.64,-0.88,-0.17,
3.381,1.39,-2.08,-2.28,0.64,-0.88,-0.17,
3.382,1.39,-2.08,-2.28,0.59,-0.85,-0.17,
3.383,1.39,-2.08,-2.28,0.55,-0.83,-0.16,
3.387,1.39,-2.08,-2.28,0.51,-0.84,-0.15,
3.388,0.65,-1.58,-2.08,0.51,-0.84,-0.15,
3.388,0.65,-1.58,-2.08,0.48,-0.85,-0.13,
3.391,0.65,-1.58,-2.08,0.46,-0.86,-0.10,
3.391,0.15,-1.00,-1.71,0.46,-0.86,-0.10,
3.393,0.15,-1.00,-1.71,0.44,-0.88,-0.07,
3.396,-0.08,-0.49,-1.15,0.44,-0.88,-0.07,
3.396,-0.08,-0.49,-1.15,0.44,-0.91,-0.03,
3.398,-0.08,-0.49,-1.15,0.43,-0.93,0.01,
3.401,-0.08,-0.49,-1.15,0.44,-0.97,0.05,
3.402,-0.14,-0.12,-0.50,0.44,-0.97,0.05,
3.403,-0.14,-0.12,-0.50,0.45,-1.00,0.08,
3.406,-0.14,-0.12,-0.50,0.47,-1.02,0.12,
3.406,-0.10,0.01,0.06,0.47,-1.02,0.12,
3.408,-0.10,0.01,0.06,0.49,-1.04,0.16,
3.412,0.03,-0.01,0.36,0.49,-1.04,0.16,
3.413,0.03,-0.01,0.36,0.51,-1.05,0.19,
3.413,0.03,-0.01,0.36,0.52,-1.05,0.22,
3.416,0.03,-0.01,0.36,0.54,-1.05,0.25,
3.416,0.10,-0.03,0.52,0.54,-1.05,0.25,
3.418,0.10,-0.03,0.52,0.55,-1.03,0.27,
3.42,0.10,-0.03,0.52,0.56,-1.02,0.29,
3.421,0.11,-0.04,0.71,0.56,-1.02,0.29,
3.423,0.11,-0.04,0.71,0.56,-1.00,0.31,
3.426,0.11,-0.04,0.71,0.57,-0.98,0.33,
3.426,-0.02,0.01,0.91,0.57,-0.98,0.33,
3.437,-0.02,0.01,0.91,0.57,-0.97,0.35,
3.437,-0.02,0.01,0.91,0.57,-0.96,0.36,
3.437,-0.18,0.05,1.18,0.57,-0.96,0.36,
3.437,-0.18,0.05,1.18,0.57,-0.95,0.38,
3.438,-0.26,0.05,1.56,0.57,-0.95,0.38,
3.438,-0.26,0.05,1.56,0.58,-0.96,0.39,
3.438,-0.26,0.05,1.56,0.58,-0.96,0.41,
3.441,-0.26,0.05,1.56,0.59,-0.96,0.42,
3.441,-0.25,0.00,1.79,0.59,-0.96,0.42,
3.443,-0.25,0.00,1.79,0.60,-0.96,0.43,
3.445,-0.25,0.00,1.79,0.61,-0.95,0.43,
3.445,-0.29,-0.13,1.98,0.61,-0.95,0.43,
3.448,-0.29,-0.13,1.98,0.62,-0.94,0.44,
3.46,-0.29,-0.13,1.98,0.64,-0.93,0.44,
3.46,-0.39,-0.22,2.13,0.64,-0.93,0.44,
3.46,-0.39,-0.22,2.13,0.65,-0.91,0.44,
3.46,-0.52,-0.32,2.19,0.65,-0.91,0.44,
3.46,-0.52,-0.32,2.19,0.67,-0.89,0.44,
3.46,-0.52,-0.32,2.19,0.68,-0.87,0.44,
3.462,-0.52,-0.32,2.19,0.70,-0.85,0.44,
3.462,-0.56,-0.41,2.23,0.70,-0.85,0.44,
3.463,-0.56,-0.41,2.23,0.71,-0.84,0.43,
3.466,-0.56,-0.41,2.23,0.73,-0.82,0.42,
3.467,-0.63,-0.50,2.16,0.73,-0.82,0.42,
3.467,-0.63,-0.50,2.16,0.74,-0.79,0.41,
3.47,-0.63,-0.50,2.16,0.75,-0.77,0.41,
3.47,-0.78,-0.52,2.02,0.75,-0.77,0.41,
3.472,-0.78,-0.52,2.02,0.76,-0.74,0.40,
3.475,-0.78,-0.52,2.02,0.76,-0.71,0.39,
3.476,-0.82,-0.46,1.81,0.76,-0.71,0.39,
3.478,-0.82,-0.46,1.81,0.76,-0.67,0.38,
3.48,-0.82,-0.46,1.81,0.76,-0.64,0.37,
3.481,-0.91,-0.33,1.53,0.76,-0.64,0.37,
3.483,-0.91,-0.33,1.53,0.76,-0.61,0.36,
3.485,-0.91,-0.33,1.53,0.75,-0.58,0.35,
3.485,-1.04,-0.27,1.24,0.75,-0.58,0.35,
3.487,-1.04,-0.27,1.24,0.74,-0.55,0.34,
3.494,-1.04,-0.27,1.24,0.73,-0.52,0.33,
3.494,-1.04,-0.27,1.24,0.71,-0.50,0.32,
3.494,-1.14,-0.18,0.97,0.71,-0.50,0.32,
3.495,-1.26,-0.05,0.74,0.71,-0.50,0.32,
3.496,-1.26,-0.05,0.74,0.70,-0.48,0.31,
3.498,-1.26,-0.05,0.74,0.68,-0.46,0.31,
3.501,-1.46,0.05,0.56,0.68,-0.46,0.31,
3.501,-1.46,0.05,0.56,0.66,-0.44,0.30,
3.503,-1.46,0.05,0.56,0.64,-0.43,0.30,
3.506,-1.46,0.05,0.56,0.62,-0.43,0.30,
3.506,-1.59,0.12,0.43,0.62,-0.43,0.30,
3.508,-1.59,0.12,0.43,0.60,-0.42,0.30,
3.511,-1.59,0.12,0.43,0.58,-0.41,0.30,
3.511,-1.62,0.18,0.21,0.58,-0.41,0.30,
3.513,-1.62,0.18,0.21,0.55,-0.40,0.30,
3.515,-1.62,0.18,0.21,0.52,-0.39,0.29,
3.515,-1.81,0.25,0.02,0.52,-0.39,0.29,
3.517,-1.81,0.25,0.02,0.50,-0.39,0.29,
3.521,-1.81,0.25,0.02,0.48,-0.38,0.30,
3.521,-1.94,0.26,-0.04,0.48,-0.38,0.30,
3.522,-1.94,0.26,-0.04,0.45,-0.37,0.30,
3.525,-1.94,0.26,-0.04,0.43,-0.37,0.29,
3.525,-1.99,0.30,-0.14,0.43,-0.37,0.29,
3.528,-1.99,0.30,-0.14,0.41,-0.36,0.29,
3.535,-1.99,0.30,-0.14,0.38,-0.36,0.29,
3.535,-2.00,0.27,-0.22,0.38,-0.36,0.29,
3.535,-2.00,0.27,-0.22,0.36,-0.36,0.29,
3.535,-2.00,0.27,-0.22,0.34,-0.36,0.28,
3.535,-1.99,0.27,-0.28,0.34,-0.36,0.28,
3.541,-1.99,0.27,-0.28,0.31,-0.36,0.28,
3.541,-1.99,0.23,-0.33,0.31,-0.36,0.28,
3.541,-1.99,0.23,-0.33,0.29,-0.35,0.28,
3.542,-1.99,0.23,-0.33,0.27,-0.35,0.28,
3.548,-1.97,0.14,-0.31,0.27,-0.35,0.28,
3.548,-1.97,0.14,-0.31,0.25,-0.34,0.28,
3.549,-1.97,0.14,-0.31,0.23,-0.33,0.28,
3.549,-1.97,0.14,-0.31,0.21,-0.33,0.28,
3.549,-1.90,0.00,-0.25,0.21,-0.33,0.28,
3.552,-1.90,0.00,-0.25,0.20,-0.33,0.28,
3.554,-1.90,0.00,-0.25,0.18,-0.32,0.28,
3.555,-1.85,-0.11,-0.15,0.18,-0.32,0.28,
3.557,-1.85,-0.11,-0.15,0.17,-0.32,0.28,
3.559,-1.85,-0.11,-0.15,0.16,-0.31,0.28,
3.56,-1.77,-0.27,-0.03,0.16,-0.31,0.28,
3.562,-1.77,-0.27,-0.03,0.15,-0.31,0.29,
3.565,-1.77,-0.27,-0.03,0.15,-0.30,0.29,
3.565,-1.61,-0.35,0.09,0.15,-0.30,0.29,
3.566,-1.61,-0.35,0.09,0.15,-0.29,0.29,
3.569,-1.61,-0.35,0.09,0.15,-0.29,0.29,
3.57,-1.53,-0.39,0.20,0.15,-0.29,0.29,
3.571,-1.53,-0.39,0.20,0.15,-0.28,0.29,
3.574,-1.53,-0.39,0.20,0.15,-0.27,0.29,
3.574,-1.42,-0.39,0.22,0.15,-0.27,0.29,
3.578,-1.42,-0.39,0.22,0.16,-0.26,0.30,
3.58,-1.42,-0.39,0.22,0.16,-0.24,0.30,
3.58,-1.35,-0.31,0.18,0.16,-0.24,0.30,
3.581,-1.35,-0.31,0.18,0.17,-0.23,0.31,
3.584,-1.35,-0.31,0.18,0.17,-0.21,0.31,
3.584,-1.17,-0.24,0.13,0.17,-0.21,0.31,
3.586,-1.17,-0.24,0.13,0.18,-0.19,0.31,
3.589,-1.17,-0.24,0.13,0.18,-0.17,0.31,
3.589,-1.04,-0.17,-0.03,0.18,-0.17,0.31,
3.591,-1.04,-0.17,-0.03,0.18,-0.15,0.31,
3.595,-1.04,-0.17,-0.03,0.18,-0.13,0.31,
3.596,-0.95,-0.09,-0.22,0.18,-0.13,0.31,
3.597,-0.95,-0.09,-0.22,0.18,-0.11,0.31,
3.599,-0.95,-0.09,-0.22,0.18,-0.09,0.31,
3.599,-0.90,0.00,-0.44,0.18,-0.09,0.31,
3.601,-0.90,0.00,-0.44,0.17,-0.08,0.31,
3.604,-0.90,0.00,-0.44,0.16,-0.06,0.31,
3.604,-0.81,0.13,-0.69,0.16,-0.06,0.31,
3.606,-0.81,0.13,-0.69,0.15,-0.05,0.31,
3.609,-0.81,0.13,-0.69,0.14,-0.04,0.31,
3.609,-0.74,0.29,-0.91,0.14,-0.04,0.31,
3.616,-0.74,0.29,-0.91,0.13,-0.03,0.31,
3.616,-0.74,0.29,-0.91,0.11,-0.02,0.31,
3.637,-0.75,0.45,-1.08,0.11,-0.02,0.31,
3.637,-0.75,0.45,-1.08,0.10,-0.01,0.31,
3.637,-0.75,0.45,-1.08,0.08,0.00,0.31,
3.637,-0.72,0.63,-1.23,0.08,0.00,0.31,
3.638,-0.72,0.63,-1.23,0.07,0.00,0.31,
3.638,-0.72,0.63,-1.23,0.04,0.01,0.31,
3.638,-0.62,0.77,-1.34,0.04,0.01,0.31,
3.638,-0.62,0.77,-1.34,0.03,0.00,0.30,
3.638,-0.62,0.77,-1.34,0.01,-0.00,0.30,
3.638,-0.60,0.78,-1.29,0.01,-0.00,0.30,
3.639,-0.60,0.78,-1.29,-0.00,-0.01,0.30,
3.639,-0.60,0.78,-1.29,-0.01,-0.02,0.30,
3.639,-0.65,0.86,-1.28,-0.01,-0.02,0.30,
3.639,-0.65,0.86,-1.28,-0.02,-0.03,0.30,
3.639,-0.65,0.86,-1.28,-0.02,-0.03,0.29,
3.639,-0.61,0.99,-1.24,-0.02,-0.03,0.29,
3.642,-0.61,0.99,-1.24,-0.02,-0.04,0.29,
3.647,-0.56,1.00,-1.34,-0.02,-0.04,0.29,
3.648,-0.56,1.00,-1.34,-0.03,-0.04,0.29,
3.649,-0.56,1.00,-1.34,-0.04,-0.05,0.28,
3.649,-0.56,1.00,-1.34,-0.05,-0.06,0.28,
3.649,-0.52,1.13,-1.42,-0.05,-0.06,0.28,
3.651,-0.52,1.13,-1.42,-0.05,-0.07,0.28,
3.653,-0.45,1.20,-1.38,-0.05,-0.07,0.28,
3.654,-0.45,1.20,-1.38,-0.06,-0.08,0.27,
3.656,-0.45,1.20,-1.38,-0.07,-0.10,0.26,
3.659,-0.44,1.17,-1.27,-0.07,-0.10,0.26,
3.659,-0.44,1.17,-1.27,-0.07,-0.11,0.26,
3.662,-0.44,1.17,-1.27,-0.08,-0.13,0.26,
3.663,-0.47,1.13,-1.15,-0.08,-0.13,0.26,
3.664,-0.47,1.13,-1.15,-0.07,-0.15,0.25,
3.666,-0.47,1.13,-1.15,-0.07,-0.16,0.25,
3.668,-0.47,1.13,-1.15,-0.06,-0.17,0.25,
3.669,-0.45,1.05,-1.10,-0.06,-0.17,0.25,
3.671,-0.45,1.05,-1.10,-0.06,-0.17,0.24,
3.674,-0.45,1.05,-1.10,-0.05,-0.18,0.24,
3.674,-0.41,1.02,-1.09,-0.05,-0.18,0.24,
3.676,-0.41,1.02,-1.09,-0.04,-0.19,0.24,
3.679,-0.44,1.03,-1.12,-0.04,-0.19,0.24,
3.68,-0.44,1.03,-1.12,-0.04,-0.19,0.23,
3.684,-0.48,1.03,-1.17,-0.04,-0.19,0.23,
3.689,-0.52,1.04,-1.21,-0.04,-0.19,0.23,
3.69,-0.52,1.04,-1.21,-0.03,-0.20,0.23,
3.69,-0.52,1.04,-1.21,-0.03,-0.20,0.23,
3.69,-0.52,1.04,-1.21,-0.03,-0.21,0.22,
3.69,-0.52,1.04,-1.21,-0.02,-0.21,0.22,
3.692,-0.52,1.04,-1.21,-0.02,-0.22,0.22,
3.694,-0.52,1.04,-1.21,-0.02,-0.23,0.22,
3.698,-0.58,1.02,-1.15,-0.02,-0.23,0.22,
3.698,-0.58,1.02,-1.15,-0.02,-0.23,0.21,
3.698,-0.58,1.02,-1.15,-0.01,-0.24,0.21,
3.698,-0.65,0.99,-1.08,-0.01,-0.24,0.21,
3.7,-0.65,0.99,-1.08,-0.01,-0.24,0.21,
3.703,-0.65,0.99,-1.08,-0.01,-0.25,0.21,
3.703,-0.71,0.98,-1.04,-0.01,-0.25,0.21,
3.705,-0.71,0.98,-1.04,-0.00,-0.26,0.21,
3.708,-0.71,0.98,-1.04,0.00,-0.27,0.21,
3.708,-0.74,1.02,-1.08,0.00,-0.27,0.21,
3.713,-0.74,1.02,-1.08,-0.00,-0.28,0.21,
3.716,-0.74,1.02,-1.08,-0.00,-0.29,0.20,
3.716,-0.75,1.01,-1.11,-0.00,-0.29,0.20,
3.716,-0.75,1.01,-1.11,-0.01,-0.29,0.20,
3.719,-0.75,1.01,-1.11,-0.01,-0.30,0.20,
3.719,-0.77,1.01,-1.15,-0.01,-0.30,0.20,
3.72,-0.77,1.01,-1.15,-0.01,-0.31,0.20,
3.723,-0.77,1.01,-1.15,-0.02,-0.32,0.20,
3.723,-0.80,1.02,-1.19,-0.02,-0.32,0.20,
3.725,-0.80,1.02,-1.19,-0.03,-0.33,0.20,
3.736,-0.79,1.06,-1.21,-0.03,-0.33,0.20,
3.737,-0.79,1.06,-1.21,-0.04,-0.35,0.20,
3.737,-0.79,1.06,-1.21,-0.05,-0.36,0.19,
3.737,-0.76,1.07,-1.23,-0.05,-0.36,0.19,
3.738,-0.76,1.07,-1.23,-0.05,-0.37,0.19,
3.738,-0.76,1.07,-1.23,-0.06,-0.38,0.19,
3.738,-0.76,1.07,-1.23,-0.07,-0.39,0.19,
3.738,-0.74,1.11,-1.24,-0.07,-0.39,0.19,
3.74,-0.74,1.11,-1.24,-0.08,-0.40,0.18,
3.743,-0.74,1.11,-1.24,-0.08,-0.41,0.18,
3.743,-0.71,1.15,-1.21,-0.08,-0.41,0.18,
3.746,-0.71,1.15,-1.21,-0.09,-0.42,0.17,
3.748,-0.71,1.15,-1.21,-0.10,-0.43,0.17,
3.748,-0.65,1.19,-1.22,-0.10,-0.43,0.17,
3.75,-0.65,1.19,-1.22,-0.10,-0.45,0.16,
3.753,-0.65,1.19,-1.22,-0.11,-0.46,0.15,
3.753,-0.62,1.26,-1.23,-0.11,-0.46,0.15,
3.755,-0.62,1.26,-1.23,-0.11,-0.47,0.15,
3.757,-0.62,1.26,-1.23,-0.12,-0.48,0.14,
3.758,-0.56,1.30,-1.18,-0.12,-0.48,0.14,
3.76,-0.56,1.30,-1.18,-0.12,-0.49,0.14,
3.763,-0.51,1.37,-1.13,-0.12,-0.49,0.14,
3.763,-0.51,1.37,-1.13,-0.13,-0.50,0.13,
3.765,-0.51,1.37,-1.13,-0.13,-0.51,0.12,
3.767,-0.49,1.45,-1.13,-0.13,-0.51,0.12,
3.768,-0.49,1.45,-1.13,-0.13,-0.51,0.12,
3.77,-0.49,1.45,-1.13,-0.13,-0.52,0.11,
3.772,-0.49,1.45,-1.13,-0.13,-0.53,0.11,
3.772,-0.50,1.52,-1.14,-0.13,-0.53,0.11,
3.775,-0.50,1.52,-1.14,-0.14,-0.53,0.11,
3.778,-0.53,1.61,-1.18,-0.14,-0.53,0.11,
3.778,-0.53,1.61,-1.18,-0.14,-0.54,0.10,
3.793,-0.53,1.61,-1.18,-0.14,-0.54,0.10,
3.793,-0.56,1.66,-1.17,-0.14,-0.54,0.10,
3.793,-0.56,1.66,-1.17,-0.15,-0.55,0.10,
3.794,-0.56,1.66,-1.17,-0.15,-0.55,0.10,
3.794,-0.56,1.66,-1.17,-0.16,-0.56,0.10,
3.794,-0.63,1.67,-1.17,-0.16,-0.56,0.10,
3.794,-0.63,1.67,-1.17,-0.17,-0.57,0.10,
3.795,-0.63,1.67,-1.17,-0.17,-0.57,0.09,
3.795,-0.65,1.64,-1.19,-0.17,-0.57,0.09,
3.795,-0.65,1.64,-1.19,-0.17,-0.57,0.09,
3.798,-0.69,1.61,-1.22,-0.17,-0.57,0.09,
3.798,-0.69,1.61,-1.22,-0.18,-0.57,0.09,
3.8,-0.69,1.61,-1.22,-0.18,-0.57,0.09,
3.802,-0.69,1.61,-1.22,-0.19,-0.57,0.09,
3.802,-0.83,1.58,-1.20,-0.19,-0.57,0.09,
3.804,-0.83,1.58,-1.20,-0.19,-0.58,0.09,
3.807,-0.83,1.58,-1.20,-0.19,-0.58,0.10,
3.807,-0.89,1.52,-1.22,-0.19,-0.58,0.10,
3.809,-0.89,1.52,-1.22,-0.19,-0.58,0.09,
3.817,-0.89,1.52,-1.22,-0.20,-0.59,0.09,
3.818,-0.97,1.41,-1.28,-0.20,-0.59,0.09,
3.819,-0.97,1.41,-1.28,-0.20,-0.59,0.09,
3.819,-0.97,1.41,-1.28,-0.21,-0.59,0.09,
3.819,-1.07,1.29,-1.40,-0.21,-0.59,0.09,
3.82,-1.07,1.29,-1.40,-0.21,-0.59,0.09,
3.822,-1.17,1.16,-1.50,-0.21,-0.59,0.09,
3.827,-1.17,1.16,-1.50,-0.22,-0.59,0.08,
3.835,-1.17,1.16,-1.50,-0.23,-0.60,0.08,
3.836,-1.17,1.16,-1.50,-0.24,-0.59,0.07,
3.836,-1.28,1.04,-1.62,-0.24,-0.59,0.07,
3.836,-1.28,1.04,-1.62,-0.24,-0.59,0.07,
3.836,-1.38,0.97,-1.86,-0.24,-0.59,0.07,
3.836,-1.38,0.97,-1.86,-0.26,-0.58,0.06,
3.837,-1.38,0.97,-1.86,-0.27,-0.57,0.06,
3.837,-1.38,0.97,-1.86,-0.29,-0.56,0.05,
3.837,-1.51,0.91,-2.12,-0.29,-0.56,0.05,
3.839,-1.51,0.91,-2.12,-0.31,-0.55,0.05,
3.842,-1.51,0.91,-2.12,-0.33,-0.54,0.04,
3.842,-1.67,0.91,-2.30,-0.33,-0.54,0.04,
3.845,-1.67,0.91,-2.30,-0.35,-0.54,0.04,
3.847,-1.67,0.91,-2.30,-0.38,-0.54,0.04,
3.847,-1.78,0.92,-2.40,-0.38,-0.54,0.04,
3.849,-1.78,0.92,-2.40,-0.40,-0.55,0.03,
3.852,-1.78,0.92,-2.40,-0.42,-0.56,0.03,
3.852,-1.88,0.89,-2.45,-0.42,-0.56,0.03,
3.854,-1.88,0.89,-2.45,-0.43,-0.57,0.03,
3.857,-1.88,0.89,-2.45,-0.45,-0.57,0.03,
3.858,-1.95,0.88,-2.44,-0.45,-0.57,0.03,
3.859,-1.95,0.88,-2.44,-0.46,-0.57,0.03,
3.864,-1.95,0.88,-2.44,-0.47,-0.57,0.03,
3.864,-2.00,0.87,-2.43,-0.47,-0.57,0.03,
3.864,-2.00,0.87,-2.43,-0.48,-0.57,0.03,
3.868,-2.00,0.87,-2.43,-0.49,-0.57,0.03,
3.868,-2.07,0.92,-2.36,-0.49,-0.57,0.03,
3.87,-2.07,0.92,-2.36,-0.49,-0.57,0.03,
3.872,-2.07,0.92,-2.36,-0.49,-0.57,0.03,
3.872,-2.07,1.00,-2.20,-0.49,-0.57,0.03,
3.874,-2.07,1.00,-2.20,-0.49,-0.57,0.03,
3.876,-2.07,1.00,-2.20,-0.49,-0.58,0.03,
3.877,-2.10,1.06,-2.03,-0.49,-0.58,0.03,
3.879,-2.10,1.06,-2.03,-0.49,-0.59,0.04,
3.881,-2.10,1.06,-2.03,-0.48,-0.60,0.04,
3.882,-2.08,1.09,-1.90,-0.48,-0.60,0.04,
3.884,-2.08,1.09,-1.90,-0.47,-0.60,0.04,
3.886,-2.08,1.09,-1.90,-0.46,-0.60,0.05,
3.887,-2.06,1.17,-1.81,-0.46,-0.60,0.05,
3.889,-2.06,1.17,-1.81,-0.45,-0.60,0.05,
3.892,-2.10,1.21,-1.64,-0.45,-0.60,0.05,
3.892,-2.10,1.21,-1.64,-0.45,-0.59,0.06,
3.895,-2.10,1.21,-1.64,-0.43,-0.59,0.07,
3.897,-2.10,1.21,-1.64,-0.42,-0.58,0.07,
3.897,-2.05,1.23,-1.57,-0.42,-0.58,0.07,
3.899,-2.05,1.23,-1.57,-0.41,-0.58,0.07,
3.901,-2.05,1.23,-1.57,-0.40,-0.58,0.08,
3.902,-2.04,1.20,-1.49,-0.40,-0.58,0.08,
3.904,-2.04,1.20,-1.49,-0.39,-0.57,0.08,
3.906,-2.04,1.20,-1.49,-0.38,-0.56,0.09,
3.907,-1.97,1.20,-1.47,-0.38,-0.56,0.09,
3.908,-1.97,1.20,-1.47,-0.38,-0.55,0.09,
3.916,-1.95,1.21,-1.54,-0.38,-0.55,0.09,
3.917,-1.95,1.21,-1.54,-0.37,-0.54,0.09,
3.917,-1.95,1.21,-1.54,-0.37,-0.53,0.09,
3.918,-1.95,1.21,-1.54,-0.37,-0.51,0.09,
3.918,-1.90,1.17,-1.65,-0.37,-0.51,0.09,
3.925,-1.90,1.17,-1.65,-0.37,-0.49,0.09,
3.925,-1.90,1.17,-1.65,-0.38,-0.47,0.09,
3.926,-1.90,1.11,-1.76,-0.38,-0.47,0.09,
3.926,-1.90,1.11,-1.76,-0.38,-0.45,0.08,
3.927,-1.90,1.11,-1.76,-0.39,-0.42,0.08,
3.927,-2.00,1.08,-1.95,-0.39,-0.42,0.08,
3.937,-2.00,1.08,-1.95,-0.39,-0.40,0.08,
3.938,-2.13,0.93,-2.07,-0.39,-0.40,0.08,
3.938,-2.13,0.93,-2.07,-0.40,-0.38,0.07,
3.938,-2.13,0.93,-2.07,-0.40,-0.36,0.07,
3.938,-2.13,0.93,-2.07,-0.42,-0.34,0.07,
3.938,-2.32,0.73,-2.22,-0.42,-0.34,0.07,
3.938,-2.32,0.73,-2.22,-0.42,-0.32,0.08,
3.942,-2.32,0.73,-2.22,-0.43,-0.31,0.08,
3.942,-2.69,0.55,-2.33,-0.43,-0.31,0.08,
3.943,-2.69,0.55,-2.33,-0.43,-0.30,0.08,
3.958,-2.69,0.55,-2.33,-0.43,-0.30,0.09,
3.958,-2.97,0.36,-2.27,-0.43,-0.30,0.09,
3.958,-2.97,0.36,-2.27,-0.43,-0.29,0.10,
3.958,-2.97,0.36,-2.27,-0.43,-0.29,0.11,
3.959,-3.15,0.07,-2.17,-0.43,-0.29,0.11,
3.959,-3.15,0.07,-2.17,-0.42,-0.29,0.12,
3.959,-3.15,0.07,-2.17,-0.41,-0.29,0.13,
3.959,-3.36,-0.15,-2.08,-0.41,-0.29,0.13,
3.96,-3.36,-0.15,-2.08,-0.40,-0.29,0.14,
3.963,-3.58,-0.31,-2.01,-0.40,-0.29,0.14,
3.964,-3.58,-0.31,-2.01,-0.39,-0.28,0.15,
3.964,-3.58,-0.31,-2.01,-0.38,-0.28,0.17,
3.967,-3.58,-0.31,-2.01,-0.37,-0.27,0.18,
3.967,-3.72,-0.44,-2.00,-0.37,-0.27,0.18,
3.968,-3.72,-0.44,-2.00,-0.37,-0.27,0.19,
3.971,-3.72,-0.44,-2.00,-0.36,-0.27,0.21,
3.971,-3.75,-0.41,-2.11,-0.36,-0.27,0.21,
3.974,-3.75,-0.41,-2.11,-0.37,-0.27,0.23,
3.977,-3.75,-0.41,-2.11,-0.39,-0.27,0.24,
3.977,-3.74,-0.31,-2.31,-0.39,-0.27,0.24,
3.981,-3.74,-0.31,-2.31,-0.41,-0.27,0.26,
3.981,-3.74,-0.31,-2.31,-0.44,-0.26,0.29,
3.982,-3.67,-0.30,-2.44,-0.44,-0.26,0.29,
3.984,-3.67,-0.30,-2.44,-0.47,-0.23,0.31,
3.986,-3.67,-0.30,-2.44,-0.50,-0.20,0.33,
3.986,-3.44,-0.22,-2.50,-0.50,-0.20,0.33,
3.988,-3.44,-0.22,-2.50,-0.54,-0.17,0.35,
3.99,-3.44,-0.22,-2.50,-0.57,-0.12,0.37,
3.991,-3.10,-0.14,-2.54,-0.57,-0.12,0.37,
3.993,-3.10,-0.14,-2.54,-0.61,-0.07,0.39,
3.996,-3.10,-0.14,-2.54,-0.65,-0.01,0.41,
3.997,-2.77,-0.14,-2.60,-0.65,-0.01,0.41,
3.998,-2.77,-0.14,-2.60,-0.68,0.07,0.42,
4.0,-2.49,-0.18,-2.68,-0.68,0.07,0.42,
4.001,-2.49,-0.18,-2.68,-0.72,0.15,0.44,
4.003,-2.49,-0.18,-2.68,-0.76,0.23,0.46,
4.005,-2.49,-0.18,-2.68,-0.78,0.31,0.47,
4.006,-2.30,-0.05,-2.79,-0.78,0.31,0.47,
4.008,-2.30,-0.05,-2.79,-0.81,0.41,0.49,
4.014,-2.24,0.13,-2.90,-0.81,0.41,0.49,
4.014,-2.24,0.13,-2.90,-0.83,0.49,0.51,
4.015,-2.24,0.13,-2.90,-0.86,0.56,0.53,
4.016,-2.24,0.13,-2.90,-0.87,0.64,0.55,
4.016,-2.16,0.06,-3.22,-0.87,0.64,0.55,
4.018,-2.16,0.06,-3.22,-0.89,0.72,0.57,
4.02,-2.16,0.06,-3.22,-0.90,0.79,0.60,
4.021,-2.24,0.20,-3.39,-0.90,0.79,0.60,
4.023,-2.24,0.20,-3.39,-0.91,0.84,0.63,
4.025,-2.41,0.32,-3.61,-0.91,0.84,0.63,
4.025,-2.41,0.32,-3.61,-0.92,0.88,0.66,
4.028,-2.41,0.32,-3.61,-0.93,0.90,0.70,
4.03,-2.49,0.06,-3.65,-0.93,0.90,0.70,
4.03,-2.49,0.06,-3.65,-0.94,0.90,0.74,
4.032,-2.49,0.06,-3.65,-0.94,0.89,0.77,
4.036,-2.49,0.06,-3.65,-0.93,0.87,0.80,
4.036,-2.64,0.53,-3.52,-0.93,0.87,0.80,
4.038,-2.64,0.53,-3.52,-0.93,0.85,0.84,
4.041,-2.64,0.53,-3.52,-0.92,0.83,0.88,
4.041,-2.86,0.89,-3.52,-0.92,0.83,0.88,
4.043,-2.86,0.89,-3.52,-0.92,0.81,0.91,
4.045,-2.86,0.89,-3.52,-0.91,0.78,0.95,
4.046,-2.93,1.22,-3.23,-0.91,0.78,0.95,
4.049,-2.93,1.22,-3.23,-0.89,0.74,0.97,
4.05,-2.93,1.22,-3.23,-0.89,0.70,0.99,
4.05,-3.03,1.40,-2.88,-0.89,0.70,0.99,
4.052,-3.03,1.40,-2.88,-0.87,0.66,1.01,
4.055,-3.03,1.40,-2.88,-0.86,0.62,1.03,
4.055,-3.26,1.50,-2.51,-0.86,0.62,1.03,
4.057,-3.26,1.50,-2.51,-0.86,0.59,1.04,
4.06,-3.26,1.50,-2.51,-0.86,0.54,1.06,
4.06,-3.38,1.57,-2.05,-0.86,0.54,1.06,
4.063,-3.38,1.57,-2.05,-0.87,0.49,1.07,
4.065,-3.30,1.71,-1.63,-0.87,0.49,1.07,
4.065,-3.30,1.71,-1.63,-0.88,0.44,1.07,
4.067,-3.30,1.71,-1.63,-0.89,0.38,1.07,
4.07,-3.30,1.71,-1.63,-0.92,0.31,1.06,
4.07,-3.05,2.00,-1.14,-0.92,0.31,1.06,
4.072,-3.05,2.00,-1.14,-0.94,0.25,1.04,
4.075,-3.05,2.00,-1.14,-0.97,0.17,1.02,
4.075,-2.92,2.33,-0.68,-0.97,0.17,1.02,
4.078,-2.92,2.33,-0.68,-1.00,0.10,1.01,
4.08,-2.92,2.33,-0.68,-1.03,0.06,0.99,
4.082,-3.16,2.75,-0.12,-1.03,0.06,0.99,
4.083,-3.16,2.75,-0.12,-1.04,0.01,0.97,
4.086,-2.66,3.11,0.58,-1.04,0.01,0.97,
4.086,-2.66,3.11,0.58,-1.07,-0.04,0.94,
4.087,-2.66,3.11,0.58,-1.10,-0.08,0.89,
4.09,-2.66,3.11,0.58,-1.12,-0.12,0.85,
4.09,-2.34,3.67,1.01,-1.12,-0.12,0.85,
4.092,-2.34,3.67,1.01,-1.13,-0.16,0.81,
4.096,-2.34,3.67,1.01,-1.15,-0.21,0.76,
4.097,-1.98,4.27,1.80,-1.15,-0.21,0.76,
4.097,-1.98,4.27,1.80,-1.15,-0.28,0.72,
4.1,-1.98,4.27,1.80,-1.16,-0.35,0.67,
4.1,-1.75,5.16,2.37,-1.16,-0.35,0.67,
4.102,-1.75,5.16,2.37,-1.14,-0.42,0.62,
4.104,-1.75,5.16,2.37,-1.11,-0.51,0.57,
4.105,-1.31,6.08,3.04,-1.11,-0.51,0.57,
4.107,-1.31,6.08,3.04,-1.08,-0.62,0.53,
4.11,-1.31,6.08,3.04,-1.04,-0.74,0.48,
4.136,-0.84,6.92,3.71,-1.04,-0.74,0.48,
4.136,-0.84,6.92,3.71,-0.98,-0.88,0.43,
4.136,-0.84,6.92,3.71,-0.93,-1.01,0.37,
4.137,-0.11,7.68,4.09,-0.93,-1.01,0.37,
4.137,-0.11,7.68,4.09,-0.86,-1.13,0.32,
4.137,-0.11,7.68,4.09,-0.79,-1.23,0.27,
4.137,0.08,8.45,4.18,-0.79,-1.23,0.27,
4.138,0.08,8.45,4.18,-0.72,-1.33,0.23,
4.138,0.08,8.45,4.18,-0.64,-1.43,0.19,
4.138,0.29,9.01,4.45,-0.64,-1.43,0.19,
4.138,0.29,9.01,4.45,-0.56,-1.53,0.16,
4.139,0.29,9.01,4.45,-0.48,-1.62,0.12,
4.139,0.59,9.31,4.53,-0.48,-1.62,0.12,
4.139,0.59,9.31,4.53,-0.39,-1.69,0.09,
4.139,0.59,9.31,4.53,-0.30,-1.76,0.06,
4.14,0.91,9.52,4.93,-0.30,-1.76,0.06,
4.14,0.91,9.52,4.93,-0.19,-1.83,0.02,
4.14,0.91,9.52,4.93,-0.10,-1.88,-0.01,
4.14,1.24,9.52,4.98,-0.10,-1.88,-0.01,
4.147,1.24,9.52,4.98,0.01,-1.93,-0.06,
4.151,1.24,9.52,4.98,0.12,-1.98,-0.10,
4.151,1.81,9.35,5.45,0.12,-1.98,-0.10,
4.152,1.81,9.35,5.45,0.23,-2.02,-0.16,
4.152,2.48,9.02,6.22,0.23,-2.02,-0.16,
4.152,2.48,9.02,6.22,0.36,-2.06,-0.23,
4.153,2.48,9.02,6.22,0.50,-2.11,-0.31,
4.162,2.48,9.02,6.22,0.65,-2.15,-0.40,
4.163,3.15,8.38,6.99,0.65,-2.15,-0.40,
4.163,3.15,8.38,6.99,0.81,-2.18,-0.51,
4.163,4.41,7.46,8.04,0.81,-2.18,-0.51,
4.164,4.41,7.46,8.04,1.00,-2.19,-0.64,
4.164,4.41,7.46,8.04,1.21,-2.19,-0.79,
4.164,4.41,7.46,8.04,1.43,-2.17,-0.94,
4.164,4.06,6.20,9.07,1.43,-2.17,-0.94,
4.169,4.06,6.20,9.07,1.68,-2.09,-1.06,
4.169,2.48,4.27,9.59,1.68,-2.09,-1.06,
4.17,2.48,4.27,9.59,1.94,-1.94,-1.16,
4.172,2.48,4.27,9.59,2.22,-1.72,-1.26,
4.174,2.48,4.27,9.59,2.52,-1.45,-1.37,
4.174,2.79,1.49,10.33,2.52,-1.45,-1.37,
4.176,2.79,1.49,10.33,2.84,-1.15,-1.53,
4.179,4.26,-2.47,11.22,2.84,-1.15,-1.53,
4.18,4.26,-2.47,11.22,3.16,-0.83,-1.72,
4.182,4.26,-2.47,11.22,3.49,-0.53,-1.95,
4.184,4.26,-2.47,11.22,3.83,-0.30,-2.22,
4.184,6.73,-6.46,12.48,3.83,-0.30,-2.22,
4.186,6.73,-6.46,12.48,4.15,-0.14,-2.54,
4.189,6.73,-6.46,12.48,4.43,-0.04,-2.87,
4.189,8.46,-11.17,12.15,4.43,-0.04,-2.87,
4.192,8.46,-11.17,12.15,4.65,0.03,-3.23,
4.195,8.46,-11.17,12.15,4.75,0.05,-3.66,
4.196,11.99,-18.71,9.67,4.75,0.05,-3.66,
4.198,11.99,-18.71,9.67,4.70,0.04,-4.05,
4.2,11.99,-18.71,9.67,4.50,0.04,-4.38,
4.2,11.23,-25.36,6.31,4.50,0.04,-4.38,
4.203,11.23,-25.36,6.31,4.12,0.23,-4.57,
4.205,11.23,-25.36,6.31,3.55,0.62,-4.69,
4.205,13.49,-28.65,5.20,3.55,0.62,-4.69,
4.207,13.49,-28.65,5.20,2.86,1.10,-4.79,
4.209,13.49,-28.65,5.20,2.07,1.60,-4.82,
4.209,18.11,-29.93,6.04,2.07,1.60,-4.82,
4.214,18.11,-29.93,6.04,1.28,2.12,-4.65,
4.215,18.11,-29.93,6.04,0.57,2.63,-4.35,
4.215,18.92,-26.65,9.13,0.57,2.63,-4.35,
4.219,18.92,-26.65,9.13,-0.03,3.08,-3.99,
4.219,18.92,-26.65,9.13,-0.61,3.27,-3.50,
4.222,18.92,-26.65,9.13,-1.09,3.21,-2.84,
4.222,20.79,-24.90,8.23,-1.09,3.21,-2.84,
4.224,21.45,-22.00,7.10,-1.09,3.21,-2.84,
4.224,21.45,-22.00,7.10,-1.49,2.92,-2.12,
4.227,21.45,-22.00,7.10,-1.78,2.55,-1.43,
4.246,17.09,-15.88,2.27,-1.78,2.55,-1.43,
4.247,17.09,-15.88,2.27,-1.94,2.31,-0.89,
4.247,17.09,-15.88,2.27,-2.02,2.23,-0.55,
4.247,11.42,-13.53,-4.54,-2.02,2.23,-0.55,
4.247,11.42,-13.53,-4.54,-2.06,2.18,-0.35,
4.247,11.42,-13.53,-4.54,-2.14,2.04,-0.15,
4.248,11.42,-13.53,-4.54,-2.24,1.86,0.08,
4.248,3.37,-10.70,-12.19,-2.24,1.86,0.08,
4.248,3.37,-10.70,-12.19,-2.36,1.71,0.32,
4.248,-0.13,-7.26,-16.34,-2.36,1.71,0.32,
4.248,-0.13,-7.26,-16.34,-2.46,1.64,0.52,
4.248,-0.13,-7.26,-16.34,-2.51,1.60,0.66,
4.254,-1.06,-4.68,-15.37,-2.51,1.60,0.66,
4.254,-1.57,-3.53,-12.34,-2.51,1.60,0.66,
4.254,-1.57,-3.53,-12.34,-2.46,1.57,0.76,
4.255,-1.57,-3.53,-12.34,-2.32,1.50,0.80,
4.255,-1.57,-3.53,-12.34,-2.08,1.39,0.81,
4.256,-1.57,-3.53,-12.34,-1.78,1.26,0.78,
4.258,-1.82,-3.28,-8.75,-1.78,1.26,0.78,
4.258,-1.82,-3.28,-8.75,-1.43,1.12,0.74,
4.26,-1.82,-3.28,-8.75,-1.08,1.01,0.68,
4.263,-1.82,-3.28,-8.75,-0.75,0.91,0.59,
4.264,-1.41,-3.22,-5.58,-0.75,0.91,0.59,
4.266,-1.41,-3.22,-5.58,-0.45,0.84,0.50,
4.268,-0.74,-2.86,-3.27,-0.45,0.84,0.50,
4.268,-0.74,-2.86,-3.27,-0.17,0.74,0.39,
4.27,-0.74,-2.86,-3.27,0.07,0.63,0.26,
4.273,-0.74,-2.86,-3.27,0.27,0.50,0.16,
4.273,-0.91,-2.36,-2.20,0.27,0.50,0.16,
4.288,-0.91,-2.36,-2.20,0.43,0.37,0.08,
4.288,-0.91,-2.36,-2.20,0.58,0.23,0.02,
4.288,-1.81,-1.81,-1.47,0.58,0.23,0.02,
4.288,-1.81,-1.81,-1.47,0.70,0.08,-0.02,
4.289,-2.41,-1.39,-1.00,0.70,0.08,-0.02,
4.289,-2.41,-1.39,-1.00,0.81,-0.06,-0.05,
4.289,-2.41,-1.39,-1.00,0.89,-0.18,-0.06,
4.289,-2.41,-1.39,-1.00,0.95,-0.30,-0.07,
4.29,-2.87,-1.21,-0.87,0.95,-0.30,-0.07,
4.291,-2.87,-1.21,-0.87,0.99,-0.41,-0.07,
4.293,-2.87,-1.21,-0.87,1.01,-0.51,-0.06,
4.294,-2.96,-1.13,-0.81,1.01,-0.51,-0.06,
4.296,-2.96,-1.13,-0.81,1.02,-0.59,-0.06,
4.298,-2.96,-1.13,-0.81,1.03,-0.66,-0.06,
4.298,-2.69,-1.21,-0.42,1.03,-0.66,-0.06,
4.3,-2.69,-1.21,-0.42,1.03,-0.70,-0.07,
4.303,-2.15,-1.28,-0.15,1.03,-0.70,-0.07,
4.303,-2.15,-1.28,-0.15,1.03,-0.72,-0.07,
4.305,-2.15,-1.28,-0.15,1.01,-0.73,-0.08,
4.308,-1.60,-1.25,-0.10,1.01,-0.73,-0.08,
4.308,-1.60,-1.25,-0.10,0.99,-0.73,-0.09,
4.31,-1.60,-1.25,-0.10,0.96,-0.72,-0.09,
4.32,-1.60,-1.25,-0.10,0.93,-0.69,-0.09,
4.321,-1.28,-1.18,-0.22,0.93,-0.69,-0.09,
4.322,-1.28,-1.18,-0.22,0.90,-0.65,-0.09,
4.323,-1.28,-1.18,-0.22,0.85,-0.59,-0.08,
4.323,-0.87,-1.18,-0.51,0.85,-0.59,-0.08,
4.323,-0.87,-1.18,-0.51,0.80,-0.53,-0.08,
4.324,-0.87,-1.18,-0.51,0.74,-0.47,-0.09,
4.324,-0.45,-0.86,-1.08,0.74,-0.47,-0.09,
4.325,-0.45,-0.86,-1.08,0.66,-0.42,-0.09,
4.331,-0.20,-0.24,-1.64,0.66,-0.42,-0.09,
4.331,-0.20,-0.24,-1.64,0.57,-0.37,-0.09,
4.342,-0.20,-0.24,-1.64,0.48,-0.34,-0.08,
4.343,-0.07,0.40,-1.80,0.48,-0.34,-0.08,
4.343,-0.07,0.40,-1.80,0.38,-0.31,-0.06,
4.344,-0.07,0.40,-1.80,0.28,-0.27,-0.04,
4.344,0.05,0.93,-1.39,0.28,-0.27,-0.04,
4.345,0.05,0.93,-1.39,0.21,-0.24,-0.02,
4.347,0.05,0.93,-1.39,0.15,-0.20,-0.01,
4.348,0.05,0.93,-1.39,0.11,-0.16,0.02,
4.348,0.24,1.41,-0.62,0.11,-0.16,0.02,
4.349,0.24,1.41,-0.62,0.09,-0.11,0.04,
4.349,0.36,1.86,0.13,0.09,-0.11,0.04,
4.349,0.36,1.86,0.13,0.08,-0.05,0.05,
4.351,0.36,1.86,0.13,0.08,0.02,0.07,
4.353,0.36,1.86,0.13,0.09,0.09,0.09,
4.353,0.37,2.30,0.48,0.09,0.09,0.09,
4.355,0.37,2.30,0.48,0.10,0.16,0.10,
4.357,0.37,2.30,0.48,0.11,0.23,0.12,
4.358,0.30,2.74,0.49,0.11,0.23,0.12,
4.36,0.30,2.74,0.49,0.12,0.29,0.14,
4.364,0.19,3.11,0.26,0.12,0.29,0.14,
4.364,0.19,3.11,0.26,0.13,0.33,0.16,
4.365,0.19,3.11,0.26,0.12,0.36,0.17,
4.367,0.19,3.11,0.26,0.11,0.39,0.19,
4.368,-0.00,3.34,-0.14,0.11,0.39,0.19,
4.37,-0.00,3.34,-0.14,0.10,0.41,0.20,
4.372,-0.00,3.34,-0.14,0.07,0.43,0.22,
4.372,-0.25,3.34,-0.61,0.07,0.43,0.22,
4.374,-0.25,3.34,-0.61,0.05,0.44,0.24,
4.377,-0.25,3.34,-0.61,0.02,0.46,0.25,
4.377,-0.45,3.29,-1.11,0.02,0.46,0.25,
4.38,-0.45,3.29,-1.11,-0.02,0.47,0.28,
4.382,-0.45,3.29,-1.11,-0.05,0.48,0.30,
4.382,-0.58,3.23,-1.51,-0.05,0.48,0.30,
4.384,-0.58,3.23,-1.51,-0.09,0.50,0.32,
4.387,-0.58,3.23,-1.51,-0.13,0.53,0.34,
4.387,-0.46,3.24,-2.02,-0.13,0.53,0.34,
4.389,-0.46,3.24,-2.02,-0.17,0.56,0.36,
4.392,-0.46,3.24,-2.02,-0.22,0.60,0.38,
4.392,-0.49,3.16,-2.34,-0.22,0.60,0.38,
4.394,-0.49,3.16,-2.34,-0.26,0.64,0.40,
4.398,-0.39,3.11,-2.57,-0.26,0.64,0.40,
4.398,-0.39,3.11,-2.57,-0.30,0.68,0.41,
4.4,-0.39,3.11,-2.57,-0.33,0.74,0.43,
4.402,-0.37,3.01,-2.73,-0.33,0.74,0.43,
4.402,-0.37,3.01,-2.73,-0.37,0.79,0.45,
4.404,-0.37,3.01,-2.73,-0.40,0.85,0.47,
4.407,-0.34,2.93,-2.93,-0.40,0.85,0.47,
4.407,-0.34,2.93,-2.93,-0.44,0.90,0.48,
4.409,-0.34,2.93,-2.93,-0.47,0.96,0.49,
4.419,-0.46,2.84,-3.21,-0.47,0.96,0.49,
4.419,-0.46,2.84,-3.21,-0.51,1.01,0.51,
4.42,-0.46,2.84,-3.21,-0.54,1.07,0.52,
4.42,-0.46,2.84,-3.21,-0.57,1.12,0.53,
4.42,-0.57,2.70,-3.52,-0.57,1.12,0.53,
4.421,-0.57,2.70,-3.52,-0.61,1.16,0.54,
4.422,-0.58,2.49,-3.77,-0.61,1.16,0.54,
4.423,-0.58,2.49,-3.77,-0.64,1.19,0.55,
4.424,-0.58,2.49,-3.77,-0.68,1.22,0.55,
4.427,-0.58,2.49,-3.77,-0.71,1.24,0.55,
4.427,-0.59,2.30,-3.92,-0.71,1.24,0.55,
4.439,-0.59,2.30,-3.92,-0.74,1.26,0.55,
4.44,-0.59,2.30,-3.92,-0.76,1.27,0.56,
4.44,-0.60,2.12,-4.02,-0.76,1.27,0.56,
4.44,-0.60,2.12,-4.02,-0.79,1.27,0.56,
4.44,-0.60,2.12,-4.02,-0.80,1.27,0.55,
4.44,-0.67,2.04,-4.09,-0.80,1.27,0.55,
4.441,-0.67,2.04,-4.09,-0.82,1.26,0.55,
4.458,-0.67,2.04,-4.09,-0.83,1.24,0.55,
4.458,-0.67,2.01,-4.14,-0.83,1.24,0.55,
4.459,-0.67,2.01,-4.14,-0.83,1.21,0.53,
4.459,-0.67,2.01,-4.14,-0.82,1.17,0.52,
4.459,-0.77,2.10,-4.12,-0.82,1.17,0.52,
4.46,-0.77,2.10,-4.12,-0.81,1.13,0.50,
4.46,-1.02,2.21,-4.11,-0.81,1.13,0.50,
4.46,-1.02,2.21,-4.11,-0.79,1.09,0.49,
4.461,-1.02,2.21,-4.11,-0.77,1.04,0.48,
4.461,-1.02,2.21,-4.11,-0.74,0.99,0.48,
4.462,-1.15,2.32,-4.02,-0.74,0.99,0.48,
4.462,-1.15,2.32,-4.02,-0.71,0.95,0.47,
4.462,-1.21,2.47,-3.93,-0.71,0.95,0.47,
4.463,-1.21,2.47,-3.93,-0.68,0.90,0.47,
4.464,-1.21,2.47,-3.93,-0.64,0.86,0.47,
4.467,-1.31,2.60,-3.81,-0.64,0.86,0.47,
4.467,-1.31,2.60,-3.81,-0.61,0.83,0.47,
4.469,-1.31,2.60,-3.81,-0.58,0.80,0.47,
4.472,-1.31,2.60,-3.81,-0.55,0.78,0.47,
4.473,-1.15,2.64,-3.66,-0.55,0.78,0.47,
4.475,-1.15,2.64,-3.66,-0.52,0.77,0.47,
4.477,-1.15,2.64,-3.66,-0.49,0.77,0.47,
4.477,-1.01,2.59,-3.45,-0.49,0.77,0.47,
4.48,-1.01,2.59,-3.45,-0.47,0.77,0.47,
4.482,-1.01,2.59,-3.45,-0.45,0.79,0.47,
4.483,-0.77,2.48,-3.27,-0.45,0.79,0.47,
4.484,-0.77,2.48,-3.27,-0.44,0.81,0.46,
4.487,-0.77,2.48,-3.27,-0.43,0.83,0.46,
4.487,-0.62,2.39,-3.11,-0.43,0.83,0.46,
4.489,-0.62,2.39,-3.11,-0.43,0.85,0.46,
4.492,-0.64,2.41,-2.90,-0.43,0.85,0.46,
4.492,-0.64,2.41,-2.90,-0.43,0.88,0.46,
4.493,-0.64,2.41,-2.90,-0.43,0.90,0.46,
4.497,-0.64,2.41,-2.90,-0.44,0.92,0.46,
4.497,-0.73,2.50,-2.76,-0.44,0.92,0.46,
4.499,-0.73,2.50,-2.76,-0.45,0.94,0.45,
4.501,-0.67,2.43,-2.64,-0.45,0.94,0.45,
4.501,-0.67,2.43,-2.64,-0.46,0.96,0.45,
4.503,-0.67,2.43,-2.64,-0.47,0.98,0.44,
4.506,-0.67,2.43,-2.64,-0.47,0.99,0.44,
4.506,-0.71,2.48,-2.58,-0.47,0.99,0.44,
4.508,-0.71,2.48,-2.58,-0.48,1.00,0.43,
4.511,-0.71,2.48,-2.58,-0.49,1.01,0.42,
4.515,-0.77,2.59,-2.57,-0.49,1.01,0.42,
4.516,-0.77,2.59,-2.57,-0.50,1.01,0.42,
4.517,-0.78,2.76,-2.72,-0.50,1.01,0.42,
4.517,-0.78,2.76,-2.72,-0.51,1.03,0.42,
4.519,-0.78,2.76,-2.72,-0.53,1.04,0.41,
4.522,-0.74,2.94,-2.85,-0.53,1.04,0.41,
4.522,-0.74,2.94,-2.85,-0.54,1.05,0.41,
4.524,-0.74,2.94,-2.85,-0.56,1.05,0.40,
4.526,-0.69,3.20,-2.98,-0.56,1.05,0.40,
4.527,-0.69,3.20,-2.98,-0.58,1.05,0.40,
4.534,-0.69,3.20,-2.98,-0.60,1.05,0.40,
4.534,-0.60,3.37,-3.15,-0.60,1.05,0.40,
4.535,-0.60,3.37,-3.15,-0.62,1.04,0.39,
4.535,-0.60,3.37,-3.15,-0.64,1.03,0.39,
4.54,-0.43,3.51,-3.33,-0.64,1.03,0.39,
4.54,-0.43,3.51,-3.33,-0.67,1.01,0.39,
4.54,-0.43,3.51,-3.33,-0.70,0.98,0.38,
4.541,-0.43,3.51,-3.33,-0.73,0.96,0.39,
4.541,-0.36,3.74,-3.66,-0.73,0.96,0.39,
4.543,-0.36,3.74,-3.66,-0.77,0.91,0.39,
4.546,-0.19,3.89,-3.85,-0.77,0.91,0.39,
4.546,-0.19,3.89,-3.85,-0.81,0.87,0.39,
4.55,-0.19,3.89,-3.85,-0.85,0.83,0.39,
4.551,-0.19,3.89,-3.85,-0.89,0.81,0.39,
4.551,0.12,3.87,-3.68,-0.89,0.81,0.39,
4.553,0.12,3.87,-3.68,-0.92,0.81,0.40,
4.556,0.12,3.87,-3.68,-0.94,0.80,0.40,
4.556,0.59,3.78,-3.40,-0.94,0.80,0.40,
4.558,0.59,3.78,-3.40,-0.95,0.79,0.40,
4.56,0.59,3.78,-3.40,-0.97,0.78,0.39,
4.561,0.94,3.74,-3.17,-0.97,0.78,0.39,
4.563,0.94,3.74,-3.17,-0.97,0.77,0.39,
4.566,1.17,3.78,-2.97,-0.97,0.77,0.39,
4.566,1.17,3.78,-2.97,-0.98,0.77,0.39,
4.569,1.17,3.78,-2.97,-0.98,0.74,0.38,
4.571,1.45,3.89,-2.84,-0.98,0.74,0.38,
4.571,1.45,3.89,-2.84,-0.98,0.70,0.37,
4.573,1.45,3.89,-2.84,-0.98,0.66,0.37,
4.576,1.65,3.91,-2.70,-0.98,0.66,0.37,
4.576,1.65,3.91,-2.70,-0.99,0.60,0.37,
4.579,1.65,3.91,-2.70,-0.99,0.54,0.36,
4.581,1.65,3.91,-2.70,-0.99,0.48,0.36,
4.583,1.96,3.94,-2.34,-0.99,0.48,0.36,
4.584,1.96,3.94,-2.34,-0.98,0.42,0.36,
4.586,1.96,3.94,-2.34,-0.95,0.37,0.35,
4.586,2.23,4.01,-1.82,-0.95,0.37,0.35,
4.588,2.23,4.01,-1.82,-0.94,0.33,0.34,
4.591,2.48,4.10,-1.20,-0.94,0.33,0.34,
4.592,2.48,4.10,-1.20,-0.91,0.29,0.34,
4.593,2.48,4.10,-1.20,-0.86,0.25,0.33,
4.598,2.79,4.17,-0.47,-0.86,0.25,0.33,
4.599,2.79,4.17,-0.47,-0.83,0.21,0.32,
4.6,2.79,4.17,-0.47,-0.78,0.17,0.31,
4.602,2.79,4.17,-0.47,-0.72,0.13,0.30,
4.602,2.97,4.40,0.26,-0.72,0.13,0.30,
4.603,2.97,4.40,0.26,-0.67,0.09,0.30,
4.606,2.97,4.40,0.26,-0.61,0.05,0.29,
4.623,3.04,4.63,0.91,-0.61,0.05,0.29,
4.623,3.04,4.63,0.91,-0.56,0.01,0.29,
4.624,2.97,4.92,1.38,-0.56,0.01,0.29,
4.624,2.97,4.92,1.38,-0.51,-0.04,0.28,
4.624,2.97,4.92,1.38,-0.45,-0.07,0.28,
4.624,2.97,4.92,1.38,-0.40,-0.10,0.28,
4.624,2.97,4.92,1.38,-0.35,-0.14,0.28,
4.625,2.79,5.32,1.79,-0.35,-0.14,0.28,
4.625,2.55,5.78,2.16,-0.35,-0.14,0.28,
4.625,2.55,5.78,2.16,-0.30,-0.18,0.28,
4.625,2.55,5.78,2.16,-0.25,-0.21,0.27,
4.632,2.55,5.78,2.16,-0.19,-0.25,0.26,
4.639,2.26,6.17,2.46,-0.19,-0.25,0.26,
4.639,2.26,6.17,2.46,-0.14,-0.29,0.25,
4.639,2.26,6.17,2.46,-0.09,-0.32,0.23,
4.64,1.96,6.54,2.63,-0.09,-0.32,0.23,
4.64,1.96,6.54,2.63,-0.03,-0.34,0.22,
4.64,1.69,7.00,2.87,-0.03,-0.34,0.22,
4.64,1.69,7.00,2.87,0.02,-0.36,0.21,
4.644,1.69,7.00,2.87,0.08,-0.38,0.19,
4.644,1.69,7.00,2.87,0.14,-0.41,0.18,
4.644,1.38,7.44,2.97,0.14,-0.41,0.18,
4.644,1.38,7.44,2.97,0.20,-0.45,0.16,
4.645,1.38,7.44,2.97,0.26,-0.48,0.16,
4.645,1.12,7.80,3.09,0.26,-0.48,0.16,
4.655,1.12,7.80,3.09,0.32,-0.51,0.15,
4.655,1.12,7.80,3.09,0.38,-0.54,0.14,
4.655,1.12,7.80,3.09,0.44,-0.57,0.13,
4.656,0.91,8.17,3.13,0.44,-0.57,0.13,
4.656,0.91,8.17,3.13,0.49,-0.60,0.13,
4.656,0.69,8.51,3.08,0.49,-0.60,0.13,
4.658,0.69,8.51,3.08,0.56,-0.63,0.13,
4.661,0.45,8.88,3.16,0.56,-0.63,0.13,
4.661,0.45,8.88,3.16,0.61,-0.66,0.13,
4.663,0.45,8.88,3.16,0.67,-0.70,0.13,
4.667,0.16,9.19,3.47,0.67,-0.70,0.13,
4.667,0.16,9.19,3.47,0.73,-0.74,0.14,
4.668,0.16,9.19,3.47,0.80,-0.81,0.14,
4.67,0.16,9.19,3.47,0.86,-0.88,0.15,
4.67,0.10,9.45,4.00,0.86,-0.88,0.15,
4.672,0.10,9.45,4.00,0.94,-0.97,0.15,
4.675,0.10,9.45,4.00,1.02,-1.06,0.15,
4.675,0.05,9.58,4.44,1.02,-1.06,0.15,
4.677,0.05,9.58,4.44,1.10,-1.15,0.16,
4.68,0.05,9.58,4.44,1.18,-1.24,0.15,
4.682,0.09,9.59,4.61,1.18,-1.24,0.15,
4.682,0.09,9.59,4.61,1.27,-1.32,0.15,
4.685,0.08,9.44,4.73,1.27,-1.32,0.15,
4.685,0.08,9.44,4.73,1.35,-1.39,0.15,
4.687,0.08,9.44,4.73,1.44,-1.45,0.14,
4.689,0.08,9.44,4.73,1.52,-1.51,0.13,
4.69,0.03,9.07,5.04,1.52,-1.51,0.13,
4.692,0.03,9.07,5.04,1.61,-1.56,0.12,
4.694,0.03,9.07,5.04,1.70,-1.63,0.09,
4.695,0.31,8.54,5.56,1.70,-1.63,0.09,
4.697,0.31,8.54,5.56,1.80,-1.71,0.06,
4.699,0.31,8.54,5.56,1.90,-1.82,0.01,
4.699,0.93,7.63,6.83,1.90,-1.82,0.01,
4.702,0.93,7.63,6.83,2.00,-1.97,-0.05,
4.704,0.93,7.63,6.83,2.08,-2.18,-0.11,
4.705,1.87,5.74,8.48,2.08,-2.18,-0.11,
4.706,1.87,5.74,8.48,2.16,-2.46,-0.17,
4.709,1.87,5.74,8.48,2.24,-2.85,-0.23,
4.71,3.64,2.65,12.24,2.24,-2.85,-0.23,
4.712,3.64,2.65,12.24,2.33,-3.37,-0.30,
4.715,7.23,-3.01,18.63,2.33,-3.37,-0.30,
4.716,7.23,-3.01,18.63,2.45,-3.99,-0.42,
4.718,7.23,-3.01,18.63,2.58,-4.66,-0.59,
4.719,7.23,-3.01,18.63,2.68,-5.31,-0.82,
4.72,10.61,-11.54,23.56,2.68,-5.31,-0.82,
4.725,11.86,-20.16,22.22,2.68,-5.31,-0.82,
4.728,11.86,-20.16,22.22,2.76,-5.73,-1.08,
4.728,11.86,-20.16,22.22,2.77,-5.73,-1.37,
4.728,11.86,-20.16,22.22,2.67,-5.22,-1.66,
4.731,11.86,-20.16,22.22,2.46,-4.21,-1.93,
4.731,11.26,-29.13,15.06,2.46,-4.21,-1.93,
4.733,11.26,-29.13,15.06,2.15,-3.02,-2.15,
4.734,9.80,-29.91,10.84,2.15,-3.02,-2.15,
4.735,9.80,-29.91,10.84,1.76,-1.90,-2.32,
4.737,9.80,-29.91,10.84,1.27,-0.84,-2.41,
4.739,9.80,-29.91,10.84,0.66,0.07,-2.38,
4.739,7.80,-29.90,6.74,0.66,0.07,-2.38,
4.741,7.80,-29.90,6.74,-0.06,0.83,-2.27,
4.744,7.80,-29.90,6.74,-0.82,1.51,-2.02,
4.744,5.17,-29.87,4.10,-0.82,1.51,-2.02,
4.746,5.17,-29.87,4.10,-1.49,1.99,-1.71,
4.749,5.17,-29.87,4.10,-1.99,2.37,-1.39,
4.75,1.88,-29.83,4.22,-1.99,2.37,-1.39,
4.751,1.88,-29.83,4.22,-2.29,2.79,-1.16,
4.754,-0.95,-24.24,2.22,-2.29,2.79,-1.16,
4.754,-0.95,-24.24,2.22,-2.48,3.23,-0.99,
4.756,-0.95,-24.24,2.22,-2.59,3.66,-0.81,
4.759,-4.52,-18.81,0.10,-2.59,3.66,-0.81,
4.759,-4.52,-18.81,0.10,-2.67,4.02,-0.63,
4.761,-4.52,-18.81,0.10,-2.71,4.28,-0.42,
4.764,-6.93,-14.65,-1.02,-2.71,4.28,-0.42,
4.764,-6.93,-14.65,-1.02,-2.74,4.39,-0.21,
4.766,-6.93,-14.65,-1.02,-2.77,4.37,0.02,
4.769,-8.73,-11.32,-0.75,-2.77,4.37,0.02,
4.769,-8.73,-11.32,-0.75,-2.79,4.24,0.27,
4.794,-8.73,-11.32,-0.75,-2.78,3.98,0.51,
4.795,-9.22,-8.72,0.56,-2.78,3.98,0.51,
4.795,-9.22,-8.72,0.56,-2.72,3.62,0.76,
4.796,-9.22,-8.72,0.56,-2.62,3.21,0.98,
4.796,-9.22,-8.72,0.56,-2.48,2.74,1.15,
4.797,-7.56,-6.74,1.59,-2.48,2.74,1.15,
4.797,-7.56,-6.74,1.59,-2.30,2.24,1.25,
4.797,-7.56,-6.74,1.59,-2.09,1.74,1.31,
4.798,-5.56,-5.67,2.51,-2.09,1.74,1.31,
4.798,-5.56,-5.67,2.51,-1.86,1.24,1.34,
4.799,-3.87,-4.75,2.30,-1.86,1.24,1.34,
4.799,-3.87,-4.75,2.30,-1.62,0.76,1.32,
4.799,-3.87,-4.75,2.30,-1.40,0.32,1.27,
4.8,-2.86,-3.84,-0.06,-1.40,0.32,1.27,
4.8,-2.86,-3.84,-0.06,-1.19,-0.03,1.19,
4.8,-2.86,-3.84,-0.06,-0.96,-0.31,1.09,
4.801,-2.86,-3.84,-0.06,-0.74,-0.55,0.96,
4.801,-1.73,-2.76,-1.99,-0.74,-0.55,0.96,
4.801,-1.73,-2.76,-1.99,-0.51,-0.76,0.80,
4.804,-1.73,-2.76,-1.99,-0.30,-0.89,0.65,
4.804,-1.37,-1.73,-3.00,-0.30,-0.89,0.65,
4.806,-1.37,-1.73,-3.00,-0.09,-0.97,0.49,
4.809,-0.31,-1.65,-3.45,-0.09,-0.97,0.49,
4.81,-0.31,-1.65,-3.45,0.11,-1.02,0.31,
4.812,-0.31,-1.65,-3.45,0.30,-1.04,0.13,
4.817,0.06,-1.67,-3.15,0.30,-1.04,0.13,
4.817,0.06,-1.67,-3.15,0.48,-1.03,-0.03,
4.818,0.06,-1.67,-3.15,0.64,-0.99,-0.16,
4.821,0.06,-1.67,-3.15,0.78,-0.90,-0.27,
4.821,0.06,-1.68,-2.94,0.78,-0.90,-0.27,
4.822,0.06,-1.68,-2.94,0.90,-0.81,-0.35,
4.823,0.06,-1.68,-2.94,0.99,-0.70,-0.42,
4.824,0.09,-1.23,-3.11,0.99,-0.70,-0.42,
4.826,0.09,-1.23,-3.11,1.05,-0.59,-0.48,
4.829,0.09,-1.23,-3.11,1.09,-0.49,-0.53,
4.829,0.21,-0.76,-2.99,1.09,-0.49,-0.53,
4.834,0.21,-0.76,-2.99,1.12,-0.43,-0.58,
4.834,0.21,-0.76,-2.99,1.13,-0.41,-0.62,
4.834,0.31,-0.34,-2.53,1.13,-0.41,-0.62,
4.836,0.31,-0.34,-2.53,1.13,-0.41,-0.64,
4.838,0.33,0.14,-2.15,1.13,-0.41,-0.64,
4.839,0.33,0.14,-2.15,1.13,-0.43,-0.66,
4.84,0.33,0.14,-2.15,1.12,-0.47,-0.68,
4.844,0.33,0.14,-2.15,1.11,-0.55,-0.69,
4.844,0.19,0.45,-1.50,1.11,-0.55,-0.69,
4.846,0.19,0.45,-1.50,1.11,-0.64,-0.68,
4.849,-0.22,0.63,-0.88,1.11,-0.64,-0.68,
4.85,-0.22,0.63,-0.88,1.11,-0.74,-0.67,
4.851,-0.22,0.63,-0.88,1.11,-0.84,-0.64,
4.854,-0.22,0.63,-0.88,1.12,-0.94,-0.61,
4.854,-0.64,0.75,-0.40,1.12,-0.94,-0.61,
4.856,-0.64,0.75,-0.40,1.13,-1.03,-0.57,
4.859,-0.64,0.75,-0.40,1.13,-1.12,-0.52,
4.859,-1.02,0.85,-0.16,1.13,-1.12,-0.52,
4.86,-1.02,0.85,-0.16,1.13,-1.17,-0.48,
4.864,-1.02,0.85,-0.16,1.12,-1.21,-0.42,
4.864,-1.42,1.00,-0.28,1.12,-1.21,-0.42,
4.866,-1.42,1.00,-0.28,1.11,-1.23,-0.37,
4.868,-1.42,1.00,-0.28,1.08,-1.23,-0.32,
4.868,-1.69,1.16,-0.52,1.08,-1.23,-0.32,
4.87,-1.69,1.16,-0.52,1.06,-1.22,-0.27,
4.873,-1.74,1.22,-0.47,1.06,-1.22,-0.27,
4.873,-1.74,1.22,-0.47,1.03,-1.17,-0.22,
4.875,-1.74,1.22,-0.47,1.02,-1.09,-0.19,
4.878,-1.74,1.22,-0.47,1.01,-0.98,-0.15,
4.878,-1.78,1.17,-0.14,1.01,-0.98,-0.15,
4.881,-1.78,1.17,-0.14,1.00,-0.88,-0.12,
4.883,-1.80,1.19,0.11,1.00,-0.88,-0.12,
4.884,-1.80,1.19,0.11,1.00,-0.79,-0.10,
4.885,-1.80,1.19,0.11,0.99,-0.71,-0.08,
4.888,-1.98,1.27,0.13,0.99,-0.71,-0.08,
4.889,-1.98,1.27,0.13,0.99,-0.63,-0.07,
4.89,-1.98,1.27,0.13,0.98,-0.57,-0.06,
4.893,-1.98,1.27,0.13,0.96,-0.52,-0.05,
4.893,-2.22,1.48,0.01,0.96,-0.52,-0.05,
4.895,-2.22,1.48,0.01,0.93,-0.48,-0.04,
4.899,-2.36,1.73,-0.38,0.93,-0.48,-0.04,
4.899,-2.36,1.73,-0.38,0.89,-0.43,-0.04,
4.901,-2.36,1.73,-0.38,0.85,-0.39,-0.04,
4.903,-2.42,2.02,-0.80,0.85,-0.39,-0.04,
4.903,-2.42,2.02,-0.80,0.80,-0.35,-0.04,
4.905,-2.42,2.02,-0.80,0.74,-0.30,-0.05,
4.908,-2.40,2.35,-1.21,0.74,-0.30,-0.05,
4.908,-2.40,2.35,-1.21,0.67,-0.26,-0.06,
4.91,-2.40,2.35,-1.21,0.60,-0.21,-0.07,
4.914,-2.40,2.35,-1.21,0.52,-0.17,-0.09,
4.914,-2.16,2.54,-1.58,0.52,-0.17,-0.09,
4.916,-2.16,2.54,-1.58,0.44,-0.14,-0.11,
4.918,-2.16,2.54,-1.58,0.36,-0.10,-0.14,
4.918,-2.15,2.82,-2.07,0.36,-0.10,-0.14,
4.92,-2.15,2.82,-2.07,0.27,-0.04,-0.16,
4.923,-2.15,2.82,-2.07,0.17,0.03,-0.18,
4.923,-2.16,3.04,-2.59,0.17,0.03,-0.18,
4.925,-2.16,3.04,-2.59,0.08,0.08,-0.19,
4.928,-2.16,3.04,-2.59,-0.01,0.11,-0.21,
4.928,-2.03,3.18,-2.75,-0.01,0.11,-0.21,
4.931,-2.03,3.18,-2.75,-0.11,0.13,-0.23,
4.934,-1.80,3.25,-3.20,-0.11,0.13,-0.23,
4.935,-1.80,3.25,-3.20,-0.20,0.16,-0.24,
4.937,-1.80,3.25,-3.20,-0.29,0.19,-0.26,
4.978,-1.53,3.23,-3.51,-0.29,0.19,-0.26,
4.979,-1.53,3.23,-3.51,-0.38,0.21,-0.28,
4.979,-1.53,3.23,-3.51,-0.46,0.23,-0.29,
4.98,-1.53,3.23,-3.51,-0.54,0.24,-0.31,
4.98,-1.15,3.14,-3.61,-0.54,0.24,-0.31,
