
time,ax,ay,az,wx,wy,wz,
0.002,-0.09,-0.09,0.10,0.01,-0.04,0.05,
0.003,-0.09,-0.09,0.10,0.01,-0.03,0.05,
0.003,-0.09,-0.09,0.10,0.01,-0.02,0.05,
0.003,-0.09,-0.09,0.10,0.01,-0.01,0.05,
0.003,-0.10,-0.09,0.16,0.01,-0.01,0.05,
0.005,-0.10,-0.09,0.16,0.01,0.01,0.04,
0.007,-0.10,-0.09,0.16,0.01,0.02,0.04,
0.007,-0.14,-0.16,0.18,0.01,0.02,0.04,
0.009,-0.14,-0.16,0.18,0.01,0.03,0.04,
0.012,-0.14,-0.16,0.18,0.01,0.03,0.04,
0.012,-0.19,-0.21,0.21,0.01,0.03,0.04,
0.014,-0.19,-0.21,0.21,0.01,0.04,0.04,
0.017,-0.19,-0.21,0.21,0.00,0.04,0.04,
0.017,-0.17,-0.20,0.18,0.00,0.04,0.04,
0.019,-0.17,-0.20,0.18,0.00,0.04,0.04,
0.021,-0.17,-0.20,0.18,0.00,0.03,0.04,
0.022,-0.12,-0.17,0.12,0.00,0.03,0.04,
0.024,-0.12,-0.17,0.12,0.00,0.03,0.03,
0.027,-0.12,-0.17,0.12,0.00,0.03,0.03,
0.027,-0.12,-0.11,0.06,0.00,0.03,0.03,
0.03,-0.12,-0.11,0.06,-0.00,0.03,0.03,
0.031,-0.12,-0.11,0.06,-0.00,0.03,0.03,
0.032,-0.19,-0.08,0.06,-0.00,0.03,0.03,
0.034,-0.19,-0.08,0.06,-0.00,0.03,0.04,
0.036,-0.19,-0.08,0.06,-0.00,0.03,0.04,
0.037,-0.21,-0.08,0.17,-0.00,0.03,0.04,
0.039,-0.21,-0.08,0.17,-0.00,0.03,0.04,
0.041,-0.21,-0.08,0.17,-0.00,0.03,0.04,
0.042,-0.13,-0.09,0.31,-0.00,0.03,0.04,
0.044,-0.13,-0.09,0.31,0.00,0.03,0.04,
0.047,-0.12,-0.12,0.35,0.00,0.03,0.04,
0.048,-0.12,-0.12,0.35,0.00,0.03,0.04,
0.049,-0.12,-0.12,0.35,0.01,0.03,0.04,
0.051,-0.12,-0.12,0.35,0.01,0.03,0.04,
0.052,-0.16,-0.18,0.19,0.01,0.03,0.04,
0.054,-0.16,-0.18,0.19,0.01,0.02,0.04,
0.056,-0.16,-0.18,0.19,0.01,0.02,0.04,
0.057,-0.22,-0.19,0.05,0.01,0.02,0.04,
0.059,-0.22,-0.19,0.05,0.01,0.01,0.03,
0.062,-0.22,-0.19,0.05,0.01,0.01,0.04,
0.062,-0.21,-0.18,0.03,0.01,0.01,0.04,
0.064,-0.21,-0.18,0.03,0.00,0.00,0.04,
0.066,-0.22,-0.16,0.09,0.00,0.00,0.04,
0.067,-0.22,-0.16,0.09,0.00,-0.00,0.04,
0.068,-0.22,-0.16,0.09,-0.00,-0.00,0.04,
0.071,-0.16,-0.15,0.19,-0.00,-0.00,0.04,
0.072,-0.16,-0.15,0.19,-0.00,-0.01,0.04,
0.074,-0.16,-0.15,0.19,0.00,-0.01,0.04,
0.076,-0.16,-0.15,0.19,0.00,-0.01,0.04,
0.076,-0.06,-0.08,0.18,0.00,-0.01,0.04,
0.078,-0.06,-0.08,0.18,0.00,-0.01,0.04,
0.087,-0.06,-0.08,0.18,0.00,-0.01,0.04,
0.087,0.05,-0.02,0.05,0.00,-0.01,0.04,
0.088,0.05,-0.02,0.05,0.00,-0.02,0.04,
0.088,0.05,-0.02,0.05,0.00,-0.01,0.03,
0.088,0.01,0.02,-0.05,0.00,-0.01,0.03,
0.088,0.01,0.02,-0.05,0.00,-0.01,0.03,
0.091,0.01,0.02,-0.05,-0.00,-0.01,0.03,
0.091,-0.09,0.03,-0.01,-0.00,-0.01,0.03,
0.093,-0.09,0.03,-0.01,-0.00,-0.00,0.03,
0.097,-0.09,0.03,-0.01,-0.00,0.00,0.03,
0.097,-0.22,-0.01,0.09,-0.00,0.00,0.03,
0.099,-0.22,-0.01,0.09,-0.00,0.00,0.03,
0.101,-0.22,-0.01,0.09,-0.00,0.00,0.03,
0.102,-0.24,-0.08,0.18,-0.00,0.00,0.03,
0.103,-0.24,-0.08,0.18,-0.00,-0.00,0.03,
0.106,-0.24,-0.08,0.18,-0.00,-0.00,0.03,
0.106,-0.17,-0.12,0.15,-0.00,-0.00,0.03,
0.108,-0.17,-0.12,0.15,0.00,-0.00,0.03,
0.111,-0.08,-0.14,0.12,0.00,-0.00,0.03,
0.112,-0.08,-0.14,0.12,0.00,-0.00,0.03,
0.114,-0.08,-0.14,0.12,0.00,0.00,0.02,
0.116,-0.08,-0.14,0.12,0.00,0.00,0.02,
0.116,-0.04,-0.13,0.22,0.00,0.00,0.02,
0.118,-0.04,-0.13,0.22,0.00,0.01,0.02,
0.121,-0.04,-0.13,0.22,0.01,0.01,0.02,
0.121,-0.05,-0.08,0.29,0.01,0.01,0.02,
0.123,-0.05,-0.08,0.29,0.01,0.02,0.01,
0.125,-0.05,-0.08,0.29,0.01,0.03,0.02,
0.126,-0.02,-0.07,0.32,0.01,0.03,0.02,
0.128,-0.02,-0.07,0.32,0.01,0.03,0.01,
0.131,-0.02,-0.07,0.32,0.01,0.03,0.01,
0.131,-0.02,-0.10,0.26,0.01,0.03,0.01,
0.133,-0.02,-0.10,0.26,0.02,0.03,0.01,
0.136,-0.02,-0.10,0.26,0.01,0.02,0.01,
0.136,-0.05,-0.13,0.18,0.01,0.02,0.01,
0.139,-0.05,-0.13,0.18,0.01,0.02,0.01,
0.14,-0.05,-0.13,0.18,0.02,0.02,0.00,
0.141,-0.03,-0.12,0.18,0.02,0.02,0.00,
0.143,-0.03,-0.12,0.18,0.02,0.02,0.00,
0.145,-0.01,-0.12,0.21,0.02,0.02,0.00,
0.146,-0.01,-0.12,0.21,0.02,0.02,-0.00,
0.148,-0.01,-0.12,0.21,0.02,0.03,0.00,
0.151,-0.01,-0.12,0.21,0.02,0.03,-0.00,
0.151,0.01,-0.06,0.26,0.02,0.03,-0.00,
0.153,0.01,-0.06,0.26,0.03,0.03,-0.01,
0.155,0.01,-0.06,0.26,0.03,0.04,-0.01,
0.156,-0.12,-0.00,0.22,0.03,0.04,-0.01,
0.157,-0.12,-0.00,0.22,0.03,0.03,-0.01,
0.16,-0.12,-0.00,0.22,0.03,0.03,-0.01,
0.16,-0.12,0.04,0.16,0.03,0.03,-0.01,
0.163,-0.12,0.04,0.16,0.03,0.02,-0.02,
0.166,-0.12,0.04,0.16,0.03,0.02,-0.02,
0.167,-0.07,-0.07,-0.03,0.03,0.02,-0.02,
0.168,-0.07,-0.07,-0.03,0.03,0.02,-0.02,
0.174,-0.07,-0.07,-0.03,0.03,0.03,-0.02,
0.174,-0.07,-0.07,-0.03,0.03,0.03,-0.01,
0.174,-0.21,-0.18,0.00,0.03,0.03,-0.01,
0.176,-0.21,-0.18,0.00,0.03,0.03,-0.01,
0.176,-0.26,-0.11,0.08,0.03,0.03,-0.01,
0.178,-0.26,-0.11,0.08,0.03,0.02,-0.00,
0.183,-0.24,-0.06,-0.03,0.03,0.02,-0.00,
0.184,-0.24,-0.06,-0.03,0.02,0.02,-0.00,
0.184,-0.24,-0.06,-0.03,0.02,0.01,-0.00,
0.186,-0.24,-0.06,-0.03,0.02,0.01,0.00,
0.187,-0.25,-0.09,-0.02,0.02,0.01,0.00,
0.188,-0.25,-0.09,-0.02,0.02,0.01,0.00,
0.191,-0.25,-0.09,-0.02,0.01,0.01,0.00,
0.191,-0.22,-0.10,0.10,0.01,0.01,0.00,
0.205,-0.22,-0.10,0.10,0.01,0.01,0.00,
0.205,-0.22,-0.10,0.10,0.01,0.01,0.00,
0.205,-0.13,-0.10,0.10,0.01,0.01,0.00,
0.205,-0.13,-0.10,0.10,0.01,0.01,0.00,
0.205,-0.08,-0.07,0.16,0.01,0.01,0.00,
0.206,-0.08,-0.07,0.16,0.01,0.01,0.00,
0.206,-0.08,-0.07,0.16,0.01,0.01,-0.00,
0.206,-0.10,-0.09,0.19,0.01,0.01,-0.00,
0.206,-0.10,-0.09,0.19,0.01,0.01,-0.00,
0.208,-0.10,-0.09,0.19,0.02,0.01,-0.00,
0.215,-0.10,-0.09,0.19,0.02,0.01,-0.01,
0.215,-0.13,-0.10,0.16,0.02,0.01,-0.01,
0.215,-0.13,-0.10,0.16,0.02,0.01,-0.01,
0.216,-0.23,-0.16,0.19,0.02,0.01,-0.01,
0.216,-0.23,-0.16,0.19,0.01,0.02,-0.01,
0.22,-0.23,-0.16,0.19,0.02,0.01,-0.01,
0.22,-0.23,-0.16,0.19,0.01,0.02,-0.01,
0.22,-0.24,-0.19,0.28,0.01,0.02,-0.01,
0.223,-0.24,-0.19,0.28,0.02,0.01,-0.00,
0.225,-0.18,-0.16,0.35,0.02,0.01,-0.00,
0.225,-0.18,-0.16,0.35,0.02,0.01,-0.00,
0.227,-0.18,-0.16,0.35,0.02,0.01,0.00,
0.23,-0.09,-0.14,0.35,0.02,0.01,0.00,
0.231,-0.09,-0.14,0.35,0.02,0.01,-0.00,
0.234,-0.09,-0.14,0.35,0.03,0.01,-0.00,
0.234,-0.09,-0.14,0.35,0.03,0.01,-0.00,
0.235,-0.06,-0.14,0.34,0.03,0.01,-0.00,
0.237,-0.06,-0.14,0.34,0.03,0.01,-0.00,
0.24,-0.06,-0.14,0.34,0.03,0.01,-0.01,
0.24,-0.04,-0.18,0.28,0.03,0.01,-0.01,
0.243,-0.04,-0.18,0.28,0.03,0.01,-0.01,
0.244,-0.04,-0.18,0.28,0.04,0.00,-0.01,
0.244,-0.11,-0.14,0.18,0.04,0.00,-0.01,
0.25,-0.11,-0.14,0.18,0.04,0.00,-0.01,
0.25,-0.11,-0.14,0.18,0.03,0.00,-0.01,
0.25,-0.19,-0.11,0.10,0.03,0.00,-0.01,
0.252,-0.19,-0.11,0.10,0.04,0.00,-0.01,
0.254,-0.19,-0.11,0.10,0.04,0.00,-0.01,
0.255,-0.26,-0.04,0.03,0.04,0.00,-0.01,
0.257,-0.26,-0.04,0.03,0.03,0.00,-0.00,
0.259,-0.26,-0.04,0.03,0.03,-0.00,-0.00,
0.26,-0.26,0.02,-0.05,0.03,-0.00,-0.00,
0.262,-0.26,0.02,-0.05,0.03,-0.01,0.00,
0.264,-0.26,0.02,-0.05,0.03,-0.01,0.00,
0.265,-0.18,0.00,-0.10,0.03,-0.01,0.00,
0.267,-0.18,0.00,-0.10,0.03,-0.02,0.00,
0.269,-0.12,-0.03,-0.17,0.03,-0.02,0.00,
0.27,-0.12,-0.03,-0.17,0.02,-0.02,0.00,
0.272,-0.12,-0.03,-0.17,0.02,-0.02,-0.00,
0.274,-0.12,-0.03,-0.17,0.02,-0.02,-0.00,
0.275,-0.10,-0.07,-0.18,0.02,-0.02,-0.00,
0.277,-0.10,-0.07,-0.18,0.02,-0.01,-0.01,
0.287,-0.06,-0.07,-0.09,0.02,-0.01,-0.01,
0.288,-0.06,-0.07,-0.09,0.01,-0.00,-0.01,
0.288,-0.06,-0.07,-0.09,0.01,0.00,-0.01,
0.288,-0.03,-0.07,0.02,0.01,0.00,-0.01,
0.288,-0.03,-0.07,0.02,0.01,0.01,-0.01,
0.288,-0.03,-0.07,0.02,0.01,0.01,-0.01,
0.289,0.03,-0.07,0.11,0.01,0.01,-0.01,
0.289,0.03,-0.07,0.11,0.01,0.02,-0.01,
0.292,0.03,-0.07,0.11,0.01,0.02,-0.02,
0.295,0.06,-0.08,0.06,0.01,0.02,-0.02,
0.295,0.06,-0.08,0.06,0.00,0.02,-0.02,
0.297,0.06,-0.08,0.06,0.01,0.03,-0.02,
0.299,0.03,-0.07,0.05,0.01,0.03,-0.02,
0.299,0.03,-0.07,0.05,0.00,0.03,-0.03,
0.301,0.03,-0.07,0.05,0.00,0.03,-0.03,
0.304,0.03,-0.07,0.05,0.00,0.03,-0.03,
0.304,-0.04,-0.08,0.06,0.00,0.03,-0.03,
0.306,-0.04,-0.08,0.06,0.00,0.03,-0.03,
0.309,-0.10,-0.10,0.10,0.00,0.03,-0.03,
0.309,-0.10,-0.10,0.10,0.00,0.03,-0.03,
0.311,-0.10,-0.10,0.10,0.00,0.03,-0.03,
0.314,-0.19,-0.12,0.15,0.00,0.03,-0.03,
0.314,-0.19,-0.12,0.15,0.00,0.03,-0.03,
0.316,-0.19,-0.12,0.15,0.00,0.02,-0.03,
0.319,-0.30,-0.11,0.24,0.00,0.02,-0.03,
0.319,-0.30,-0.11,0.24,0.00,0.02,-0.03,
0.322,-0.30,-0.11,0.24,0.00,0.02,-0.03,
0.324,-0.33,-0.10,0.31,0.00,0.02,-0.03,
0.324,-0.33,-0.10,0.31,0.01,0.01,-0.02,
0.326,-0.33,-0.10,0.31,0.01,0.01,-0.02,
0.329,-0.31,-0.09,0.35,0.01,0.01,-0.02,
0.329,-0.31,-0.09,0.35,0.01,0.01,-0.02,
0.331,-0.31,-0.09,0.35,0.01,0.00,-0.02,
0.334,-0.26,-0.11,0.38,0.01,0.00,-0.02,
0.334,-0.26,-0.11,0.38,0.02,0.00,-0.02,
0.336,-0.26,-0.11,0.38,0.02,0.00,-0.01,
0.341,-0.26,-0.11,0.38,0.03,0.00,-0.01,
0.341,-0.14,-0.15,0.41,0.03,0.00,-0.01,
0.342,-0.14,-0.15,0.41,0.03,0.00,-0.01,
0.344,-0.14,-0.15,0.41,0.03,0.01,-0.01,
0.345,-0.01,-0.18,0.36,0.03,0.01,-0.01,
0.346,-0.01,-0.18,0.36,0.04,0.01,-0.01,
0.349,-0.01,-0.18,0.36,0.04,0.01,-0.02,
0.349,0.04,-0.17,0.30,0.04,0.01,-0.02,
0.352,0.04,-0.17,0.30,0.04,0.02,-0.02,
0.354,0.04,-0.17,0.30,0.04,0.03,-0.02,
0.354,0.25,-0.04,0.22,0.04,0.03,-0.02,
0.357,0.25,-0.04,0.22,0.05,0.06,-0.03,
0.372,0.25,-0.04,0.22,0.07,0.10,-0.03,
0.373,0.45,0.60,0.53,0.07,0.10,-0.03,
0.373,0.45,0.60,0.53,0.09,0.15,-0.03,
0.373,0.45,0.60,0.53,0.10,0.19,-0.03,
0.373,0.25,0.65,-0.10,0.10,0.19,-0.03,
0.374,0.25,0.65,-0.10,0.09,0.22,-0.04,
0.374,0.25,0.65,-0.10,0.08,0.22,-0.06,
0.374,0.70,-0.06,-0.76,0.08,0.22,-0.06,
0.374,0.70,-0.06,-0.76,0.06,0.19,-0.08,
0.374,0.70,-0.06,-0.76,0.05,0.15,-0.10,
0.375,0.58,-0.35,-0.05,0.05,0.15,-0.10,
0.376,0.58,-0.35,-0.05,0.05,0.12,-0.11,
0.378,0.58,-0.35,-0.05,0.06,0.12,-0.12,
0.379,0.10,-0.18,0.51,0.06,0.12,-0.12,
0.381,0.10,-0.18,0.51,0.07,0.13,-0.12,
0.386,0.10,-0.18,0.51,0.08,0.16,-0.12,
0.386,-0.21,-0.01,0.54,0.08,0.16,-0.12,
0.386,-0.21,-0.01,0.54,0.09,0.19,-0.12,
0.388,-0.21,-0.01,0.54,0.09,0.21,-0.11,
0.388,-0.16,0.15,0.29,0.09,0.21,-0.11,
0.391,-0.16,0.15,0.29,0.09,0.22,-0.11,
0.394,-0.16,0.15,0.29,0.09,0.21,-0.11,
0.394,0.19,0.36,0.15,0.09,0.21,-0.11,
0.408,0.19,0.36,0.15,0.09,0.20,-0.12,
0.408,0.19,0.36,0.15,0.09,0.19,-0.13,
0.408,0.39,0.58,0.32,0.09,0.19,-0.13,
0.409,0.39,0.58,0.32,0.10,0.17,-0.14,
0.409,0.39,0.58,0.32,0.11,0.16,-0.15,
0.409,0.38,0.72,0.37,0.11,0.16,-0.15,
0.409,0.38,0.72,0.37,0.12,0.16,-0.15,
0.409,0.38,0.72,0.37,0.13,0.15,-0.16,
0.409,0.19,0.62,0.24,0.13,0.15,-0.16,
0.411,0.19,0.62,0.24,0.13,0.14,-0.16,
0.419,0.04,0.43,0.10,0.13,0.14,-0.16,
0.42,0.04,0.43,0.10,0.14,0.12,-0.17,
0.42,0.04,0.43,0.10,0.14,0.11,-0.18,
0.42,0.04,0.43,0.10,0.14,0.09,-0.19,
0.42,-0.13,0.18,0.04,0.14,0.09,-0.19,
0.42,-0.13,0.18,0.04,0.14,0.07,-0.19,
0.423,-0.46,0.01,0.20,0.14,0.07,-0.19,
0.423,-0.46,0.01,0.20,0.14,0.04,-0.19,
0.425,-0.46,0.01,0.20,0.14,0.02,-0.19,
0.428,-0.46,0.01,0.20,0.14,0.01,-0.19,
0.428,-0.13,0.05,0.19,0.14,0.01,-0.19,
0.431,-0.13,0.05,0.19,0.14,0.02,-0.19,
0.433,0.19,0.10,0.02,0.14,0.02,-0.19,
0.433,0.19,0.10,0.02,0.14,0.03,-0.19,
0.435,0.19,0.10,0.02,0.15,0.05,-0.20,
0.438,0.19,0.10,0.02,0.14,0.08,-0.20,
0.438,0.04,0.16,-0.23,0.14,0.08,-0.20,
0.44,0.04,0.16,-0.23,0.14,0.11,-0.20,
0.443,0.26,-0.01,-0.22,0.14,0.11,-0.20,
0.443,0.26,-0.01,-0.22,0.14,0.13,-0.20,
0.445,0.26,-0.01,-0.22,0.14,0.13,-0.22,
0.448,0.58,-0.21,0.38,0.14,0.13,-0.22,
0.448,0.58,-0.21,0.38,0.14,0.10,-0.24,
0.451,0.58,-0.21,0.38,0.15,0.08,-0.25,
0.453,0.36,-0.32,0.58,0.15,0.08,-0.25,
0.453,0.36,-0.32,0.58,0.16,0.07,-0.26,
0.455,0.36,-0.32,0.58,0.17,0.06,-0.28,
0.458,0.48,-0.34,0.28,0.17,0.06,-0.28,
0.458,0.48,-0.34,0.28,0.18,0.06,-0.29,
0.46,0.48,-0.34,0.28,0.18,0.06,-0.30,
0.463,0.42,-0.39,-0.02,0.18,0.06,-0.30,
0.463,0.42,-0.39,-0.02,0.18,0.06,-0.32,
0.466,0.42,-0.39,-0.02,0.18,0.07,-0.32,
0.468,0.42,-0.39,-0.02,0.17,0.09,-0.33,
0.468,0.26,-0.37,-0.17,0.17,0.09,-0.33,
0.47,0.26,-0.37,-0.17,0.16,0.12,-0.34,
0.472,0.26,-0.37,-0.17,0.16,0.14,-0.33,
0.473,-0.04,-0.28,-0.07,0.16,0.14,-0.33,
0.475,-0.04,-0.28,-0.07,0.16,0.16,-0.33,
0.477,-0.04,-0.28,-0.07,0.17,0.16,-0.34,
0.478,0.10,-0.08,0.30,0.17,0.16,-0.34,
0.48,0.10,-0.08,0.30,0.18,0.16,-0.35,
0.484,0.08,0.09,0.40,0.18,0.16,-0.35,
0.484,0.08,0.09,0.40,0.19,0.14,-0.36,
0.485,0.08,0.09,0.40,0.19,0.12,-0.37,
0.491,0.08,0.09,0.40,0.19,0.12,-0.37,
0.491,0.08,0.09,0.40,0.19,0.13,-0.37,
0.491,-0.38,0.24,0.13,0.19,0.13,-0.37,
0.493,-1.20,0.30,0.01,0.19,0.13,-0.37,
0.493,-1.20,0.30,0.01,0.19,0.13,-0.35,
0.495,-1.20,0.30,0.01,0.19,0.14,-0.32,
0.501,-1.30,0.11,0.30,0.19,0.14,-0.32,
0.502,-1.30,0.11,0.30,0.19,0.14,-0.29,
0.502,-1.30,0.11,0.30,0.20,0.11,-0.28,
0.503,-1.30,0.11,0.30,0.20,0.09,-0.27,
0.503,-0.59,-0.03,0.28,0.20,0.09,-0.27,
0.505,-0.59,-0.03,0.28,0.21,0.06,-0.27,
0.515,-0.59,-0.03,0.28,0.21,0.03,-0.27,
0.516,-0.59,-0.03,0.28,0.22,0.00,-0.26,
0.516,-0.59,-0.03,0.28,0.22,-0.01,-0.24,
0.516,-0.59,-0.03,0.28,0.22,-0.05,-0.22,
0.516,-0.63,-0.04,0.29,0.22,-0.05,-0.22,
0.516,-0.97,-0.05,0.22,0.22,-0.05,-0.22,
0.518,-0.97,-0.05,0.22,0.22,-0.10,-0.20,
0.518,-1.49,-0.16,0.62,0.22,-0.10,-0.20,
0.519,-1.49,-0.16,0.62,0.22,-0.16,-0.17,
0.522,-1.30,-0.40,0.59,0.22,-0.16,-0.17,
0.537,-1.30,-0.40,0.59,0.23,-0.21,-0.16,
0.537,-1.30,-0.40,0.59,0.24,-0.26,-0.15,
0.538,-1.25,-0.34,0.41,0.24,-0.26,-0.15,
0.538,-1.25,-0.34,0.41,0.24,-0.29,-0.13,
0.538,-1.25,-0.34,0.41,0.24,-0.33,-0.11,
0.539,-1.25,-0.34,0.41,0.26,-0.38,-0.07,
0.539,-2.16,0.18,0.73,0.26,-0.38,-0.07,
0.539,-2.16,0.18,0.73,0.27,-0.45,-0.02,
0.54,-2.11,0.30,0.79,0.27,-0.45,-0.02,
0.54,-2.11,0.30,0.79,0.30,-0.51,0.02,
0.54,-2.11,0.30,0.79,0.30,-0.55,0.04,
0.542,-1.75,-0.17,0.16,0.30,-0.55,0.04,
0.543,-1.75,-0.17,0.16,0.30,-0.56,0.06,
0.545,-1.75,-0.17,0.16,0.29,-0.53,0.08,
0.548,-1.75,-0.17,0.16,0.28,-0.50,0.13,
0.548,-2.43,-0.31,-0.44,0.28,-0.50,0.13,
0.549,-2.43,-0.31,-0.44,0.27,-0.47,0.20,
0.553,-2.43,-0.31,-0.44,0.26,-0.48,0.25,
0.553,-1.89,-0.65,0.09,0.26,-0.48,0.25,
0.554,-1.89,-0.65,0.09,0.26,-0.53,0.28,
0.557,-1.89,-0.65,0.09,0.25,-0.54,0.30,
0.557,-1.10,-1.27,0.15,0.25,-0.54,0.30,
0.559,-1.10,-1.27,0.15,0.24,-0.54,0.30,
0.562,-1.10,-1.27,0.15,0.23,-0.48,0.30,
0.562,-0.68,-1.63,-0.37,0.23,-0.48,0.30,
0.564,-0.68,-1.63,-0.37,0.22,-0.39,0.30,
0.567,-0.68,-1.63,-0.37,0.21,-0.32,0.33,
0.567,-0.72,-1.22,-0.32,0.21,-0.32,0.33,
0.57,-0.72,-1.22,-0.32,0.20,-0.28,0.36,
0.572,-0.72,-1.22,-0.32,0.19,-0.26,0.36,
0.572,0.18,-1.06,0.11,0.19,-0.26,0.36,
0.574,0.18,-1.06,0.11,0.19,-0.27,0.35,
0.578,0.18,-1.06,0.11,0.18,-0.26,0.32,
0.578,1.00,-0.94,-0.04,0.18,-0.26,0.32,
0.58,1.00,-0.94,-0.04,0.17,-0.23,0.28,
0.583,1.51,-0.12,0.23,0.17,-0.23,0.28,
0.586,1.51,-0.12,0.23,0.17,-0.22,0.25,
0.587,1.51,-0.12,0.23,0.18,-0.21,0.21,
0.587,1.51,-0.12,0.23,0.19,-0.21,0.19,
0.588,1.67,0.30,0.44,0.19,-0.21,0.19,
0.593,1.54,0.07,0.09,0.19,-0.21,0.19,
0.593,1.54,0.07,0.09,0.20,-0.20,0.15,
0.593,1.54,0.07,0.09,0.20,-0.17,0.12,
0.595,1.54,0.07,0.09,0.21,-0.15,0.09,
0.598,1.54,0.07,0.09,0.22,-0.12,0.06,
0.598,1.20,-0.02,0.12,0.22,-0.12,0.06,
0.599,1.20,-0.02,0.12,0.22,-0.09,0.04,
0.602,1.20,-0.02,0.12,0.22,-0.07,0.01,
0.603,1.34,-0.38,-0.26,0.22,-0.07,0.01,
0.604,1.34,-0.38,-0.26,0.21,-0.05,-0.02,
0.607,1.34,-0.38,-0.26,0.18,-0.02,-0.05,
0.607,1.54,-0.69,-0.92,0.18,-0.02,-0.05,
0.609,1.54,-0.69,-0.92,0.15,0.01,-0.09,
0.611,1.54,-0.69,-0.92,0.12,0.04,-0.12,
0.612,1.61,-0.71,-1.18,0.12,0.04,-0.12,
0.614,1.61,-0.71,-1.18,0.09,0.05,-0.15,
0.617,1.24,-0.34,-0.92,0.09,0.05,-0.15,
0.618,1.24,-0.34,-0.92,0.06,0.07,-0.18,
0.619,1.24,-0.34,-0.92,0.04,0.09,-0.19,
0.621,1.24,-0.34,-0.92,0.04,0.11,-0.23,
0.621,1.27,-0.13,-0.14,0.04,0.11,-0.23,
0.624,1.27,-0.13,-0.14,0.04,0.13,-0.26,
0.626,1.27,-0.13,-0.14,0.05,0.13,-0.28,
0.626,0.87,-0.01,0.29,0.05,0.13,-0.28,
0.628,0.87,-0.01,0.29,0.05,0.14,-0.29,
0.631,0.87,-0.01,0.29,0.05,0.16,-0.30,
0.632,0.49,-0.17,-0.06,0.05,0.16,-0.30,
0.633,0.49,-0.17,-0.06,0.04,0.19,-0.32,
0.637,0.49,-0.17,-0.06,0.04,0.22,-0.33,
0.638,0.57,-0.23,-0.43,0.04,0.22,-0.33,
0.639,0.57,-0.23,-0.43,0.01,0.24,-0.33,
0.641,0.57,-0.23,-0.43,-0.01,0.27,-0.34,
0.641,0.65,-0.34,-0.89,-0.01,0.27,-0.34,
0.643,0.65,-0.34,-0.89,-0.03,0.31,-0.35,
0.646,0.65,-0.34,-0.89,-0.06,0.36,-0.36,
0.647,0.54,-0.27,-0.91,-0.06,0.36,-0.36,
0.65,0.54,-0.27,-0.91,-0.08,0.40,-0.37,
0.651,0.54,-0.27,-0.91,-0.10,0.45,-0.37,
0.652,0.37,-0.10,-0.92,-0.10,0.45,-0.37,
0.653,0.37,-0.10,-0.92,-0.12,0.49,-0.38,
0.656,0.37,-0.10,-0.92,-0.15,0.55,-0.38,
0.656,0.21,-0.07,-1.52,-0.15,0.55,-0.38,
0.659,0.21,-0.07,-1.52,-0.21,0.63,-0.39,
0.661,0.21,-0.07,-1.52,-0.33,0.76,-0.41,
0.662,0.72,-0.84,-5.74,-0.33,0.76,-0.41,
0.663,0.72,-0.84,-5.74,-0.50,1.00,-0.43,
0.667,0.72,-0.84,-5.74,-0.65,1.27,-0.44,
0.668,1.00,-0.37,-7.37,-0.65,1.27,-0.44,
0.672,1.00,-0.37,-7.37,-0.72,1.49,-0.44,
0.672,1.00,-0.37,-7.37,-0.69,1.62,-0.41,
0.672,0.31,1.87,1.14,-0.69,1.62,-0.41,
0.673,0.31,1.87,1.14,-0.59,1.66,-0.38,
0.676,0.31,1.87,1.14,-0.48,1.61,-0.36,
0.676,-0.10,2.26,5.22,-0.48,1.61,-0.36,
0.678,-0.10,2.26,5.22,-0.34,1.48,-0.36,
0.695,-0.10,2.26,5.22,-0.23,1.32,-0.38,
0.696,-0.31,1.20,4.83,-0.23,1.32,-0.38,
0.696,-0.31,1.20,4.83,-0.16,1.15,-0.42,
0.697,-0.31,1.20,4.83,-0.13,0.99,-0.45,
0.697,-0.48,-0.30,1.43,-0.13,0.99,-0.45,
0.716,-0.48,-0.30,1.43,-0.16,0.86,-0.48,
0.716,-0.48,-0.30,1.43,-0.23,0.78,-0.49,
0.716,-0.56,-1.68,-2.55,-0.23,0.78,-0.49,
0.716,-0.56,-1.68,-2.55,-0.34,0.69,-0.49,
0.716,-0.56,-1.68,-2.55,-0.48,0.57,-0.47,
0.716,-1.20,-2.75,-4.43,-0.48,0.57,-0.47,
0.717,-1.20,-2.75,-4.43,-0.60,0.47,-0.44,
0.717,-3.01,-2.65,-1.77,-0.60,0.47,-0.44,
0.717,-3.01,-2.65,-1.77,-0.67,0.42,-0.38,
0.717,-3.01,-2.65,-1.77,-0.69,0.41,-0.30,
0.717,-3.01,-2.65,-1.77,-0.65,0.41,-0.19,
0.717,-4.92,-1.59,2.97,-0.65,0.41,-0.19,
0.717,-4.92,-1.59,2.97,-0.55,0.36,-0.08,
0.718,-4.92,-1.59,2.97,-0.42,0.29,0.01,
0.718,-4.50,0.18,6.49,-0.42,0.29,0.01,
0.718,-4.50,0.18,6.49,-0.26,0.20,0.07,
0.718,-1.71,1.23,7.18,-0.26,0.20,0.07,
0.718,-1.71,1.23,7.18,-0.10,0.08,0.07,
0.718,-1.71,1.23,7.18,0.05,-0.03,0.04,
0.722,-1.71,1.23,7.18,0.17,-0.10,0.02,
0.723,-0.63,1.79,5.13,0.17,-0.10,0.02,
0.723,-0.63,1.79,5.13,0.26,-0.14,0.02,
0.727,-0.63,1.79,5.13,0.32,-0.16,0.05,
0.727,-1.02,1.98,1.96,0.32,-0.16,0.05,
0.729,-1.02,1.98,1.96,0.34,-0.16,0.09,
0.731,-1.02,1.98,1.96,0.33,-0.14,0.13,
0.732,-0.94,1.42,-0.66,0.33,-0.14,0.13,
0.735,-0.94,1.42,-0.66,0.30,-0.11,0.14,
0.736,-0.47,0.33,-1.71,0.30,-0.11,0.14,
0.737,-0.47,0.33,-1.71,0.27,-0.09,0.15,
0.738,-0.47,0.33,-1.71,0.23,-0.08,0.15,
0.74,-0.47,0.33,-1.71,0.19,-0.09,0.15,
0.74,-0.02,-0.59,-1.23,0.19,-0.09,0.15,
0.742,-0.02,-0.59,-1.23,0.17,-0.08,0.14,
0.745,0.18,-0.90,-0.41,0.17,-0.08,0.14,
0.745,0.18,-0.90,-0.41,0.17,-0.08,0.14,
0.748,0.18,-0.90,-0.41,0.16,-0.07,0.13,
0.75,0.18,-0.90,-0.41,0.16,-0.07,0.13,
0.75,0.17,-0.66,-0.13,0.16,-0.07,0.13,
0.753,0.17,-0.66,-0.13,0.16,-0.07,0.13,
0.755,0.07,-0.27,-0.12,0.16,-0.07,0.13,
0.755,0.07,-0.27,-0.12,0.16,-0.06,0.12,
0.757,0.07,-0.27,-0.12,0.16,-0.04,0.12,
0.76,0.07,-0.27,-0.12,0.16,-0.02,0.11,
0.761,0.20,-0.01,-0.04,0.16,-0.02,0.11,
0.762,0.20,-0.01,-0.04,0.16,0.00,0.10,
0.765,0.20,-0.01,-0.04,0.16,0.03,0.09,
0.766,0.31,0.10,0.24,0.16,0.03,0.09,
0.768,0.31,0.10,0.24,0.16,0.05,0.08,
0.771,0.31,0.10,0.24,0.17,0.07,0.09,
0.771,-0.01,0.11,0.54,0.17,0.07,0.09,
0.773,-0.01,0.11,0.54,0.18,0.08,0.09,
0.775,-0.01,0.11,0.54,0.18,0.09,0.10,
0.775,-0.52,-0.02,0.35,0.18,0.09,0.10,
0.779,-0.52,-0.02,0.35,0.18,0.09,0.12,
0.78,-0.52,-0.02,0.35,0.17,0.08,0.13,
0.78,-0.77,-0.28,-0.09,0.17,0.08,0.13,
0.783,-0.77,-0.28,-0.09,0.16,0.06,0.14,
0.785,-0.77,-0.28,-0.09,0.15,0.03,0.15,
0.785,-0.80,-0.46,-0.37,0.15,0.03,0.15,
0.787,-0.80,-0.46,-0.37,0.14,0.01,0.15,
0.79,-0.80,-0.46,-0.37,0.12,-0.02,0.16,
0.79,-0.72,-0.53,-0.39,0.12,-0.02,0.16,
0.792,-0.72,-0.53,-0.39,0.11,-0.04,0.16,
0.795,-0.72,-0.53,-0.39,0.11,-0.05,0.17,
0.795,-0.70,-0.59,-0.22,0.11,-0.05,0.17,
0.797,-0.70,-0.59,-0.22,0.10,-0.07,0.17,
0.804,-0.70,-0.59,-0.22,0.09,-0.08,0.18,
0.805,-0.58,-0.63,0.04,0.09,-0.08,0.18,
0.806,-0.58,-0.63,0.04,0.09,-0.10,0.18,
0.806,-0.58,-0.63,0.04,0.08,-0.11,0.19,
0.807,-0.52,-0.65,0.28,0.08,-0.11,0.19,
0.807,-0.52,-0.65,0.28,0.08,-0.13,0.20,
0.81,-0.52,-0.65,0.28,0.08,-0.15,0.20,
0.811,-0.47,-0.65,0.52,0.08,-0.15,0.20,
0.813,-0.47,-0.65,0.52,0.08,-0.17,0.21,
0.83,-0.47,-0.65,0.52,0.08,-0.19,0.21,
0.83,-0.39,-0.69,0.71,0.08,-0.19,0.21,
0.831,-0.39,-0.69,0.71,0.09,-0.22,0.21,
0.831,-0.39,-0.69,0.71,0.09,-0.24,0.21,
0.831,-0.18,-0.72,0.70,0.09,-0.24,0.21,
0.832,-0.18,-0.72,0.70,0.09,-0.26,0.21,
0.832,0.06,-0.69,0.53,0.09,-0.26,0.21,
0.833,0.06,-0.69,0.53,0.10,-0.26,0.20,
0.833,0.06,-0.69,0.53,0.10,-0.26,0.20,
0.833,0.20,-0.59,0.35,0.10,-0.26,0.20,
0.834,0.20,-0.59,0.35,0.10,-0.25,0.20,
0.834,0.20,-0.59,0.35,0.10,-0.23,0.19,
0.836,0.31,-0.48,0.26,0.10,-0.23,0.19,
0.837,0.31,-0.48,0.26,0.09,-0.22,0.19,
0.837,0.31,-0.48,0.26,0.09,-0.20,0.19,
0.839,0.42,-0.32,0.38,0.09,-0.20,0.19,
0.84,0.42,-0.32,0.38,0.10,-0.18,0.18,
0.842,0.42,-0.32,0.38,0.10,-0.17,0.17,
0.844,0.42,-0.32,0.38,0.11,-0.15,0.16,
0.844,0.49,-0.08,0.45,0.11,-0.15,0.16,
0.847,0.49,-0.08,0.45,0.12,-0.14,0.15,
0.85,0.35,0.16,0.42,0.12,-0.14,0.15,
0.85,0.35,0.16,0.42,0.13,-0.13,0.13,
0.852,0.35,0.16,0.42,0.14,-0.12,0.12,
0.872,0.09,0.38,0.41,0.14,-0.12,0.12,
0.872,0.09,0.38,0.41,0.15,-0.11,0.11,
0.872,0.09,0.38,0.41,0.15,-0.11,0.11,
0.873,0.09,0.38,0.41,0.16,-0.11,0.11,
0.873,-0.31,0.53,0.47,0.16,-0.11,0.11,
0.874,-0.31,0.53,0.47,0.17,-0.12,0.11,
0.874,-0.31,0.53,0.47,0.18,-0.12,0.12,
0.874,-0.62,0.55,0.48,0.18,-0.12,0.12,
0.875,-0.62,0.55,0.48,0.19,-0.13,0.13,
0.875,-0.62,0.55,0.48,0.20,-0.14,0.14,
0.875,-0.69,0.43,0.27,0.20,-0.14,0.14,
0.876,-0.69,0.43,0.27,0.20,-0.14,0.15,
0.876,-0.62,0.25,-0.00,0.20,-0.14,0.15,
0.876,-0.62,0.25,-0.00,0.20,-0.14,0.16,
0.876,-0.62,0.25,-0.00,0.20,-0.13,0.17,
0.879,-0.62,0.25,-0.00,0.20,-0.13,0.18,
0.88,-0.44,0.08,-0.26,0.20,-0.13,0.18,
0.886,-0.44,0.08,-0.26,0.19,-0.12,0.18,
0.887,-0.13,0.03,-0.35,0.19,-0.12,0.18,
0.887,-0.13,0.03,-0.35,0.19,-0.10,0.18,
0.887,-0.13,0.03,-0.35,0.18,-0.09,0.18,
0.889,0.23,0.03,-0.46,0.18,-0.09,0.18,
0.889,0.23,0.03,-0.46,0.17,-0.07,0.18,
0.892,0.23,0.03,-0.46,0.16,-0.04,0.17,
0.895,0.23,0.03,-0.46,0.16,-0.01,0.16,
0.895,0.62,0.10,-0.71,0.16,-0.01,0.16,
0.896,0.62,0.10,-0.71,0.15,0.04,0.15,
0.903,0.62,0.10,-0.71,0.14,0.08,0.13,
0.904,0.94,0.19,-0.89,0.14,0.08,0.13,
0.904,0.94,0.19,-0.89,0.12,0.13,0.12,
0.904,0.94,0.19,-0.89,0.11,0.19,0.10,
0.905,1.11,0.29,-0.96,0.11,0.19,0.10,
0.907,1.11,0.29,-0.96,0.10,0.24,0.09,
0.909,1.11,0.29,-0.96,0.08,0.29,0.06,
0.91,1.13,-1.25,-1.05,0.08,0.29,0.06,
0.911,1.13,-1.25,-1.05,0.04,0.35,0.04,
0.914,1.13,-1.25,-1.05,0.01,0.40,0.02,
0.915,0.93,-1.67,-1.01,0.01,0.40,0.02,
0.916,0.93,-1.67,-1.01,-0.01,0.41,0.01,
0.919,0.93,-1.67,-1.01,-0.03,0.41,0.01,
0.919,0.28,-0.99,-0.28,-0.03,0.41,0.01,
0.921,0.28,-0.99,-0.28,-0.04,0.39,0.02,
0.923,0.28,-0.99,-0.28,-0.03,0.37,0.02,
0.923,0.01,-0.21,0.27,-0.03,0.37,0.02,
0.927,0.01,-0.21,0.27,-0.02,0.35,0.02,
0.928,0.01,-0.21,0.27,-0.01,0.32,0.01,
0.929,-0.05,0.39,0.59,-0.01,0.32,0.01,
0.931,-0.05,0.39,0.59,0.00,0.30,-0.01,
0.934,-0.05,0.39,0.59,0.02,0.29,-0.03,
0.934,0.49,0.76,0.38,0.02,0.29,-0.03,
0.936,0.49,0.76,0.38,0.03,0.28,-0.05,
0.939,0.49,0.76,0.38,0.04,0.28,-0.07,
0.939,0.74,0.86,0.35,0.04,0.28,-0.07,
0.941,0.74,0.86,0.35,0.06,0.27,-0.08,
0.943,0.74,0.86,0.35,0.07,0.25,-0.08,
0.944,0.38,0.56,0.62,0.07,0.25,-0.08,
0.946,0.38,0.56,0.62,0.08,0.23,-0.08,
0.948,-0.36,0.13,0.68,0.08,0.23,-0.08,
0.949,-0.36,0.13,0.68,0.10,0.22,-0.08,
0.951,-0.36,0.13,0.68,0.10,0.20,-0.07,
0.954,-0.36,0.13,0.68,0.11,0.19,-0.07,
0.954,-0.88,-0.23,0.30,0.11,0.19,-0.07,
0.956,-0.88,-0.23,0.30,0.10,0.16,-0.06,
0.958,-0.88,-0.23,0.30,0.10,0.11,-0.05,
0.958,-1.09,-0.27,0.25,0.10,0.11,-0.05,
0.961,-1.09,-0.27,0.25,0.10,0.05,-0.04,
0.963,-1.24,-0.11,0.01,0.10,0.05,-0.04,
0.963,-1.24,-0.11,0.01,0.10,-0.01,-0.04,
0.966,-1.24,-0.11,0.01,0.09,-0.05,-0.02,
0.968,-1.24,-0.11,0.01,0.08,-0.05,-0.01,
0.968,-1.36,0.06,-0.75,0.08,-0.05,-0.01,
0.97,-1.36,0.06,-0.75,0.06,-0.04,0.01,
0.973,-1.36,0.06,-0.75,0.03,0.01,0.04,
0.973,-1.50,0.38,-1.30,0.03,0.01,0.04,
0.976,-1.50,0.38,-1.30,0.01,0.04,0.07,
0.978,-1.50,0.38,-1.30,-0.01,0.08,0.10,
0.978,-1.33,0.61,-1.03,-0.01,0.08,0.10,
0.98,-1.33,0.61,-1.03,-0.02,0.11,0.13,
0.983,-1.33,0.61,-1.03,-0.03,0.14,0.16,
0.984,-0.89,0.60,-0.65,-0.03,0.14,0.16,
0.986,-0.89,0.60,-0.65,-0.04,0.18,0.17,
0.988,-0.89,0.60,-0.65,-0.04,0.21,0.18,
0.989,-0.53,0.67,-0.36,-0.04,0.21,0.18,
0.99,-0.53,0.67,-0.36,-0.05,0.25,0.20,
0.993,-0.53,0.67,-0.36,-0.06,0.29,0.22,
0.993,-0.61,0.72,-0.27,-0.06,0.29,0.22,
0.996,-0.61,0.72,-0.27,-0.06,0.32,0.24,
1.005,-0.97,0.32,-0.11,-0.06,0.32,0.24,
1.007,-0.97,0.32,-0.11,-0.06,0.35,0.27,
1.008,-0.97,0.32,-0.11,-0.06,0.38,0.30,
1.009,-1.13,0.68,0.39,-0.06,0.38,0.30,
1.01,-1.13,0.68,0.39,-0.05,0.40,0.33,
1.011,-1.13,0.68,0.39,-0.05,0.40,0.34,
1.011,-0.57,0.77,0.94,-0.05,0.40,0.34,
1.012,-0.57,0.77,0.94,-0.02,0.36,0.35,
1.013,-0.57,0.77,0.94,0.00,0.32,0.35,
1.014,0.20,0.04,1.65,0.00,0.32,0.35,
1.015,0.20,0.04,1.65,0.03,0.26,0.32,
1.033,0.20,0.04,1.65,0.06,0.18,0.29,
1.034,0.20,0.04,1.65,0.09,0.10,0.27,
1.058,0.18,-1.36,1.86,0.09,0.10,0.27,
1.058,0.18,-1.36,1.86,0.11,0.02,0.25,
1.059,0.18,-1.36,1.86,0.13,-0.03,0.24,
1.059,-0.24,-2.22,1.46,0.13,-0.03,0.24,
1.059,-0.24,-2.22,1.46,0.13,-0.09,0.24,
1.059,-0.24,-2.22,1.46,0.13,-0.13,0.26,
1.06,-1.06,-2.22,0.73,0.13,-0.13,0.26,
1.06,-1.06,-2.22,0.73,0.13,-0.16,0.29,
1.06,-1.60,-1.54,0.06,0.13,-0.16,0.29,
1.06,-1.60,-1.54,0.06,0.11,-0.18,0.32,
1.061,-1.60,-1.54,0.06,0.10,-0.19,0.36,
1.061,-1.60,-1.54,0.06,0.08,-0.21,0.39,
1.061,-1.59,-0.96,-0.52,0.08,-0.21,0.39,
1.061,-1.59,-0.96,-0.52,0.05,-0.23,0.42,
1.061,-1.59,-0.96,-0.52,0.03,-0.25,0.44,
1.062,-1.25,-0.51,-0.64,0.03,-0.25,0.44,
1.062,-1.25,-0.51,-0.64,0.02,-0.27,0.45,
1.062,-1.25,-0.51,-0.64,0.01,-0.28,0.45,
1.062,-0.69,0.08,-0.51,0.01,-0.28,0.45,
1.063,-0.69,0.08,-0.51,0.00,-0.29,0.45,
1.063,-0.69,0.08,-0.51,-0.00,-0.28,0.43,
1.063,0.01,0.52,-0.58,-0.00,-0.28,0.43,
1.063,0.01,0.52,-0.58,-0.02,-0.28,0.43,
1.064,0.41,0.49,-0.89,-0.02,-0.28,0.43,
1.064,0.41,0.49,-0.89,-0.04,-0.28,0.42,
1.064,0.41,0.49,-0.89,-0.06,-0.27,0.41,
1.064,0.90,0.80,-0.79,-0.06,-0.27,0.41,
1.065,0.90,0.80,-0.79,-0.07,-0.24,0.39,
1.068,0.90,0.80,-0.79,-0.08,-0.18,0.37,
1.069,1.30,1.14,-0.49,-0.08,-0.18,0.37,
1.069,1.30,1.14,-0.49,-0.07,-0.09,0.34,
1.07,1.30,1.14,-0.49,-0.07,0.01,0.32,
1.073,1.30,1.14,-0.49,-0.06,0.13,0.31,
1.074,1.45,1.20,-0.40,-0.06,0.13,0.31,
1.076,1.45,1.20,-0.40,-0.06,0.23,0.29,
1.079,1.45,1.20,-0.40,-0.06,0.33,0.27,
1.079,1.54,0.72,-0.48,-0.06,0.33,0.27,
1.08,1.54,0.72,-0.48,-0.06,0.42,0.25,
1.083,1.54,0.72,-0.48,-0.07,0.49,0.23,
1.084,1.45,0.03,-0.75,-0.07,0.49,0.23,
1.085,1.45,0.03,-0.75,-0.09,0.54,0.21,
1.087,1.45,0.03,-0.75,-0.11,0.60,0.19,
1.088,0.94,-0.36,-1.07,-0.11,0.60,0.19,
1.089,0.94,-0.36,-1.07,-0.14,0.66,0.18,
1.092,0.94,-0.36,-1.07,-0.16,0.71,0.17,
1.092,0.32,-0.55,-1.04,-0.16,0.71,0.17,
1.094,0.32,-0.55,-1.04,-0.17,0.76,0.16,
1.097,0.32,-0.55,-1.04,-0.19,0.79,0.17,
1.097,-0.17,-0.08,-0.32,-0.19,0.79,0.17,
1.102,-0.17,-0.08,-0.32,-0.17,0.80,0.17,
1.102,-0.17,-0.08,-0.32,-0.15,0.77,0.18,
1.103,-0.59,0.84,0.83,-0.15,0.77,0.18,
1.104,-0.59,0.84,0.83,-0.13,0.72,0.19,
1.11,-0.59,0.84,0.83,-0.10,0.66,0.19,
1.11,-0.59,0.84,0.83,-0.08,0.57,0.20,
1.11,-1.25,1.54,1.14,-0.08,0.57,0.20,
1.112,-1.25,1.54,1.14,-0.05,0.47,0.22,
1.113,-2.02,1.20,1.64,-0.05,0.47,0.22,
1.115,-2.02,1.20,1.64,-0.03,0.37,0.25,
1.118,-2.02,1.20,1.64,0.01,0.27,0.27,
1.118,-2.31,0.79,2.08,0.01,0.27,0.27,
1.119,-2.31,0.79,2.08,0.04,0.17,0.30,
1.122,-2.31,0.79,2.08,0.06,0.08,0.32,
1.122,-1.51,0.08,1.39,0.06,0.08,0.32,
1.124,-1.51,0.08,1.39,0.06,0.05,0.32,
1.127,-1.51,0.08,1.39,0.06,0.07,0.33,
1.127,-0.61,-0.13,0.03,0.06,0.07,0.33,
1.129,-0.61,-0.13,0.03,0.06,0.10,0.34,
1.132,0.01,0.38,0.35,0.06,0.10,0.34,
1.134,0.01,0.38,0.35,0.07,0.16,0.35,
1.135,0.01,0.38,0.35,0.08,0.22,0.34,
1.137,0.01,0.38,0.35,0.12,0.27,0.32,
1.137,0.08,1.83,1.49,0.12,0.27,0.32,
1.139,0.08,1.83,1.49,0.16,0.33,0.31,
1.141,0.08,1.83,1.49,0.19,0.34,0.34,
1.142,-1.13,1.76,1.29,0.19,0.34,0.34,
1.144,-1.13,1.76,1.29,0.20,0.26,0.39,
1.146,-1.13,1.76,1.29,0.18,0.13,0.44,
1.147,-1.18,-0.08,-0.03,0.18,0.13,0.44,
1.149,-1.18,-0.08,-0.03,0.14,-0.02,0.47,
1.152,-1.18,-0.08,-0.03,0.09,-0.14,0.49,
1.152,-0.87,-1.12,-1.09,0.09,-0.14,0.49,
1.155,-0.87,-1.12,-1.09,0.04,-0.24,0.51,
1.157,-0.87,-1.12,-1.09,0.01,-0.25,0.54,
1.157,-1.29,-1.13,-0.77,0.01,-0.25,0.54,
1.159,-1.29,-1.13,-0.77,-0.02,-0.20,0.60,
1.162,-1.29,-1.13,-0.77,-0.03,-0.15,0.67,
1.162,-2.66,-0.78,-0.09,-0.03,-0.15,0.67,
1.164,-2.66,-0.78,-0.09,-0.04,-0.10,0.73,
1.167,-2.66,-0.78,-0.09,-0.04,-0.08,0.80,
1.168,-2.58,-0.80,0.69,-0.04,-0.08,0.80,
1.171,-2.58,-0.80,0.69,-0.03,-0.08,0.84,
1.172,-1.53,-0.71,1.41,-0.03,-0.08,0.84,
1.172,-1.53,-0.71,1.41,-0.02,-0.09,0.87,
1.174,-1.53,-0.71,1.41,0.01,-0.11,0.88,
1.177,-1.53,-0.71,1.41,0.03,-0.12,0.87,
1.177,-0.56,-0.76,1.47,0.03,-0.12,0.87,
1.18,-0.56,-0.76,1.47,0.06,-0.11,0.85,
1.182,-0.56,-0.76,1.47,0.07,-0.09,0.84,
1.182,-0.20,-0.74,1.05,0.07,-0.09,0.84,
1.195,-0.20,-0.74,1.05,0.09,-0.07,0.83,
1.196,-0.20,-0.74,1.05,0.10,-0.05,0.83,
1.196,-0.23,-0.51,0.69,0.10,-0.05,0.83,
1.196,-0.23,-0.51,0.69,0.10,-0.01,0.83,
1.196,-0.23,-0.51,0.69,0.10,0.03,0.83,
1.196,-0.30,-0.39,0.27,0.10,0.03,0.83,
1.196,-0.16,-0.42,0.25,0.10,0.03,0.83,
1.198,-0.16,-0.42,0.25,0.11,0.08,0.84,
1.198,-0.16,-0.42,0.25,0.12,0.14,0.85,
1.2,-0.16,-0.42,0.25,0.13,0.19,0.84,
1.203,0.35,-0.58,0.02,0.13,0.19,0.84,
1.203,0.35,-0.58,0.02,0.14,0.23,0.84,
1.204,0.35,-0.58,0.02,0.14,0.31,0.82,
1.206,0.75,-0.68,-0.47,0.14,0.31,0.82,
1.206,0.75,-0.68,-0.47,0.14,0.40,0.81,
1.208,0.75,-0.68,-0.47,0.13,0.43,0.82,
1.212,0.75,-0.68,-0.47,0.14,0.40,0.84,
1.212,0.54,-0.30,0.07,0.14,0.40,0.84,
1.214,0.54,-0.30,0.07,0.14,0.35,0.87,
1.221,0.54,-0.30,0.07,0.14,0.31,0.90,
1.222,0.07,0.06,0.03,0.14,0.31,0.90,
1.222,0.07,0.06,0.03,0.14,0.29,0.92,
1.222,0.07,0.06,0.03,0.14,0.26,0.95,
1.225,-0.66,0.59,0.20,0.14,0.26,0.95,
1.225,-0.66,0.59,0.20,0.14,0.25,0.98,
1.226,-0.66,0.59,0.20,0.13,0.24,1.02,
1.226,-0.92,1.01,0.59,0.13,0.24,1.02,
1.228,-0.92,1.01,0.59,0.13,0.23,1.06,
1.231,-0.92,1.01,0.59,0.13,0.25,1.10,
1.232,-0.83,1.15,0.88,0.13,0.25,1.10,
1.242,-0.83,1.15,0.88,0.12,0.29,1.13,
1.242,-0.83,1.15,0.88,0.12,0.36,1.15,
1.242,-0.44,0.87,1.03,0.12,0.36,1.15,
1.243,-0.44,0.87,1.03,0.12,0.45,1.17,
1.243,-0.44,0.87,1.03,0.13,0.54,1.19,
1.243,-0.03,0.48,1.10,0.13,0.54,1.19,
1.244,-0.03,0.48,1.10,0.14,0.62,1.21,
1.246,0.61,-0.10,0.95,0.14,0.62,1.21,
1.246,0.61,-0.10,0.95,0.15,0.71,1.23,
1.249,0.61,-0.10,0.95,0.15,0.80,1.23,
1.254,0.61,-0.10,0.95,0.16,0.88,1.22,
1.254,1.13,-0.69,0.64,0.16,0.88,1.22,
1.254,1.13,-0.69,0.64,0.16,0.94,1.19,
1.257,1.13,-0.69,0.64,0.17,0.99,1.16,
1.258,1.04,-0.96,0.29,0.17,0.99,1.16,
1.264,1.04,-0.96,0.29,0.18,1.04,1.14,
1.264,1.04,-0.96,0.29,0.19,1.08,1.14,
1.265,0.35,-0.97,-0.06,0.19,1.08,1.14,
1.265,0.35,-0.97,-0.06,0.20,1.14,1.14,
1.266,0.35,-0.97,-0.06,0.18,1.21,1.13,
1.267,-0.05,-0.99,-0.63,0.18,1.21,1.13,
1.27,-0.05,-0.99,-0.63,0.17,1.28,1.11,
1.272,-0.05,-0.99,-0.63,0.16,1.35,1.08,
1.272,-0.51,-1.15,-0.98,0.16,1.35,1.08,
1.273,-0.51,-1.15,-0.98,0.13,1.41,1.06,
1.276,-0.51,-1.15,-0.98,0.11,1.46,1.04,
1.276,-1.24,-1.24,-0.78,0.11,1.46,1.04,
1.28,-1.24,-1.24,-0.78,0.09,1.50,1.03,
1.281,-1.24,-1.24,-0.78,0.07,1.52,1.02,
1.282,-1.81,-1.32,-0.31,0.07,1.52,1.02,
1.283,-1.81,-1.32,-0.31,0.06,1.52,1.02,
1.286,-1.81,-1.32,-0.31,0.05,1.51,1.01,
1.286,-2.03,-1.40,0.10,0.05,1.51,1.01,
1.288,-2.03,-1.40,0.10,0.06,1.49,1.01,
1.29,-2.03,-1.40,0.10,0.07,1.45,1.02,
1.291,-2.14,-1.33,0.41,0.07,1.45,1.02,
1.293,-2.14,-1.33,0.41,0.09,1.41,1.03,
1.296,-1.98,-0.97,0.40,0.09,1.41,1.03,
1.296,-1.98,-0.97,0.40,0.10,1.34,1.05,
1.298,-1.98,-0.97,0.40,0.11,1.28,1.07,
1.302,-1.98,-0.97,0.40,0.11,1.23,1.09,
1.302,-1.70,-0.52,0.27,0.11,1.23,1.09,
1.303,-1.70,-0.52,0.27,0.12,1.19,1.10,
1.305,-1.54,-0.06,0.24,0.12,1.19,1.10,
1.306,-1.54,-0.06,0.24,0.13,1.15,1.13,
1.315,-1.11,0.49,0.40,0.13,1.15,1.13,
1.315,-1.11,0.49,0.40,0.13,1.10,1.17,
1.316,-1.11,0.49,0.40,0.14,1.05,1.22,
1.316,-1.11,0.49,0.40,0.14,0.99,1.28,
1.326,-0.21,0.92,0.57,0.14,0.99,1.28,
1.326,-0.21,0.92,0.57,0.14,0.94,1.32,
1.326,-0.21,0.92,0.57,0.16,0.92,1.34,
1.327,0.20,1.13,0.31,0.16,0.92,1.34,
1.327,0.20,1.13,0.31,0.18,0.91,1.35,
1.327,0.20,1.13,0.31,0.18,0.91,1.37,
1.327,0.36,1.19,0.12,0.18,0.91,1.37,
1.327,0.36,1.19,0.12,0.19,0.93,1.39,
1.328,0.36,1.19,0.12,0.19,0.97,1.39,
1.33,0.57,0.80,-0.12,0.19,0.97,1.39,
1.331,0.57,0.80,-0.12,0.20,1.05,1.40,
1.333,0.57,0.80,-0.12,0.20,1.15,1.39,
1.337,0.57,0.80,-0.12,0.19,1.27,1.37,
1.337,0.55,0.01,-0.40,0.19,1.27,1.37,
1.338,0.55,0.01,-0.40,0.18,1.40,1.34,
1.34,0.55,0.01,-0.40,0.17,1.53,1.31,
1.341,0.19,-0.95,-0.22,0.17,1.53,1.31,
1.343,0.19,-0.95,-0.22,0.15,1.64,1.27,
1.345,0.19,-0.95,-0.22,0.15,1.71,1.24,
1.346,-0.37,-1.62,0.45,0.15,1.71,1.24,
1.35,-0.37,-1.62,0.45,0.15,1.75,1.22,
1.362,-0.77,-1.80,1.02,0.15,1.75,1.22,
1.362,-0.77,-1.80,1.02,0.17,1.75,1.21,
1.362,-0.77,-1.80,1.02,0.17,1.72,1.21,
1.363,-0.99,-1.48,1.10,0.17,1.72,1.21,
1.363,-0.99,-1.48,1.10,0.18,1.68,1.22,
1.363,-0.99,-1.48,1.10,0.19,1.63,1.23,
1.363,-1.28,-0.89,1.01,0.19,1.63,1.23,
1.363,-1.28,-0.89,1.01,0.20,1.55,1.25,
1.364,-1.28,-0.89,1.01,0.22,1.46,1.27,
1.372,-1.46,-0.18,1.10,0.22,1.46,1.27,
1.373,-1.28,0.37,0.98,0.22,1.46,1.27,
1.375,-1.28,0.37,0.98,0.24,1.34,1.31,
1.376,-1.28,0.37,0.98,0.27,1.21,1.35,
1.376,-1.28,0.37,0.98,0.31,1.06,1.41,
1.376,-1.28,0.37,0.98,0.34,0.91,1.47,
1.376,-1.28,0.37,0.98,0.34,0.77,1.52,
1.376,-0.69,0.74,0.37,0.34,0.77,1.52,
1.377,-0.69,0.74,0.37,0.34,0.67,1.56,
1.38,-0.69,0.74,0.37,0.32,0.61,1.57,
1.38,-0.19,0.90,-0.47,0.32,0.61,1.57,
1.383,-0.19,0.90,-0.47,0.29,0.59,1.56,
1.385,-0.19,0.90,-0.47,0.28,0.59,1.54,
1.385,-0.61,0.89,-0.74,0.28,0.59,1.54,
1.387,-0.61,0.89,-0.74,0.28,0.60,1.53,
1.39,-1.41,0.55,-0.25,0.28,0.60,1.53,
1.39,-1.41,0.55,-0.25,0.28,0.59,1.53,
1.393,-1.41,0.55,-0.25,0.30,0.58,1.54,
1.395,-1.41,0.55,-0.25,0.31,0.57,1.54,
1.396,-1.70,-0.18,-0.04,0.31,0.57,1.54,
1.398,-1.70,-0.18,-0.04,0.32,0.56,1.53,
1.4,-1.86,-1.01,-0.28,0.32,0.56,1.53,
1.4,-1.86,-1.01,-0.28,0.33,0.57,1.52,
1.403,-1.86,-1.01,-0.28,0.32,0.57,1.54,
1.405,-1.47,-1.74,-0.30,0.32,0.57,1.54,
1.405,-1.47,-1.74,-0.30,0.29,0.59,1.56,
1.41,-0.41,-2.32,0.16,0.29,0.59,1.56,
1.411,-0.41,-2.32,0.16,0.22,0.65,1.56,
1.411,-0.41,-2.32,0.16,0.16,0.75,1.54,
1.413,-0.41,-2.32,0.16,0.11,0.85,1.49,
1.414,-0.41,-2.32,0.16,0.09,0.91,1.43,
1.415,-0.07,-2.42,1.54,0.09,0.91,1.43,
1.421,-0.07,-2.42,1.54,0.09,0.91,1.39,
1.422,-0.07,-2.42,1.54,0.13,0.85,1.36,
1.422,-0.30,-1.81,3.13,0.13,0.85,1.36,
1.423,-0.30,-1.81,3.13,0.19,0.74,1.32,
1.424,-0.30,-1.81,3.13,0.28,0.61,1.26,
1.425,-1.08,-1.16,2.97,0.28,0.61,1.26,
1.427,-1.08,-1.16,2.97,0.38,0.43,1.22,
1.429,-1.08,-1.16,2.97,0.48,0.21,1.20,
1.429,-2.86,-0.60,1.37,0.48,0.21,1.20,
1.431,-2.86,-0.60,1.37,0.55,-0.04,1.21,
1.435,-4.56,-0.03,-0.72,0.55,-0.04,1.21,
1.435,-4.56,-0.03,-0.72,0.57,-0.31,1.27,
1.437,-4.56,-0.03,-0.72,0.53,-0.55,1.34,
1.439,-4.56,-0.03,-0.72,0.45,-0.74,1.42,
1.44,-4.97,0.45,-1.91,0.45,-0.74,1.42,
1.442,-4.97,0.45,-1.91,0.34,-0.89,1.49,
1.445,-4.97,0.45,-1.91,0.24,-1.01,1.55,
1.445,-4.22,0.55,-0.49,0.24,-1.01,1.55,
1.447,-4.22,0.55,-0.49,0.18,-1.14,1.60,
1.449,-4.22,0.55,-0.49,0.16,-1.25,1.63,
1.45,-2.22,0.09,3.09,0.16,-1.25,1.63,
1.452,-2.22,0.09,3.09,0.19,-1.36,1.65,
1.455,-2.22,0.09,3.09,0.26,-1.46,1.65,
1.456,0.38,-0.77,5.66,0.26,-1.46,1.65,
1.457,0.38,-0.77,5.66,0.33,-1.57,1.63,
1.459,0.38,-0.77,5.66,0.41,-1.68,1.60,
1.46,2.37,-1.37,5.10,0.41,-1.68,1.60,
1.462,2.37,-1.37,5.10,0.47,-1.77,1.55,
1.464,2.37,-1.37,5.10,0.51,-1.82,1.51,
1.465,3.03,-1.34,2.25,0.51,-1.82,1.51,
1.468,3.03,-1.34,2.25,0.52,-1.80,1.46,
1.469,3.03,-1.34,2.25,0.50,-1.73,1.41,
1.47,2.80,-0.93,-0.64,0.50,-1.73,1.41,
1.471,2.80,-0.93,-0.64,0.48,-1.61,1.36,
1.474,2.19,-0.39,-1.86,0.48,-1.61,1.36,
1.475,2.19,-0.39,-1.86,0.44,-1.47,1.31,
1.476,2.19,-0.39,-1.86,0.42,-1.33,1.26,
1.479,2.19,-0.39,-1.86,0.40,-1.20,1.23,
1.479,1.66,0.04,-1.18,0.40,-1.20,1.23,
1.487,1.66,0.04,-1.18,0.40,-1.08,1.22,
1.488,1.66,0.04,-1.18,0.41,-0.99,1.20,
1.488,1.66,0.04,-1.18,0.43,-0.92,1.18,
1.49,1.98,0.15,-0.02,0.43,-0.92,1.18,
1.49,3.04,0.13,0.39,0.43,-0.92,1.18,
1.491,3.04,0.13,0.39,0.45,-0.89,1.15,
1.492,3.04,0.13,0.39,0.48,-0.88,1.11,
1.494,3.04,0.13,0.39,0.49,-0.88,1.06,
1.495,3.88,0.11,-0.14,0.49,-0.88,1.06,
1.497,3.88,0.11,-0.14,0.50,-0.89,1.00,
1.505,3.88,0.11,-0.14,0.50,-0.87,0.94,
1.507,4.10,0.02,-0.67,0.50,-0.87,0.94,
1.507,4.10,0.02,-0.67,0.49,-0.83,0.88,
1.508,4.10,0.02,-0.67,0.48,-0.76,0.83,
1.509,3.99,-0.32,-0.46,0.48,-0.76,0.83,
1.51,3.99,-0.32,-0.46,0.48,-0.70,0.78,
1.511,3.76,-0.69,0.34,0.48,-0.70,0.78,
1.511,3.76,-0.69,0.34,0.49,-0.64,0.73,
1.512,3.76,-0.69,0.34,0.50,-0.59,0.68,
1.514,3.76,-0.69,0.34,0.52,-0.55,0.64,
1.532,3.60,-0.85,0.79,0.52,-0.55,0.64,
1.532,3.60,-0.85,0.79,0.53,-0.53,0.59,
1.532,3.60,-0.85,0.79,0.54,-0.51,0.54,
1.533,3.31,-0.69,0.65,0.54,-0.51,0.54,
1.533,3.31,-0.69,0.65,0.55,-0.49,0.49,
1.533,3.31,-0.69,0.65,0.55,-0.47,0.46,
1.533,2.91,-0.35,0.51,0.55,-0.47,0.46,
1.534,2.91,-0.35,0.51,0.56,-0.47,0.42,
1.534,2.66,-0.06,0.78,0.56,-0.47,0.42,
1.534,2.66,-0.06,0.78,0.57,-0.47,0.39,
1.535,2.66,-0.06,0.78,0.58,-0.46,0.36,
1.535,2.58,0.02,0.91,0.58,-0.46,0.36,
1.535,2.58,0.02,0.91,0.60,-0.45,0.32,
1.537,2.58,0.02,0.91,0.61,-0.44,0.29,
1.539,2.58,0.02,0.91,0.63,-0.44,0.25,
1.54,2.35,-0.07,1.05,0.63,-0.44,0.25,
1.541,2.35,-0.07,1.05,0.64,-0.43,0.22,
1.543,2.35,-0.07,1.05,0.66,-0.41,0.18,
1.543,1.78,-0.19,1.15,0.66,-0.41,0.18,
1.546,1.78,-0.19,1.15,0.68,-0.39,0.15,
1.548,1.78,-0.19,1.15,0.69,-0.38,0.14,
1.548,1.02,-0.20,1.20,0.69,-0.38,0.14,
1.551,1.02,-0.20,1.20,0.71,-0.36,0.12,
1.553,1.02,-0.20,1.20,0.73,-0.35,0.11,
1.553,0.39,-0.21,1.23,0.73,-0.35,0.11,
1.556,0.39,-0.21,1.23,0.75,-0.35,0.10,
1.558,-0.14,-0.27,1.11,0.75,-0.35,0.10,
1.558,-0.14,-0.27,1.11,0.76,-0.35,0.10,
1.56,-0.14,-0.27,1.11,0.77,-0.35,0.10,
1.563,-0.14,-0.27,1.11,0.79,-0.36,0.10,
1.563,-0.54,-0.22,0.82,0.79,-0.36,0.10,
1.566,-0.54,-0.22,0.82,0.81,-0.38,0.10,
1.568,-0.54,-0.22,0.82,0.82,-0.39,0.09,
1.569,-0.68,-0.31,0.21,0.82,-0.39,0.09,
1.57,-0.68,-0.31,0.21,0.83,-0.39,0.08,
1.573,-0.68,-0.31,0.21,0.82,-0.38,0.08,
1.573,-0.74,-0.26,-0.71,0.82,-0.38,0.08,
1.576,-0.74,-0.26,-0.71,0.82,-0.35,0.07,
1.579,-0.74,-0.26,-0.71,0.81,-0.30,0.07,
1.579,-0.70,0.00,-1.10,0.81,-0.30,0.07,
1.581,-0.70,0.00,-1.10,0.81,-0.24,0.06,
1.583,-0.43,0.13,-1.03,0.81,-0.24,0.06,
1.584,-0.43,0.13,-1.03,0.80,-0.18,0.06,
1.586,-0.43,0.13,-1.03,0.81,-0.12,0.05,
1.588,-0.43,0.13,-1.03,0.81,-0.06,0.03,
1.588,-0.00,-0.07,-1.06,0.81,-0.06,0.03,
1.59,-0.00,-0.07,-1.06,0.81,-0.01,0.01,
1.593,-0.00,-0.07,-1.06,0.80,0.02,-0.01,
1.593,0.18,-0.25,-1.22,0.80,0.02,-0.01,
1.595,0.18,-0.25,-1.22,0.80,0.04,-0.03,
1.598,0.18,-0.25,-1.22,0.78,0.06,-0.05,
1.598,-0.02,-0.05,-1.35,0.78,0.06,-0.05,
1.602,-0.02,-0.05,-1.35,0.77,0.09,-0.05,
1.603,-0.20,0.06,-1.30,0.77,0.09,-0.05,
1.603,-0.20,0.06,-1.30,0.76,0.12,-0.05,
1.605,-0.20,0.06,-1.30,0.75,0.16,-0.06,
1.608,-0.23,-0.02,-1.25,0.75,0.16,-0.06,
1.608,-0.23,-0.02,-1.25,0.75,0.19,-0.07,
1.61,-0.23,-0.02,-1.25,0.74,0.20,-0.08,
1.613,-0.68,0.01,-1.53,0.74,0.20,-0.08,
1.613,-0.68,0.01,-1.53,0.73,0.20,-0.09,
1.615,-0.68,0.01,-1.53,0.71,0.20,-0.08,
1.622,-0.68,0.01,-1.53,0.69,0.20,-0.07,
1.623,-1.01,0.13,-1.70,0.69,0.20,-0.07,
1.623,-1.01,0.13,-1.70,0.66,0.17,-0.06,
1.624,-1.08,0.24,-1.45,0.66,0.17,-0.06,
1.624,-1.08,0.24,-1.45,0.64,0.14,-0.05,
1.628,-0.93,0.18,-1.26,0.64,0.14,-0.05,
1.645,-0.93,0.18,-1.26,0.62,0.11,-0.03,
1.646,-0.93,0.18,-1.26,0.61,0.09,-0.02,
1.646,-0.93,0.18,-1.26,0.59,0.08,-0.01,
1.647,-0.93,0.18,-1.26,0.57,0.08,0.00,
1.647,-0.69,-0.00,-1.33,0.57,0.08,0.00,
1.647,-0.69,-0.00,-1.33,0.54,0.06,0.01,
1.648,-0.38,0.00,-0.96,0.54,0.06,0.01,
1.648,-0.38,0.00,-0.96,0.51,0.02,0.02,
1.648,-0.38,0.00,-0.96,0.48,-0.03,0.04,
1.649,-0.38,0.00,-0.96,0.46,-0.07,0.06,
1.649,-0.07,0.18,-0.23,0.46,-0.07,0.06,
1.649,-0.07,0.18,-0.23,0.44,-0.10,0.08,
1.65,-0.07,0.18,-0.23,0.42,-0.10,0.10,
1.65,0.48,0.27,0.19,0.42,-0.10,0.10,
1.65,0.48,0.27,0.19,0.42,-0.06,0.10,
1.653,0.48,0.27,0.19,0.43,-0.01,0.09,
1.654,0.97,0.20,0.36,0.43,-0.01,0.09,
1.655,0.97,0.20,0.36,0.44,0.06,0.08,
1.658,0.80,0.09,-0.04,0.44,0.06,0.08,
1.658,0.80,0.09,-0.04,0.45,0.13,0.06,
1.66,0.80,0.09,-0.04,0.45,0.20,0.05,
1.662,0.80,0.09,-0.04,0.44,0.25,0.04,
1.662,0.15,0.19,-0.18,0.44,0.25,0.04,
1.665,0.15,0.19,-0.18,0.43,0.30,0.04,
1.668,0.15,0.19,-0.18,0.44,0.34,0.04,
1.668,-0.45,0.30,0.56,0.44,0.34,0.04,
1.67,-0.45,0.30,0.56,0.45,0.38,0.05,
1.672,-0.87,0.41,1.18,0.45,0.38,0.05,
1.672,-0.87,0.41,1.18,0.47,0.40,0.05,
1.674,-0.87,0.41,1.18,0.49,0.43,0.06,
1.677,-1.24,0.42,0.89,0.49,0.43,0.06,
1.677,-1.24,0.42,0.89,0.50,0.44,0.06,
1.693,-1.24,0.42,0.89,0.51,0.45,0.07,
1.693,-1.47,0.33,0.41,0.51,0.45,0.07,
1.694,-1.47,0.33,0.41,0.51,0.44,0.08,
1.694,-1.47,0.33,0.41,0.51,0.41,0.09,
1.694,-1.47,0.33,0.41,0.51,0.37,0.10,
1.694,-1.38,0.14,0.19,0.51,0.37,0.10,
1.694,-1.38,0.14,0.19,0.51,0.32,0.11,
1.695,-1.38,0.14,0.19,0.51,0.28,0.12,
1.695,-0.89,-0.09,0.23,0.51,0.28,0.12,
1.696,-0.89,-0.09,0.23,0.51,0.26,0.13,
1.697,-0.89,-0.09,0.23,0.51,0.25,0.13,
1.699,-0.28,-0.16,0.17,0.51,0.25,0.13,
1.7,-0.28,-0.16,0.17,0.52,0.25,0.13,
1.702,-0.28,-0.16,0.17,0.52,0.27,0.12,
1.703,0.17,-0.05,-0.14,0.52,0.27,0.12,
1.704,0.17,-0.05,-0.14,0.51,0.28,0.10,
1.708,0.17,-0.05,-0.14,0.51,0.30,0.09,
1.708,0.38,0.11,-0.49,0.51,0.30,0.09,
1.71,0.38,0.11,-0.49,0.51,0.33,0.07,
1.713,0.49,0.20,-0.58,0.51,0.33,0.07,
1.713,0.49,0.20,-0.58,0.50,0.35,0.06,
1.715,0.49,0.20,-0.58,0.50,0.38,0.05,
1.726,0.73,0.16,-0.41,0.50,0.38,0.05,
1.727,0.73,0.16,-0.41,0.50,0.41,0.04,
1.727,0.73,0.16,-0.41,0.50,0.45,0.03,
1.728,0.73,0.16,-0.41,0.50,0.49,0.01,
1.728,1.09,0.01,-0.30,0.50,0.49,0.01,
1.728,1.09,0.01,-0.30,0.50,0.52,-0.01,
1.728,1.09,0.01,-0.30,0.50,0.55,-0.04,
1.728,1.44,-0.09,-0.46,0.50,0.55,-0.04,
1.729,1.44,-0.09,-0.46,0.50,0.59,-0.06,
1.732,1.44,-0.09,-0.46,0.49,0.65,-0.09,
1.732,1.47,0.13,-0.78,0.49,0.65,-0.09,
1.75,1.47,0.13,-0.78,0.49,0.69,-0.11,
1.751,1.47,0.13,-0.78,0.49,0.74,-0.11,
1.751,0.16,0.37,-0.70,0.49,0.74,-0.11,
1.751,0.16,0.37,-0.70,0.48,0.78,-0.10,
1.751,0.16,0.37,-0.70,0.46,0.79,-0.08,
1.751,-0.60,0.34,-0.27,0.46,0.79,-0.08,
1.752,-0.60,0.34,-0.27,0.45,0.78,-0.06,
1.752,-0.60,0.34,-0.27,0.45,0.76,-0.05,
1.752,-0.10,0.48,0.53,0.45,0.76,-0.05,
1.752,-0.10,0.48,0.53,0.45,0.72,-0.04,
1.752,-0.10,0.48,0.53,0.46,0.69,-0.04,
1.752,-0.00,0.37,0.79,0.46,0.69,-0.04,
1.755,-0.00,0.37,0.79,0.46,0.67,-0.05,
1.758,-0.00,0.37,0.79,0.46,0.67,-0.05,
1.759,-0.20,0.53,0.23,0.46,0.67,-0.05,
1.759,-0.20,0.53,0.23,0.45,0.66,-0.05,
1.762,-0.20,0.53,0.23,0.44,0.67,-0.04,
1.763,-0.61,0.96,-0.42,0.44,0.67,-0.04,
1.765,-0.61,0.96,-0.42,0.44,0.70,-0.03,
1.767,-0.61,0.96,-0.42,0.43,0.70,-0.01,
1.768,-0.82,1.44,-0.52,0.43,0.70,-0.01,
1.769,-0.82,1.44,-0.52,0.43,0.69,0.00,
1.772,-0.82,1.44,-0.52,0.43,0.71,0.01,
1.772,-0.94,1.41,-0.63,0.43,0.71,0.01,
1.774,-0.94,1.41,-0.63,0.42,0.73,0.02,
1.777,-0.94,1.41,-0.63,0.41,0.77,0.04,
1.777,-1.75,1.24,-0.94,0.41,0.77,0.04,
1.779,-1.75,1.24,-0.94,0.41,0.82,0.08,
1.781,-1.75,1.24,-0.94,0.40,0.89,0.12,
1.782,-2.64,0.67,-1.26,0.40,0.89,0.12,
1.785,-2.64,0.67,-1.26,0.39,0.93,0.16,
1.787,-2.64,0.67,-1.26,0.38,0.91,0.19,
1.787,-2.16,-0.45,-0.51,0.38,0.91,0.19,
1.789,-2.16,-0.45,-0.51,0.38,0.83,0.20,
1.791,-2.16,-0.45,-0.51,0.37,0.74,0.20,
1.791,-1.54,-1.60,0.15,0.37,0.74,0.20,
1.794,-1.54,-1.60,0.15,0.37,0.68,0.20,
1.796,-1.54,-1.60,0.15,0.35,0.68,0.22,
1.797,-1.82,-1.41,-0.70,0.35,0.68,0.22,
1.799,-1.82,-1.41,-0.70,0.31,0.69,0.24,
1.805,-1.82,-1.41,-0.70,0.29,0.68,0.28,
1.806,-2.22,-0.51,-1.01,0.29,0.68,0.28,
1.807,-2.22,-0.51,-1.01,0.28,0.75,0.35,
1.808,-3.38,2.05,-2.91,0.28,0.75,0.35,
1.808,-3.38,2.05,-2.91,0.28,0.90,0.42,
1.809,-3.38,2.05,-2.91,0.26,1.08,0.49,
1.811,-1.83,3.58,-3.22,0.26,1.08,0.49,
1.812,-1.83,3.58,-3.22,0.26,1.12,0.54,
1.814,-1.83,3.58,-3.22,0.32,1.00,0.57,
1.83,-1.83,3.58,-3.22,0.33,0.90,0.59,
1.831,0.06,2.31,-3.16,0.33,0.90,0.59,
1.831,0.06,2.31,-3.16,0.32,0.99,0.59,
1.832,0.06,2.31,-3.16,0.30,1.07,0.59,
1.832,-0.48,-0.74,-2.48,0.30,1.07,0.59,
1.832,-0.48,-0.74,-2.48,0.28,1.08,0.59,
1.833,-0.48,-0.74,-2.48,0.24,1.10,0.59,
1.833,-1.16,-1.79,-1.51,0.24,1.10,0.59,
1.834,-1.16,-1.79,-1.51,0.23,1.15,0.56,
1.834,-1.16,-1.79,-1.51,0.20,1.08,0.51,
1.834,-0.82,-1.47,-1.01,0.20,1.08,0.51,
1.835,-0.82,-1.47,-1.01,0.18,1.04,0.50,
1.837,-2.40,-0.26,-1.73,0.18,1.04,0.50,
1.838,-2.40,-0.26,-1.73,0.17,1.07,0.53,
1.84,-2.40,-0.26,-1.73,0.15,1.17,0.57,
1.841,-2.40,-0.26,-1.73,0.16,1.20,0.62,
1.841,-2.89,-0.24,-0.06,0.16,1.20,0.62,
1.843,-2.89,-0.24,-0.06,0.17,1.21,0.65,
1.858,-2.89,-0.24,-0.06,0.17,1.17,0.65,
1.858,-2.22,1.16,-1.67,0.17,1.17,0.65,
1.858,-2.22,1.16,-1.67,0.11,1.01,0.64,
1.859,-2.22,1.16,-1.67,0.05,0.94,0.65,
1.859,-3.17,2.56,-2.79,0.05,0.94,0.65,
1.859,-3.17,2.56,-2.79,0.02,0.93,0.68,
1.859,-3.17,2.56,-2.79,0.04,0.93,0.72,
1.86,-3.55,2.44,0.45,0.04,0.93,0.72,
1.86,-3.55,2.44,0.45,0.06,0.90,0.75,
1.861,-3.55,2.44,0.45,0.08,0.85,0.79,
1.863,-3.64,1.42,1.19,0.08,0.85,0.79,
1.864,-3.64,1.42,1.19,0.10,0.83,0.84,
1.866,-3.64,1.42,1.19,0.08,0.82,0.87,
1.866,-3.03,0.60,-0.08,0.08,0.82,0.87,
1.871,-3.03,0.60,-0.08,0.07,0.78,0.89,
1.873,-2.65,0.42,0.08,0.07,0.78,0.89,
1.873,-2.65,0.42,0.08,0.04,0.74,0.91,
1.873,-2.65,0.42,0.08,0.02,0.69,0.94,
1.876,-2.65,0.42,0.08,0.02,0.62,0.98,
1.876,-2.65,0.54,1.42,0.02,0.62,0.98,
1.878,-2.65,0.54,1.42,0.03,0.55,1.02,
1.88,-2.65,0.54,1.42,0.02,0.48,1.05,
1.881,-2.33,0.55,1.63,0.02,0.48,1.05,
1.883,-2.33,0.55,1.63,0.00,0.43,1.08,
1.887,-2.16,0.86,1.12,0.00,0.43,1.08,
1.887,-2.16,0.86,1.12,-0.00,0.39,1.11,
1.888,-2.16,0.86,1.12,-0.01,0.35,1.14,
1.892,-2.16,0.86,1.12,-0.04,0.32,1.14,
1.893,-1.60,1.27,1.01,-0.04,0.32,1.14,
1.893,-1.60,1.27,1.01,-0.05,0.32,1.16,
1.895,-1.60,1.27,1.01,-0.04,0.24,1.18,
1.896,-2.00,1.13,1.82,-0.04,0.24,1.18,
1.898,-2.00,1.13,1.82,-0.04,0.12,1.20,
1.906,-2.00,1.13,1.82,-0.05,0.07,1.21,
1.907,-1.74,1.39,0.48,-0.05,0.07,1.21,
1.907,-1.74,1.39,0.48,-0.07,0.11,1.23,
1.908,-2.18,1.74,-0.89,-0.07,0.11,1.23,
1.908,-2.18,1.74,-0.89,-0.10,0.19,1.27,
1.908,-2.18,1.74,-0.89,-0.12,0.27,1.32,
1.91,-2.18,1.74,-0.89,-0.11,0.32,1.38,
1.911,-2.11,1.56,0.27,-0.11,0.32,1.38,
1.913,-2.11,1.56,0.27,-0.11,0.36,1.43,
1.917,-2.11,1.56,0.27,-0.11,0.38,1.45,
1.918,-1.52,0.87,0.29,-0.11,0.38,1.45,
1.919,-1.52,0.87,0.29,-0.11,0.39,1.48,
1.928,-1.52,0.87,0.29,-0.13,0.40,1.49,
1.928,-1.18,0.47,-0.29,-0.13,0.40,1.49,
1.929,-1.18,0.47,-0.29,-0.14,0.41,1.50,
1.929,-1.18,0.51,-0.47,-0.14,0.41,1.50,
1.929,-1.18,0.51,-0.47,-0.15,0.41,1.51,
1.93,-1.18,0.51,-0.47,-0.16,0.43,1.51,
1.93,-1.18,0.51,-0.47,-0.15,0.45,1.52,
1.93,-1.54,0.69,-0.16,-0.15,0.45,1.52,
1.933,-1.54,0.69,-0.16,-0.13,0.49,1.53,
1.935,-1.54,0.69,-0.16,-0.12,0.54,1.54,
1.939,-1.91,0.85,-0.28,-0.12,0.54,1.54,
1.94,-1.91,0.85,-0.28,-0.11,0.58,1.56,
1.94,-1.91,0.85,-0.28,-0.11,0.61,1.57,
1.94,-1.90,1.11,-0.51,-0.11,0.61,1.57,
1.942,-1.90,1.11,-0.51,-0.12,0.61,1.57,
1.945,-1.90,1.11,-0.51,-0.13,0.58,1.58,
1.945,-1.71,1.51,-0.12,-0.13,0.58,1.58,
1.947,-1.71,1.51,-0.12,-0.14,0.54,1.58,
1.95,-1.71,1.51,-0.12,-0.15,0.50,1.58,
1.951,-1.69,1.86,-0.28,-0.15,0.50,1.58,
1.953,-1.69,1.86,-0.28,-0.15,0.45,1.58,
1.955,-1.69,1.86,-0.28,-0.16,0.41,1.58,
1.955,-1.80,2.05,-1.02,-0.16,0.41,1.58,
1.957,-1.80,2.05,-1.02,-0.19,0.37,1.59,
1.96,-1.80,2.05,-1.02,-0.22,0.33,1.59,
1.96,-2.05,2.18,-1.44,-0.22,0.33,1.59,
1.962,-2.05,2.18,-1.44,-0.24,0.29,1.60,
1.964,-2.05,2.18,-1.44,-0.27,0.25,1.62,
1.965,-1.88,2.39,-0.90,-0.27,0.25,1.62,
1.968,-1.88,2.39,-0.90,-0.28,0.21,1.65,
1.97,-1.88,2.39,-0.90,-0.31,0.19,1.66,
1.97,-1.16,2.73,-0.84,-0.31,0.19,1.66,
1.972,-1.16,2.73,-0.84,-0.34,0.18,1.68,
1.974,-1.16,2.73,-0.84,-0.38,0.18,1.68,
1.975,-0.23,3.26,-0.67,-0.38,0.18,1.68,
1.977,-0.23,3.26,-0.67,-0.40,0.19,1.68,
1.979,-0.23,3.26,-0.67,-0.41,0.22,1.65,
1.98,0.66,3.67,-0.10,-0.41,0.22,1.65,
1.982,0.66,3.67,-0.10,-0.42,0.27,1.61,
1.985,1.16,3.95,0.09,-0.42,0.27,1.61,
1.985,1.16,3.95,0.09,-0.43,0.32,1.57,
1.987,1.16,3.95,0.09,-0.45,0.38,1.52,
1.99,1.19,4.11,0.08,-0.45,0.38,1.52,
1.99,1.19,4.11,0.08,-0.46,0.44,1.47,
1.992,1.19,4.11,0.08,-0.48,0.49,1.42,
1.994,1.19,4.11,0.08,-0.49,0.54,1.37,
1.995,1.10,4.22,0.07,-0.49,0.54,1.37,
1.997,1.10,4.22,0.07,-0.51,0.60,1.32,
1.999,1.10,4.22,0.07,-0.53,0.65,1.26,
2.0,0.91,4.38,0.23,-0.53,0.65,1.26,
2.006,0.91,4.38,0.23,-0.55,0.70,1.19,
2.007,0.49,4.61,0.85,-0.55,0.70,1.19,
2.007,0.49,4.61,0.85,-0.55,0.75,1.14,
2.008,0.49,4.61,0.85,-0.54,0.80,1.08,
2.01,0.03,4.87,1.01,-0.54,0.80,1.08,
2.036,0.03,4.87,1.01,-0.54,0.84,1.03,
2.036,0.03,4.87,1.01,-0.54,0.89,0.98,
2.037,0.03,4.87,1.01,-0.55,0.92,0.92,
2.037,-0.17,5.20,1.20,-0.55,0.92,0.92,
2.037,-0.17,5.20,1.20,-0.56,0.94,0.86,
2.037,-0.17,5.20,1.20,-0.57,0.94,0.79,
2.038,-0.37,5.53,2.12,-0.57,0.94,0.79,
2.038,-0.37,5.53,2.12,-0.57,0.94,0.72,
2.038,-0.37,5.53,2.12,-0.58,0.93,0.65,
2.038,-0.77,5.87,2.76,-0.58,0.93,0.65,
2.039,-0.77,5.87,2.76,-0.59,0.93,0.59,
2.039,-0.77,5.87,2.76,-0.60,0.95,0.53,
2.039,-1.50,6.24,2.18,-0.60,0.95,0.53,
2.039,-1.50,6.24,2.18,-0.62,0.99,0.49,
2.04,-2.37,6.64,0.58,-0.62,0.99,0.49,
2.04,-2.37,6.64,0.58,-0.64,1.06,0.44,
2.04,-2.37,6.64,0.58,-0.66,1.15,0.40,
2.04,-2.37,6.64,0.58,-0.67,1.25,0.35,
2.041,-3.37,7.12,-1.04,-0.67,1.25,0.35,
2.042,-3.37,7.12,-1.04,-0.69,1.33,0.30,
2.044,-3.37,7.12,-1.04,-0.71,1.39,0.25,
2.044,-4.61,7.70,-2.54,-0.71,1.39,0.25,
2.046,-4.61,7.70,-2.54,-0.73,1.44,0.21,
2.049,-4.61,7.70,-2.54,-0.75,1.46,0.17,
2.049,-5.80,8.31,-3.73,-0.75,1.46,0.17,
2.051,-5.80,8.31,-3.73,-0.78,1.49,0.14,
2.054,-6.96,8.79,-4.69,-0.78,1.49,0.14,
2.054,-6.96,8.79,-4.69,-0.80,1.53,0.11,
2.056,-6.96,8.79,-4.69,-0.83,1.57,0.08,
2.059,-8.16,8.92,-5.10,-0.83,1.57,0.08,
2.059,-8.16,8.92,-5.10,-0.85,1.63,0.05,
2.061,-8.16,8.92,-5.10,-0.87,1.69,0.03,
2.064,-8.16,8.92,-5.10,-0.89,1.74,0.02,
2.064,-9.57,8.91,-4.42,-0.89,1.74,0.02,
2.066,-9.57,8.91,-4.42,-0.91,1.77,0.03,
2.069,-9.57,8.91,-4.42,-0.92,1.79,0.05,
2.069,-11.00,8.67,-3.02,-0.92,1.79,0.05,
2.071,-11.00,8.67,-3.02,-0.92,1.79,0.09,
2.074,-11.00,8.67,-3.02,-0.92,1.76,0.15,
2.074,-12.03,8.07,-1.90,-0.92,1.76,0.15,
2.076,-12.03,8.07,-1.90,-0.90,1.73,0.23,
2.078,-12.03,8.07,-1.90,-0.88,1.67,0.32,
2.079,-12.29,7.25,-2.03,-0.88,1.67,0.32,
2.081,-12.29,7.25,-2.03,-0.84,1.59,0.43,
2.084,-12.29,7.25,-2.03,-0.83,1.49,0.54,
2.084,-11.53,6.29,-3.93,-0.83,1.49,0.54,
2.086,-11.53,6.29,-3.93,-0.83,1.37,0.65,
2.089,-11.53,6.29,-3.93,-0.84,1.25,0.76,
2.089,-10.69,5.74,-5.12,-0.84,1.25,0.76,
2.091,-10.69,5.74,-5.12,-0.85,1.13,0.87,
2.094,-10.69,5.74,-5.12,-0.83,1.04,0.98,
2.094,-10.29,5.52,-4.88,-0.83,1.04,0.98,
2.096,-10.29,5.52,-4.88,-0.81,0.96,1.09,
2.098,-10.29,5.52,-4.88,-0.79,0.90,1.21,
2.099,-9.89,5.59,-4.41,-0.79,0.90,1.21,
2.101,-9.89,5.59,-4.41,-0.77,0.86,1.34,
2.104,-9.89,5.59,-4.41,-0.74,0.83,1.49,
2.104,-9.23,5.97,-4.07,-0.74,0.83,1.49,
2.106,-9.23,5.97,-4.07,-0.68,0.80,1.67,
2.108,-7.96,6.88,-4.11,-0.68,0.80,1.67,
2.109,-7.96,6.88,-4.11,-0.65,0.76,1.87,
2.111,-7.96,6.88,-4.11,-0.63,0.70,2.09,
2.113,-5.93,8.14,-4.03,-0.63,0.70,2.09,
2.114,-5.93,8.14,-4.03,-0.61,0.62,2.31,
2.116,-5.93,8.14,-4.03,-0.59,0.51,2.53,
2.123,-5.93,8.14,-4.03,-0.59,0.37,2.75,
2.123,-3.58,9.29,-3.65,-0.59,0.37,2.75,
2.124,-3.58,9.29,-3.65,-0.56,0.25,2.97,
2.124,-3.58,9.29,-3.65,-0.49,0.16,3.15,
2.124,-1.20,9.82,-2.93,-0.49,0.16,3.15,
2.129,0.56,9.66,-3.69,-0.49,0.16,3.15,
2.129,0.56,9.66,-3.69,-0.41,0.11,3.28,
2.13,0.56,9.66,-3.69,-0.35,0.11,3.35,
2.132,0.56,9.66,-3.69,-0.30,0.14,3.36,
2.147,0.44,9.40,-5.41,-0.30,0.14,3.36,
2.147,0.44,9.40,-5.41,-0.27,0.18,3.36,
2.148,0.44,9.40,-5.41,-0.27,0.23,3.38,
2.148,0.44,9.40,-5.41,-0.32,0.30,3.47,
2.148,-1.52,9.89,-7.09,-0.32,0.30,3.47,
2.149,-1.52,9.89,-7.09,-0.38,0.43,3.64,
2.149,-1.52,9.89,-7.09,-0.44,0.65,3.88,
2.149,-2.66,11.24,-7.25,-0.44,0.65,3.88,
2.149,-2.66,11.24,-7.25,-0.51,0.97,4.16,
2.15,-2.66,11.24,-7.25,-0.60,1.39,4.45,
2.15,-1.33,9.95,-5.58,-0.60,1.39,4.45,
2.155,-1.33,9.95,-5.58,-0.67,1.89,4.73,
2.156,-1.33,9.95,-5.58,-0.66,2.46,5.00,
2.156,3.55,9.81,-2.18,-0.66,2.46,5.00,
2.156,3.55,9.81,-2.18,-0.63,3.02,5.29,
2.158,6.76,11.59,0.56,-0.63,3.02,5.29,
2.159,6.76,11.59,0.56,-0.60,3.46,5.60,
2.16,6.76,11.59,0.56,-0.56,3.76,5.85,
2.163,9.53,13.35,0.14,-0.56,3.76,5.85,
2.164,9.53,13.35,0.14,-0.53,4.02,5.97,
2.165,9.53,13.35,0.14,-0.54,4.31,5.91,
2.169,9.53,13.35,0.14,-0.56,4.62,5.70,
2.169,10.73,14.96,-2.43,-0.56,4.62,5.70,
2.17,10.73,14.96,-2.43,-0.62,4.87,5.41,
2.173,9.25,17.65,-3.72,-0.62,4.87,5.41,
2.174,9.25,17.65,-3.72,-0.70,5.03,5.10,
2.188,9.25,17.65,-3.72,-0.79,5.11,4.80,
2.188,9.25,17.65,-3.72,-0.88,5.10,4.53,
2.188,6.89,19.56,-3.74,-0.88,5.10,4.53,
2.189,6.89,19.56,-3.74,-0.97,5.05,4.31,
2.189,6.89,19.56,-3.74,-1.04,5.00,4.12,
2.189,3.95,20.01,-3.03,-1.04,5.00,4.12,
2.189,3.95,20.01,-3.03,-1.11,4.98,3.99,
2.19,3.95,20.01,-3.03,-1.17,5.00,3.90,
2.19,-0.10,18.97,-2.02,-1.17,5.00,3.90,
2.19,-0.10,18.97,-2.02,-1.21,5.06,3.84,
2.193,-0.10,18.97,-2.02,-1.22,5.12,3.80,
2.193,-3.07,17.45,-0.26,-1.22,5.12,3.80,
2.195,-3.07,17.45,-0.26,-1.22,5.17,3.79,
2.198,-3.07,17.45,-0.26,-1.20,5.19,3.79,
2.198,-5.31,15.90,1.24,-1.20,5.19,3.79,
2.2,-5.31,15.90,1.24,-1.18,5.18,3.81,
2.205,-5.31,15.90,1.24,-1.15,5.13,3.85,
2.206,-7.02,14.43,1.89,-1.15,5.13,3.85,
2.206,-7.02,14.43,1.89,-1.13,5.04,3.90,
2.208,-7.02,14.43,1.89,-1.11,4.90,3.94,
2.208,-7.93,13.33,1.90,-1.11,4.90,3.94,
2.21,-7.93,13.33,1.90,-1.09,4.70,3.98,
2.213,-8.08,12.56,1.64,-1.09,4.70,3.98,
2.213,-8.08,12.56,1.64,-1.08,4.46,3.99,
2.215,-8.08,12.56,1.64,-1.08,4.19,3.99,
2.227,-8.08,12.56,1.64,-1.08,3.89,3.98,
2.227,-8.01,11.74,1.34,-1.08,3.89,3.98,
2.228,-8.01,11.74,1.34,-1.08,3.57,3.95,
2.228,-8.01,11.74,1.34,-1.07,3.25,3.91,
2.228,-7.79,11.03,1.35,-1.07,3.25,3.91,
2.229,-7.79,11.03,1.35,-1.06,2.92,3.85,
2.229,-7.79,11.03,1.35,-1.04,2.61,3.79,
2.229,-7.48,10.03,1.36,-1.04,2.61,3.79,
2.23,-7.48,10.03,1.36,-1.02,2.32,3.72,
2.233,-7.48,10.03,1.36,-0.99,2.04,3.65,
2.234,-7.17,8.69,1.27,-0.99,2.04,3.65,
2.235,-7.17,8.69,1.27,-0.95,1.78,3.57,
2.237,-7.17,8.69,1.27,-0.91,1.53,3.48,
2.237,-6.88,7.29,1.25,-0.91,1.53,3.48,
2.239,-6.88,7.29,1.25,-0.87,1.31,3.39,
2.243,-6.88,7.29,1.25,-0.82,1.11,3.31,
2.243,-6.71,5.88,1.24,-0.82,1.11,3.31,
2.244,-6.71,5.88,1.24,-0.76,0.92,3.21,
2.247,-6.71,5.88,1.24,-0.70,0.76,3.12,
2.247,-6.63,4.54,1.08,-0.70,0.76,3.12,
2.249,-6.63,4.54,1.08,-0.64,0.60,3.03,
2.252,-6.51,3.40,0.79,-0.64,0.60,3.03,
2.253,-6.51,3.40,0.79,-0.58,0.45,2.93,
2.254,-6.51,3.40,0.79,-0.52,0.32,2.81,
2.257,-6.29,2.47,0.47,-0.52,0.32,2.81,
2.257,-6.29,2.47,0.47,-0.47,0.19,2.69,
2.259,-6.29,2.47,0.47,-0.41,0.07,2.56,
2.262,-6.29,2.47,0.47,-0.36,-0.04,2.43,
2.262,-6.12,1.79,0.15,-0.36,-0.04,2.43,
2.264,-6.12,1.79,0.15,-0.30,-0.14,2.29,
2.267,-6.18,1.41,-0.17,-0.30,-0.14,2.29,
2.267,-6.18,1.41,-0.17,-0.25,-0.24,2.16,
2.269,-6.18,1.41,-0.17,-0.20,-0.34,2.02,
2.272,-6.18,1.41,-0.17,-0.16,-0.43,1.89,
2.272,-6.36,1.13,-0.42,-0.16,-0.43,1.89,
2.275,-6.36,1.13,-0.42,-0.11,-0.52,1.75,
2.277,-6.36,1.13,-0.42,-0.07,-0.62,1.62,
2.277,-6.54,0.88,-0.58,-0.07,-0.62,1.62,
2.279,-6.54,0.88,-0.58,-0.03,-0.70,1.48,
2.282,-6.54,0.88,-0.58,0.01,-0.78,1.35,
2.282,-6.59,0.57,-0.78,0.01,-0.78,1.35,
2.284,-6.59,0.57,-0.78,0.05,-0.85,1.22,
2.287,-6.59,0.57,-0.78,0.09,-0.92,1.09,
2.287,-6.57,0.17,-0.97,0.09,-0.92,1.09,
2.289,-6.57,0.17,-0.97,0.12,-0.98,0.95,
2.292,-6.57,0.17,-0.97,0.16,-1.04,0.82,
2.292,-6.56,-0.27,-1.09,0.16,-1.04,0.82,
2.294,-6.56,-0.27,-1.09,0.19,-1.09,0.68,
2.297,-6.56,-0.27,-1.09,0.23,-1.14,0.54,
2.298,-6.42,-0.63,-1.16,0.23,-1.14,0.54,
2.299,-6.42,-0.63,-1.16,0.27,-1.19,0.39,
2.303,-6.24,-0.91,-1.22,0.27,-1.19,0.39,
2.303,-6.24,-0.91,-1.22,0.31,-1.23,0.25,
2.307,-6.24,-0.91,-1.22,0.35,-1.26,0.09,
2.307,-6.24,-0.91,-1.22,0.39,-1.27,-0.06,
2.308,-6.14,-1.22,-1.32,0.39,-1.27,-0.06,
2.309,-6.14,-1.22,-1.32,0.43,-1.28,-0.22,
2.312,-6.21,-1.61,-1.50,0.43,-1.28,-0.22,
2.312,-6.21,-1.61,-1.50,0.47,-1.28,-0.38,
2.314,-6.21,-1.61,-1.50,0.51,-1.27,-0.54,
2.317,-6.21,-1.61,-1.50,0.55,-1.27,-0.70,
2.317,-6.43,-2.13,-1.62,0.55,-1.27,-0.70,
2.321,-6.43,-2.13,-1.62,0.59,-1.26,-0.85,
2.321,-6.72,-2.86,-1.71,0.59,-1.26,-0.85,
2.322,-6.72,-2.86,-1.71,0.63,-1.26,-1.00,
2.324,-6.72,-2.86,-1.71,0.67,-1.26,-1.15,
2.326,-6.72,-2.86,-1.71,0.71,-1.25,-1.28,
2.327,-7.03,-3.77,-1.68,0.71,-1.25,-1.28,
2.329,-7.03,-3.77,-1.68,0.75,-1.25,-1.41,
2.331,-7.03,-3.77,-1.68,0.78,-1.26,-1.54,
2.332,-7.06,-4.77,-1.72,0.78,-1.26,-1.54,
2.334,-7.06,-4.77,-1.72,0.81,-1.28,-1.66,
2.336,-7.06,-4.77,-1.72,0.85,-1.30,-1.79,
2.337,-6.86,-5.75,-1.78,0.85,-1.30,-1.79,
2.339,-6.86,-5.75,-1.78,0.87,-1.34,-1.93,
2.357,-6.86,-5.75,-1.78,0.89,-1.37,-2.06,
2.357,-6.52,-6.57,-1.77,0.89,-1.37,-2.06,
2.358,-6.52,-6.57,-1.77,0.92,-1.41,-2.20,
2.358,-6.52,-6.57,-1.77,0.94,-1.45,-2.34,
2.358,-6.26,-7.18,-1.62,0.94,-1.45,-2.34,
2.359,-6.26,-7.18,-1.62,0.96,-1.50,-2.48,
2.359,-6.26,-7.18,-1.62,0.98,-1.53,-2.62,
2.359,-5.99,-7.54,-1.46,0.98,-1.53,-2.62,
2.36,-5.99,-7.54,-1.46,0.99,-1.56,-2.75,
2.36,-5.99,-7.54,-1.46,1.01,-1.58,-2.88,
2.36,-5.60,-7.71,-1.42,1.01,-1.58,-2.88,
2.361,-5.60,-7.71,-1.42,1.03,-1.59,-3.01,
2.362,-5.60,-7.71,-1.42,1.04,-1.58,-3.15,
2.363,-5.29,-7.75,-1.47,1.04,-1.58,-3.15,
2.365,-5.29,-7.75,-1.47,1.06,-1.57,-3.28,
2.366,-5.29,-7.75,-1.47,1.08,-1.54,-3.42,
2.367,-5.08,-7.64,-1.40,1.08,-1.54,-3.42,
2.368,-5.08,-7.64,-1.40,1.09,-1.52,-3.56,
2.372,-5.08,-7.64,-1.40,1.12,-1.49,-3.69,
2.372,-5.08,-7.39,-1.31,1.12,-1.49,-3.69,
2.373,-5.08,-7.39,-1.31,1.14,-1.46,-3.81,
2.377,-5.08,-7.39,-1.31,1.16,-1.43,-3.93,
2.378,-5.09,-7.12,-1.44,1.16,-1.43,-3.93,
2.378,-5.09,-7.12,-1.44,1.18,-1.39,-4.05,
2.382,-5.09,-7.12,-1.44,1.20,-1.35,-4.16,
2.382,-5.11,-6.94,-1.68,1.20,-1.35,-4.16,
2.384,-5.11,-6.94,-1.68,1.22,-1.31,-4.28,
2.387,-5.30,-6.90,-1.91,1.22,-1.31,-4.28,
2.388,-5.30,-6.90,-1.91,1.24,-1.27,-4.40,
2.388,-5.30,-6.90,-1.91,1.26,-1.22,-4.52,
2.391,-5.30,-6.90,-1.91,1.28,-1.18,-4.63,
2.391,-5.49,-7.00,-2.15,1.28,-1.18,-4.63,
2.393,-5.49,-7.00,-2.15,1.29,-1.14,-4.74,
2.396,-5.49,-7.00,-2.15,1.30,-1.10,-4.85,
2.396,-5.76,-7.18,-2.28,1.30,-1.10,-4.85,
2.398,-5.76,-7.18,-2.28,1.32,-1.07,-4.95,
2.404,-5.90,-7.35,-2.21,1.32,-1.07,-4.95,
2.405,-5.90,-7.35,-2.21,1.33,-1.04,-5.04,
2.405,-5.90,-7.35,-2.21,1.35,-1.02,-5.12,
2.408,-5.95,-7.58,-2.07,1.35,-1.02,-5.12,
2.409,-5.95,-7.58,-2.07,1.37,-1.01,-5.20,
2.409,-5.95,-7.58,-2.07,1.39,-1.00,-5.28,
2.411,-5.74,-7.83,-1.88,1.39,-1.00,-5.28,
2.411,-5.74,-7.83,-1.88,1.41,-0.99,-5.35,
2.413,-5.74,-7.83,-1.88,1.42,-0.98,-5.42,
2.416,-5.74,-7.83,-1.88,1.45,-0.97,-5.48,
2.416,-5.48,-8.19,-1.68,1.45,-0.97,-5.48,
2.419,-5.48,-8.19,-1.68,1.46,-0.97,-5.54,
2.421,-5.48,-8.19,-1.68,1.49,-0.96,-5.60,
2.421,-5.06,-8.70,-1.49,1.49,-0.96,-5.60,
2.423,-5.06,-8.70,-1.49,1.50,-0.95,-5.65,
2.426,-5.06,-8.70,-1.49,1.52,-0.93,-5.71,
2.426,-4.68,-9.16,-1.31,1.52,-0.93,-5.71,
2.428,-4.68,-9.16,-1.31,1.54,-0.90,-5.76,
2.43,-4.68,-9.16,-1.31,1.56,-0.86,-5.81,
2.431,-4.22,-9.59,-1.18,1.56,-0.86,-5.81,
2.433,-4.22,-9.59,-1.18,1.58,-0.83,-5.87,
2.436,-4.22,-9.59,-1.18,1.59,-0.80,-5.92,
2.436,-3.96,-9.75,-0.93,1.59,-0.80,-5.92,
2.441,-3.74,-9.67,-0.66,1.59,-0.80,-5.92,
2.441,-3.74,-9.67,-0.66,1.61,-0.77,-5.96,
2.441,-3.74,-9.67,-0.66,1.63,-0.74,-6.00,
2.443,-3.74,-9.67,-0.66,1.65,-0.72,-6.04,
2.445,-3.74,-9.67,-0.66,1.67,-0.70,-6.08,
2.446,-3.57,-9.35,-0.39,1.67,-0.70,-6.08,
2.448,-3.57,-9.35,-0.39,1.69,-0.68,-6.11,
2.45,-3.57,-9.35,-0.39,1.70,-0.68,-6.14,
2.451,-3.34,-9.01,-0.13,1.70,-0.68,-6.14,
2.453,-3.34,-9.01,-0.13,1.72,-0.70,-6.16,
2.456,-3.30,-8.51,0.25,1.72,-0.70,-6.16,
2.456,-3.30,-8.51,0.25,1.73,-0.73,-6.18,
2.458,-3.30,-8.51,0.25,1.75,-0.76,-6.19,
2.46,-3.17,-7.94,0.68,1.75,-0.76,-6.19,
2.461,-3.17,-7.94,0.68,1.76,-0.81,-6.19,
2.463,-3.17,-7.94,0.68,1.78,-0.85,-6.18,
2.466,-2.64,-7.51,1.10,1.78,-0.85,-6.18,
2.466,-2.64,-7.51,1.10,1.80,-0.90,-6.17,
2.469,-2.64,-7.51,1.10,1.81,-0.94,-6.16,
2.471,-1.86,-7.15,1.34,1.81,-0.94,-6.16,
2.471,-1.86,-7.15,1.34,1.83,-1.00,-6.15,
2.473,-1.86,-7.15,1.34,1.85,-1.05,-6.13,
2.475,-1.86,-7.15,1.34,1.86,-1.10,-6.10,
2.476,-0.97,-6.77,1.38,1.86,-1.10,-6.10,
2.478,-0.97,-6.77,1.38,1.88,-1.14,-6.07,
2.48,0.11,-6.32,1.33,1.88,-1.14,-6.07,
2.481,0.11,-6.32,1.33,1.90,-1.17,-6.04,
2.482,0.11,-6.32,1.33,1.91,-1.19,-6.00,
2.487,0.11,-6.32,1.33,1.91,-1.18,-5.94,
2.487,0.54,-6.74,0.77,1.91,-1.18,-5.94,
2.488,0.54,-6.74,0.77,1.90,-1.19,-5.87,
2.49,0.54,-6.74,0.77,1.90,-1.24,-5.80,
2.491,1.40,-6.56,1.24,1.90,-1.24,-5.80,
2.492,1.40,-6.56,1.24,1.90,-1.30,-5.73,
2.495,1.40,-6.56,1.24,1.90,-1.34,-5.68,
2.496,3.07,-6.16,1.12,1.90,-1.34,-5.68,
2.497,3.07,-6.16,1.12,1.89,-1.36,-5.63,
2.5,3.07,-6.16,1.12,1.87,-1.37,-5.57,
2.5,4.61,-5.76,0.97,1.87,-1.37,-5.57,
2.507,4.61,-5.76,0.97,1.86,-1.36,-5.50,
2.508,4.61,-5.76,0.97,1.84,-1.35,-5.42,
2.533,5.76,-5.51,1.18,1.84,-1.35,-5.42,
2.534,6.90,-5.54,1.70,1.84,-1.35,-5.42,
2.534,6.90,-5.54,1.70,1.82,-1.33,-5.32,
2.534,6.90,-5.54,1.70,1.80,-1.30,-5.23,
2.534,7.96,-5.75,2.42,1.80,-1.30,-5.23,
2.535,7.96,-5.75,2.42,1.79,-1.28,-5.13,
2.535,7.96,-5.75,2.42,1.77,-1.25,-5.03,
2.535,7.96,-5.75,2.42,1.76,-1.23,-4.93,
2.536,8.88,-5.87,3.29,1.76,-1.23,-4.93,
2.536,8.88,-5.87,3.29,1.74,-1.22,-4.82,
2.536,8.88,-5.87,3.29,1.73,-1.22,-4.69,
2.536,8.88,-5.87,3.29,1.71,-1.21,-4.57,
2.537,9.92,-5.87,3.91,1.71,-1.21,-4.57,
2.537,9.92,-5.87,3.91,1.69,-1.20,-4.43,
2.537,9.92,-5.87,3.91,1.67,-1.18,-4.29,
2.537,11.10,-5.65,4.20,1.67,-1.18,-4.29,
2.538,11.10,-5.65,4.20,1.64,-1.16,-4.15,
2.538,11.10,-5.65,4.20,1.61,-1.12,-4.01,
2.538,12.33,-5.30,4.26,1.61,-1.12,-4.01,
2.538,12.33,-5.30,4.26,1.57,-1.09,-3.87,
2.543,13.36,-4.75,4.06,1.57,-1.09,-3.87,
2.544,13.36,-4.75,4.06,1.53,-1.06,-3.72,
2.544,13.36,-4.75,4.06,1.48,-1.05,-3.56,
2.545,13.36,-4.75,4.06,1.42,-1.04,-3.40,
2.546,14.10,-3.91,3.91,1.42,-1.04,-3.40,
2.548,14.10,-3.91,3.91,1.36,-1.04,-3.22,
2.55,14.10,-3.91,3.91,1.30,-1.04,-3.03,
2.55,14.70,-2.98,3.99,1.30,-1.04,-3.03,
2.555,14.70,-2.98,3.99,1.24,-1.05,-2.82,
2.556,14.70,-2.98,3.99,1.18,-1.05,-2.61,
2.556,15.34,-2.25,4.35,1.18,-1.05,-2.61,
2.558,15.34,-2.25,4.35,1.11,-1.06,-2.40,
2.56,15.34,-2.25,4.35,1.06,-1.06,-2.18,
2.561,16.09,-1.88,4.88,1.06,-1.06,-2.18,
2.562,16.09,-1.88,4.88,1.00,-1.05,-1.96,
2.564,16.09,-1.88,4.88,0.95,-1.04,-1.74,
2.565,16.85,-1.97,5.33,0.95,-1.04,-1.74,
2.567,16.85,-1.97,5.33,0.90,-1.01,-1.52,
2.569,16.85,-1.97,5.33,0.84,-0.98,-1.30,
2.57,17.63,-2.32,5.40,0.84,-0.98,-1.30,
2.572,17.63,-2.32,5.40,0.79,-0.95,-1.08,
2.574,17.63,-2.32,5.40,0.73,-0.90,-0.86,
2.575,18.31,-2.69,5.12,0.73,-0.90,-0.86,
2.577,18.31,-2.69,5.12,0.67,-0.86,-0.65,
2.579,18.31,-2.69,5.12,0.61,-0.83,-0.43,
2.58,18.77,-2.95,4.74,0.61,-0.83,-0.43,
2.581,18.77,-2.95,4.74,0.55,-0.80,-0.22,
2.584,18.77,-2.95,4.74,0.48,-0.79,-0.01,
2.585,19.20,-3.14,4.49,0.48,-0.79,-0.01,
2.588,19.20,-3.14,4.49,0.41,-0.78,0.19,
2.589,19.20,-3.14,4.49,0.35,-0.77,0.39,
2.59,19.59,-3.40,4.42,0.35,-0.77,0.39,
2.592,19.59,-3.40,4.42,0.29,-0.79,0.57,
2.594,19.59,-3.40,4.42,0.25,-0.83,0.73,
2.594,19.86,-3.84,4.78,0.25,-0.83,0.73,
2.596,19.86,-3.84,4.78,0.21,-0.84,0.86,
2.599,19.86,-3.84,4.78,0.18,-0.82,0.98,
2.6,19.96,-4.74,4.26,0.18,-0.82,0.98,
2.609,19.96,-4.74,4.26,0.15,-0.77,1.08,
2.61,19.96,-4.74,4.26,0.12,-0.71,1.16,
2.61,19.77,-5.97,4.10,0.12,-0.71,1.16,
2.611,19.77,-5.97,4.10,0.11,-0.64,1.24,
2.611,19.46,-7.61,4.01,0.11,-0.64,1.24,
2.611,19.46,-7.61,4.01,0.09,-0.57,1.30,
2.612,19.46,-7.61,4.01,0.09,-0.50,1.35,
2.614,19.46,-7.61,4.01,0.09,-0.45,1.39,
2.615,18.71,-9.25,3.92,0.09,-0.45,1.39,
2.618,18.71,-9.25,3.92,0.10,-0.40,1.41,
2.626,18.71,-9.25,3.92,0.11,-0.31,1.42,
2.626,18.71,-9.25,3.92,0.10,-0.20,1.41,
2.627,17.88,-11.01,3.44,0.10,-0.20,1.41,
2.627,17.88,-11.01,3.44,0.10,-0.05,1.38,
2.628,17.01,-13.02,2.99,0.10,-0.05,1.38,
2.628,17.01,-13.02,2.99,0.09,0.10,1.34,
2.629,15.76,-15.23,3.51,0.09,0.10,1.34,
2.629,15.76,-15.23,3.51,0.08,0.23,1.30,
2.631,15.76,-15.23,3.51,0.07,0.35,1.25,
2.634,15.76,-15.23,3.51,0.15,0.50,1.17,
2.634,14.28,-16.45,4.32,0.15,0.50,1.17,
2.636,14.28,-16.45,4.32,0.39,0.72,0.99,
2.639,10.26,-10.38,-7.36,0.39,0.72,0.99,
2.639,10.26,-10.38,-7.36,0.21,0.87,0.72,
2.641,10.26,-10.38,-7.36,-0.31,0.85,0.52,
2.644,10.26,-10.38,-7.36,-1.04,0.51,0.45,
2.644,3.52,5.11,-17.19,-1.04,0.51,0.45,
2.646,3.52,5.11,-17.19,-1.82,-0.34,0.61,
2.649,3.52,5.11,-17.19,-2.77,-1.64,1.22,
2.649,-6.81,29.83,1.13,-2.77,-1.64,1.22,
2.651,-6.81,29.83,1.13,-3.71,-2.06,1.94,
2.654,5.03,29.76,-10.33,-3.71,-2.06,1.94,
2.655,5.03,29.76,-10.33,-3.89,-0.34,2.40,
2.656,5.03,29.76,-10.33,-3.60,2.72,2.59,
2.659,3.61,29.69,2.19,-3.60,2.72,2.59,
2.659,3.61,29.69,2.19,-3.25,5.49,2.72,
2.661,3.61,29.69,2.19,-2.76,6.86,2.76,
2.664,-4.40,29.64,29.58,-2.76,6.86,2.76,
2.664,-4.40,29.64,29.58,-2.13,6.61,2.79,
2.666,-4.40,29.64,29.58,-1.17,5.29,2.85,
2.669,-4.40,29.64,29.58,-0.17,3.41,2.77,
2.67,-0.59,14.47,29.75,-0.17,3.41,2.77,
2.693,-0.59,14.47,29.75,0.60,1.41,2.50,
2.694,4.15,-3.90,16.32,0.60,1.41,2.50,
2.695,4.15,-3.90,16.32,0.95,-0.42,2.09,
2.695,4.15,-3.90,16.32,0.88,-1.86,1.69,
2.695,4.15,-3.90,16.32,0.66,-2.70,1.48,
2.696,-0.44,-10.68,-4.02,0.66,-2.70,1.48,
2.696,-0.44,-10.68,-4.02,0.26,-3.08,1.42,
2.696,-0.44,-10.68,-4.02,-0.30,-3.37,1.48,
2.696,-2.82,-15.01,-19.40,-0.30,-3.37,1.48,
2.697,-2.82,-15.01,-19.40,-0.70,-3.53,1.61,
2.697,-2.55,-18.91,-15.18,-0.70,-3.53,1.61,
2.697,-2.55,-18.91,-15.18,-1.05,-3.60,1.79,
2.698,-2.55,-18.91,-15.18,-1.41,-3.58,2.00,
2.698,-2.55,-18.91,-15.18,-1.59,-3.33,2.23,
2.698,-0.78,-23.36,-0.84,-1.59,-3.33,2.23,
2.698,-0.78,-23.36,-0.84,-1.62,-2.74,2.41,
2.699,-0.78,-23.36,-0.84,-1.49,-1.79,2.50,
2.699,2.73,-25.45,11.86,-1.49,-1.79,2.50,
2.701,2.73,-25.45,11.86,-1.24,-0.69,2.49,
2.712,2.73,-25.45,11.86,-1.04,0.22,2.35,
2.713,6.22,-19.61,11.48,-1.04,0.22,2.35,
2.713,6.22,-19.61,11.48,-0.88,0.74,2.14,
2.714,6.22,-19.61,11.48,-0.77,0.87,1.91,
2.714,6.12,-7.36,6.75,-0.77,0.87,1.91,
2.715,6.12,-7.36,6.75,-0.72,0.70,1.72,
2.715,6.12,-7.36,6.75,-0.70,0.34,1.60,
2.715,4.92,1.88,2.83,-0.70,0.34,1.60,
2.716,4.92,1.88,2.83,-0.70,-0.06,1.55,
2.735,4.92,1.88,2.83,-0.71,-0.33,1.54,
2.736,6.20,8.35,0.72,-0.71,-0.33,1.54,
2.737,6.20,8.35,0.72,-0.71,-0.41,1.53,
2.737,6.20,8.35,0.72,-0.67,-0.32,1.46,
2.737,8.78,11.16,0.36,-0.67,-0.32,1.46,
2.738,8.78,11.16,0.36,-0.61,-0.18,1.35,
2.738,8.78,11.16,0.36,-0.55,-0.08,1.19,
2.738,7.60,8.65,1.44,-0.55,-0.08,1.19,
2.739,7.60,8.65,1.44,-0.48,-0.05,1.04,
2.739,7.60,8.65,1.44,-0.41,-0.01,0.94,
2.74,3.90,2.52,2.08,-0.41,-0.01,0.94,
2.74,3.90,2.52,2.08,-0.35,0.05,0.88,
2.74,0.41,-1.87,2.44,-0.35,0.05,0.88,
2.74,0.41,-1.87,2.44,-0.30,0.10,0.85,
2.741,0.41,-1.87,2.44,-0.27,0.12,0.84,
2.743,0.41,-1.87,2.44,-0.24,0.10,0.84,
2.743,-1.50,-2.80,2.62,-0.24,0.10,0.84,
2.747,-1.50,-2.80,2.62,-0.21,0.06,0.85,
2.749,-1.50,-2.80,2.62,-0.18,-0.01,0.86,
2.749,-1.98,-1.67,2.17,-0.18,-0.01,0.86,
2.751,-1.98,-1.67,2.17,-0.16,-0.10,0.88,
2.753,-1.51,-0.36,1.88,-0.16,-0.10,0.88,
2.753,-1.51,-0.36,1.88,-0.14,-0.16,0.91,
2.755,-1.51,-0.36,1.88,-0.12,-0.18,0.92,
2.758,-0.59,0.09,1.81,-0.12,-0.18,0.92,
2.758,-0.59,0.09,1.81,-0.09,-0.17,0.92,
2.761,-0.59,0.09,1.81,-0.05,-0.15,0.93,
2.763,-0.59,0.09,1.81,-0.02,-0.13,0.93,
2.763,0.34,-0.15,1.65,-0.02,-0.13,0.93,
2.765,0.34,-0.15,1.65,0.00,-0.10,0.92,
2.768,0.34,-0.15,1.65,0.03,-0.07,0.90,
2.768,1.07,-0.65,1.58,0.03,-0.07,0.90,
2.771,1.07,-0.65,1.58,0.06,-0.05,0.87,
2.773,1.07,-0.65,1.58,0.08,-0.03,0.83,
2.773,1.53,-1.13,1.96,0.08,-0.03,0.83,
2.775,1.53,-1.13,1.96,0.12,-0.02,0.79,
2.778,1.53,-1.13,1.96,0.15,-0.02,0.75,
2.778,1.89,-1.24,1.99,0.15,-0.02,0.75,
2.78,1.89,-1.24,1.99,0.17,0.00,0.71,
2.782,1.89,-1.24,1.99,0.19,0.04,0.66,
2.783,2.30,-1.00,1.50,0.19,0.04,0.66,
2.785,2.30,-1.00,1.50,0.21,0.08,0.61,
2.789,2.30,-1.00,1.50,0.22,0.12,0.56,
2.789,2.55,-0.45,0.97,0.22,0.12,0.56,
2.79,2.55,-0.45,0.97,0.23,0.16,0.51,
2.792,2.55,-0.45,0.97,0.25,0.21,0.46,
2.793,2.46,0.04,0.49,0.25,0.21,0.46,
2.795,2.46,0.04,0.49,0.26,0.25,0.42,
2.798,2.46,0.04,0.49,0.27,0.28,0.38,
2.798,2.02,0.41,0.19,0.27,0.28,0.38,
2.8,2.02,0.41,0.19,0.28,0.30,0.34,
2.803,1.28,0.47,0.10,0.28,0.30,0.34,
2.803,1.28,0.47,0.10,0.28,0.31,0.31,
2.805,1.28,0.47,0.10,0.29,0.32,0.29,
2.807,1.28,0.47,0.10,0.29,0.31,0.27,
2.808,0.55,0.42,0.22,0.29,0.31,0.27,
2.81,0.55,0.42,0.22,0.30,0.29,0.25,
2.813,0.55,0.42,0.22,0.31,0.27,0.25,
2.813,-0.04,0.35,0.24,0.31,0.27,0.25,
2.814,-0.04,0.35,0.24,0.31,0.25,0.24,
2.818,-0.04,0.35,0.24,0.32,0.23,0.23,
2.818,-0.45,0.33,-0.02,0.32,0.23,0.23,
2.825,-0.45,0.33,-0.02,0.31,0.22,0.23,
2.826,-0.62,0.40,-0.30,0.31,0.22,0.23,
2.827,-0.62,0.40,-0.30,0.31,0.19,0.22,
2.828,-0.62,0.40,-0.30,0.30,0.17,0.23,
2.829,-0.62,0.40,-0.30,0.29,0.15,0.24,
2.829,-0.53,0.42,-0.55,0.29,0.15,0.24,
2.83,-0.53,0.42,-0.55,0.27,0.12,0.25,
2.832,-0.53,0.42,-0.55,0.25,0.10,0.25,
2.833,-0.07,0.28,-0.56,0.25,0.10,0.25,
2.85,-0.07,0.28,-0.56,0.24,0.07,0.25,
2.873,-0.07,0.28,-0.56,0.23,0.05,0.24,
2.873,0.29,0.06,-0.34,0.23,0.05,0.24,
2.873,0.29,0.06,-0.34,0.22,0.03,0.23,
2.874,0.57,-0.04,-0.13,0.22,0.03,0.23,
2.874,0.57,-0.04,-0.13,0.22,0.01,0.20,
2.874,0.57,-0.04,-0.13,0.22,-0.03,0.17,
2.875,0.82,-0.56,0.07,0.22,-0.03,0.17,
2.875,0.82,-0.56,0.07,0.23,-0.10,0.13,
2.875,0.82,-0.56,0.07,0.22,-0.16,0.09,
2.875,0.67,0.05,-0.96,0.22,-0.16,0.09,
2.876,0.67,0.05,-0.96,0.22,-0.17,0.07,
2.876,0.67,0.05,-0.96,0.20,-0.12,0.06,
2.876,0.10,1.06,-1.61,0.20,-0.12,0.06,
2.877,0.10,1.06,-1.61,0.18,-0.08,0.06,
2.877,0.10,1.06,-1.61,0.15,-0.05,0.07,
2.877,0.10,1.06,-1.61,0.13,-0.04,0.07,
2.877,-0.27,1.05,-1.33,0.13,-0.04,0.07,
2.878,-0.27,1.05,-1.33,0.12,-0.03,0.08,
2.878,0.01,0.34,-0.62,0.12,-0.03,0.08,
2.878,0.01,0.34,-0.62,0.11,-0.03,0.07,
2.878,0.01,0.34,-0.62,0.11,-0.02,0.05,
2.879,0.64,-0.40,-0.25,0.11,-0.02,0.05,
2.879,0.64,-0.40,-0.25,0.11,-0.02,0.03,
2.879,0.64,-0.40,-0.25,0.11,-0.03,-0.01,
2.88,0.64,-0.40,-0.25,0.11,-0.03,-0.04,
2.88,0.65,0.02,-0.01,0.11,-0.03,-0.04,
2.88,0.65,0.02,-0.01,0.11,-0.01,-0.05,
2.883,0.65,0.02,-0.01,0.12,0.02,-0.07,
2.883,0.22,0.68,0.27,0.12,0.02,-0.07,
2.884,0.22,0.68,0.27,0.13,0.06,-0.07,
2.889,0.22,0.68,0.27,0.14,0.10,-0.07,
2.89,-0.18,0.75,0.55,0.14,0.10,-0.07,
2.89,-0.18,0.75,0.55,0.15,0.12,-0.07,
2.892,-0.18,0.75,0.55,0.17,0.13,-0.07,
2.893,-0.32,0.44,0.85,0.17,0.13,-0.07,
2.895,-0.32,0.44,0.85,0.18,0.13,-0.07,
2.897,-0.32,0.44,0.85,0.20,0.13,-0.07,
2.897,-0.49,0.25,1.03,0.20,0.13,-0.07,
2.899,-0.49,0.25,1.03,0.22,0.13,-0.08,
2.901,-0.49,0.25,1.03,0.24,0.13,-0.08,
2.902,-0.73,0.28,0.99,0.24,0.13,-0.08,
2.909,-0.73,0.28,0.99,0.26,0.15,-0.08,
2.909,-0.97,0.39,0.68,0.26,0.15,-0.08,
2.91,-0.97,0.39,0.68,0.27,0.16,-0.08,
2.91,-0.97,0.39,0.68,0.28,0.18,-0.07,
2.916,-1.24,0.70,0.42,0.28,0.18,-0.07,
2.916,-1.24,0.70,0.42,0.28,0.20,-0.06,
2.917,-1.24,0.70,0.42,0.29,0.23,-0.04,
2.917,-1.34,1.06,0.31,0.29,0.23,-0.04,
2.917,-1.34,1.06,0.31,0.30,0.26,-0.03,
2.928,-1.34,1.06,0.31,0.30,0.28,-0.02,
2.929,-1.32,1.31,0.24,0.30,0.28,-0.02,
2.929,-1.32,1.31,0.24,0.31,0.31,-0.00,
2.93,-1.32,1.31,0.24,0.32,0.33,0.01,
2.93,-1.32,1.31,0.24,0.32,0.36,0.02,
2.931,-1.22,1.43,-0.32,0.32,0.36,0.02,
2.931,-1.22,1.43,-0.32,0.31,0.41,0.03,
2.931,-1.22,1.43,-0.32,0.30,0.45,0.04,
2.932,-1.13,1.56,-1.03,0.30,0.45,0.04,
2.934,-1.13,1.56,-1.03,0.28,0.49,0.05,
2.936,-0.96,1.67,-0.97,0.28,0.49,0.05,
2.937,-0.96,1.67,-0.97,0.27,0.52,0.06,
2.939,-0.96,1.67,-0.97,0.26,0.55,0.07,
2.941,-0.96,1.67,-0.97,0.25,0.58,0.08,
2.941,-0.88,1.73,-0.96,0.25,0.58,0.08,
2.943,-0.88,1.73,-0.96,0.25,0.61,0.08,
2.948,-0.88,1.73,-0.96,0.24,0.64,0.09,
2.948,-1.08,1.70,-1.11,0.24,0.64,0.09,
2.949,-1.08,1.70,-1.11,0.22,0.66,0.09,
2.951,-1.08,1.70,-1.11,0.21,0.68,0.10,
2.951,-1.52,1.57,-1.43,0.21,0.68,0.10,
2.955,-1.52,1.57,-1.43,0.19,0.69,0.12,
2.956,-2.13,1.47,-1.91,0.19,0.69,0.12,
2.956,-2.13,1.47,-1.91,0.17,0.69,0.14,
2.958,-2.13,1.47,-1.91,0.15,0.69,0.17,
2.962,-2.61,1.25,-2.25,0.15,0.69,0.17,
2.962,-2.61,1.25,-2.25,0.13,0.69,0.20,
2.963,-2.61,1.25,-2.25,0.10,0.69,0.24,
2.966,-2.61,1.25,-2.25,0.08,0.68,0.29,
2.966,-2.88,1.11,-1.94,0.08,0.68,0.29,
2.968,-2.88,1.11,-1.94,0.06,0.67,0.33,
2.971,-2.54,0.18,-1.40,0.06,0.67,0.33,
2.971,-2.54,0.18,-1.40,0.04,0.66,0.35,
2.974,-2.54,0.18,-1.40,0.02,0.64,0.36,
2.976,-2.54,0.18,-1.40,0.01,0.58,0.37,
2.977,-2.32,-0.23,-0.55,0.01,0.58,0.37,
2.978,-2.32,-0.23,-0.55,0.00,0.54,0.42,
2.981,-2.32,-0.23,-0.55,-0.01,0.52,0.48,
2.981,-2.47,1.15,-0.86,-0.01,0.52,0.48,
2.983,-2.47,1.15,-0.86,-0.03,0.53,0.54,
2.986,-2.12,2.20,-1.24,-0.03,0.53,0.54,
2.987,-2.12,2.20,-1.24,-0.06,0.55,0.60,
2.989,-2.12,2.20,-1.24,-0.09,0.54,0.64,
2.991,-2.12,2.20,-1.24,-0.11,0.53,0.67,
2.991,-1.61,2.96,-0.83,-0.11,0.53,0.67,
2.993,-1.61,2.96,-0.83,-0.12,0.53,0.70,
2.996,-1.61,2.96,-0.83,-0.13,0.54,0.72,
2.996,-1.27,3.49,-0.08,-0.13,0.54,0.72,
2.998,-1.27,3.49,-0.08,-0.12,0.54,0.73,
3.001,-1.27,3.49,-0.08,-0.11,0.54,0.75,
3.023,-1.22,3.42,0.05,-0.11,0.54,0.75,
3.023,-1.22,3.42,0.05,-0.11,0.55,0.76,
3.023,-1.22,3.42,0.05,-0.11,0.55,0.77,
3.024,-1.58,3.10,-0.79,-0.11,0.55,0.77,
3.024,-1.58,3.10,-0.79,-0.11,0.58,0.79,
3.024,-2.21,3.25,-2.74,-0.11,0.58,0.79,
3.024,-2.21,3.25,-2.74,-0.13,0.68,0.80,
3.025,-2.21,3.25,-2.74,-0.19,0.84,0.84,
3.025,-2.21,3.25,-2.74,-0.25,0.98,0.89,
3.025,-3.41,4.58,-3.52,-0.25,0.98,0.89,
3.026,-3.41,4.58,-3.52,-0.29,1.06,0.95,
3.026,-3.41,4.58,-3.52,-0.32,1.08,1.00,
3.026,-3.84,5.84,-1.98,-0.32,1.08,1.00,
3.026,-3.84,5.84,-1.98,-0.33,1.06,1.06,
3.027,-3.84,5.84,-1.98,-0.32,1.00,1.10,
3.027,-4.43,5.49,-0.26,-0.32,1.00,1.10,
3.034,-4.43,5.49,-0.26,-0.31,0.88,1.13,
3.035,-4.43,5.49,-0.26,-0.30,0.77,1.17,
3.036,-5.69,3.73,0.28,-0.30,0.77,1.17,
3.036,-5.69,3.73,0.28,-0.29,0.67,1.22,
3.036,-5.69,3.73,0.28,-0.30,0.63,1.30,
3.036,-6.94,1.73,-0.55,-0.30,0.63,1.30,
3.057,-6.94,1.73,-0.55,-0.34,0.61,1.40,
3.058,-6.94,1.73,-0.55,-0.37,0.61,1.50,
3.059,-6.80,0.30,-0.91,-0.37,0.61,1.50,
3.059,-6.80,0.30,-0.91,-0.42,0.60,1.59,
3.059,-5.42,0.31,-0.80,-0.42,0.60,1.59,
3.059,-5.42,0.31,-0.80,-0.47,0.58,1.66,
3.06,-5.42,0.31,-0.80,-0.50,0.53,1.71,
3.06,-5.42,0.31,-0.80,-0.53,0.46,1.75,
3.061,-3.81,0.84,0.07,-0.53,0.46,1.75,
3.061,-3.81,0.84,0.07,-0.55,0.41,1.79,
3.061,-3.81,0.84,0.07,-0.55,0.38,1.82,
3.061,-3.06,1.92,-0.30,-0.55,0.38,1.82,
3.062,-3.06,1.92,-0.30,-0.57,0.35,1.86,
3.062,-2.91,1.36,-0.32,-0.57,0.35,1.86,
3.062,-2.91,1.36,-0.32,-0.58,0.34,1.91,
3.063,-2.91,1.36,-0.32,-0.57,0.36,1.95,
3.066,-0.99,-0.89,2.27,-0.57,0.36,1.95,
3.067,-0.99,-0.89,2.27,-0.53,0.42,1.98,
3.069,-0.99,-0.89,2.27,-0.52,0.35,1.96,
3.07,-0.99,-0.89,2.27,-0.59,0.36,1.95,
3.071,-0.58,0.81,-2.76,-0.59,0.36,1.95,
3.073,-0.58,0.81,-2.76,-0.68,0.43,1.96,
3.075,-0.58,0.81,-2.76,-0.75,0.40,1.98,
3.075,-0.88,1.93,-0.91,-0.75,0.40,1.98,
3.077,-0.88,1.93,-0.91,-0.77,0.25,1.99,
3.08,-0.88,1.93,-0.91,-0.74,0.10,1.97,
3.08,-0.09,1.75,2.87,-0.74,0.10,1.97,
3.082,-0.09,1.75,2.87,-0.71,0.06,1.94,
3.085,-0.09,1.75,2.87,-0.68,0.12,1.89,
3.087,0.48,1.22,2.01,-0.68,0.12,1.89,
3.088,0.48,1.22,2.01,-0.68,0.15,1.87,
3.09,0.48,1.22,2.01,-0.68,0.15,1.84,
3.091,0.82,0.21,1.46,-0.68,0.15,1.84,
3.092,0.82,0.21,1.46,-0.68,0.15,1.81,
3.095,0.82,0.21,1.46,-0.68,0.14,1.78,
3.095,0.51,-0.56,1.64,-0.68,0.14,1.78,
3.099,0.51,-0.56,1.64,-0.69,0.12,1.76,
3.101,0.39,-0.94,1.90,-0.69,0.12,1.76,
3.101,0.39,-0.94,1.90,-0.68,0.11,1.73,
3.103,0.39,-0.94,1.90,-0.67,0.13,1.68,
3.105,0.39,-0.94,1.90,-0.67,0.16,1.64,
3.105,0.28,-0.79,1.31,-0.67,0.16,1.64,
3.108,0.28,-0.79,1.31,-0.68,0.18,1.61,
3.11,0.33,-0.12,1.06,-0.68,0.18,1.61,
3.11,0.33,-0.12,1.06,-0.68,0.16,1.57,
3.112,0.33,-0.12,1.06,-0.68,0.11,1.55,
3.115,0.33,-0.12,1.06,-0.67,0.09,1.52,
3.116,0.26,0.50,1.59,-0.67,0.09,1.52,
3.117,0.26,0.50,1.59,-0.65,0.09,1.48,
3.125,0.26,0.50,1.59,-0.63,0.03,1.43,
3.126,0.29,0.76,2.02,-0.63,0.03,1.43,
3.126,0.29,0.76,2.02,-0.61,-0.06,1.37,
3.126,0.29,0.76,2.02,-0.61,-0.13,1.30,
3.127,1.02,1.06,0.99,-0.61,-0.13,1.30,
3.127,1.02,1.06,0.99,-0.63,-0.19,1.24,
3.13,1.02,1.06,0.99,-0.65,-0.25,1.19,
3.13,1.91,1.23,0.93,-0.65,-0.25,1.19,
3.132,1.91,1.23,0.93,-0.65,-0.31,1.14,
3.136,1.91,1.23,0.93,-0.64,-0.38,1.06,
3.137,3.69,0.66,2.59,-0.64,-0.38,1.06,
3.149,3.69,0.66,2.59,-0.61,-0.44,0.96,
3.15,3.69,0.66,2.59,-0.57,-0.47,0.83,
3.15,5.39,-0.09,3.40,-0.57,-0.47,0.83,
3.151,5.39,-0.09,3.40,-0.54,-0.46,0.69,
3.151,5.39,-0.09,3.40,-0.53,-0.42,0.54,
3.152,6.38,-0.37,2.64,-0.53,-0.42,0.54,
3.152,6.38,-0.37,2.64,-0.54,-0.37,0.39,
3.153,6.38,-0.37,2.64,-0.54,-0.30,0.25,
3.153,6.99,-0.03,2.12,-0.54,-0.30,0.25,
3.154,6.99,-0.03,2.12,-0.55,-0.22,0.10,
3.156,6.99,-0.03,2.12,-0.56,-0.12,-0.03,
3.157,7.31,0.65,1.85,-0.56,-0.12,-0.03,
3.157,7.31,0.65,1.85,-0.57,-0.00,-0.17,
3.159,7.31,0.65,1.85,-0.57,0.14,-0.29,
3.16,6.64,1.63,1.15,-0.57,0.14,-0.29,
3.162,6.64,1.63,1.15,-0.57,0.30,-0.41,
3.164,6.64,1.63,1.15,-0.57,0.48,-0.52,
3.165,5.06,2.82,0.39,-0.57,0.48,-0.52,
3.183,5.06,2.82,0.39,-0.56,0.65,-0.61,
3.184,5.06,2.82,0.39,-0.55,0.80,-0.70,
3.184,3.22,4.19,-0.17,-0.55,0.80,-0.70,
3.184,3.22,4.19,-0.17,-0.54,0.93,-0.77,
3.184,3.22,4.19,-0.17,-0.53,1.03,-0.85,
3.184,1.44,5.68,-0.97,-0.53,1.03,-0.85,
3.184,1.44,5.68,-0.97,-0.54,1.11,-0.91,
3.185,1.44,5.68,-0.97,-0.54,1.18,-0.97,
3.185,-0.32,7.41,-2.19,-0.54,1.18,-0.97,
3.185,-0.32,7.41,-2.19,-0.55,1.24,-1.02,
3.185,-0.32,7.41,-2.19,-0.56,1.30,-1.08,
3.186,-1.58,8.99,-3.28,-0.56,1.30,-1.08,
3.188,-1.58,8.99,-3.28,-0.57,1.38,-1.16,
3.191,-1.58,8.99,-3.28,-0.59,1.47,-1.23,
3.191,-2.82,10.19,-4.56,-0.59,1.47,-1.23,
3.192,-2.82,10.19,-4.56,-0.60,1.58,-1.31,
3.194,-4.66,11.18,-5.57,-0.60,1.58,-1.31,
3.195,-4.66,11.18,-5.57,-0.61,1.68,-1.37,
3.197,-4.66,11.18,-5.57,-0.61,1.78,-1.43,
3.199,-4.66,11.18,-5.57,-0.62,1.86,-1.47,
3.199,-6.70,11.76,-6.40,-0.62,1.86,-1.47,
3.202,-6.70,11.76,-6.40,-0.64,1.92,-1.51,
3.208,-6.70,11.76,-6.40,-0.66,1.95,-1.54,
3.208,-8.47,11.49,-7.00,-0.66,1.95,-1.54,
3.208,-8.47,11.49,-7.00,-0.70,1.96,-1.55,
3.21,-8.47,11.49,-7.00,-0.74,1.92,-1.54,
3.211,-10.35,11.14,-5.79,-0.74,1.92,-1.54,
3.211,-10.35,11.14,-5.79,-0.80,1.87,-1.50,
3.214,-10.35,11.14,-5.79,-0.84,1.79,-1.44,
3.214,-12.17,10.66,-3.00,-0.84,1.79,-1.44,
3.216,-12.17,10.66,-3.00,-0.87,1.70,-1.37,
3.226,-12.17,10.66,-3.00,-0.90,1.60,-1.30,
3.227,-13.28,9.81,-1.57,-0.90,1.60,-1.30,
3.227,-13.28,9.81,-1.57,-0.91,1.52,-1.24,
3.227,-13.28,9.81,-1.57,-0.90,1.45,-1.18,
3.227,-13.84,9.05,-2.63,-0.90,1.45,-1.18,
3.228,-13.84,9.05,-2.63,-0.89,1.39,-1.11,
3.228,-13.84,9.05,-2.63,-0.88,1.30,-1.01,
3.229,-14.48,8.82,-4.87,-0.88,1.30,-1.01,
3.231,-14.48,8.82,-4.87,-0.87,1.18,-0.89,
3.233,-14.48,8.82,-4.87,-0.85,1.03,-0.72,
3.234,-15.41,8.89,-6.42,-0.85,1.03,-0.72,
3.237,-15.41,8.89,-6.42,-0.84,0.83,-0.52,
3.239,-15.41,8.89,-6.42,-0.85,0.61,-0.28,
3.24,-16.76,9.15,-6.26,-0.85,0.61,-0.28,
3.242,-16.76,9.15,-6.26,-0.85,0.37,0.02,
3.243,-16.76,9.15,-6.26,-0.85,0.17,0.35,
3.243,-17.72,8.74,-4.86,-0.85,0.17,0.35,
3.247,-17.72,8.74,-4.86,-0.86,0.03,0.72,
3.249,-17.72,8.74,-4.86,-0.85,-0.06,1.09,
3.249,-15.63,7.82,-4.17,-0.85,-0.06,1.09,
3.251,-15.63,7.82,-4.17,-0.83,-0.14,1.45,
3.254,-11.46,7.88,-4.63,-0.83,-0.14,1.45,
3.254,-11.46,7.88,-4.63,-0.83,-0.27,1.79,
3.256,-11.46,7.88,-4.63,-0.86,-0.45,2.12,
3.259,-7.40,8.90,-5.40,-0.86,-0.45,2.12,
3.259,-7.40,8.90,-5.40,-0.93,-0.67,2.43,
3.261,-7.40,8.90,-5.40,-1.02,-0.89,2.73,
3.263,-3.44,9.72,-4.57,-1.02,-0.89,2.73,
3.264,-3.44,9.72,-4.57,-1.07,-1.07,3.02,
3.265,-3.44,9.72,-4.57,-1.06,-1.19,3.26,
3.268,-3.44,9.72,-4.57,-1.02,-1.25,3.43,
3.268,0.39,9.11,-4.62,-1.02,-1.25,3.43,
3.271,0.39,9.11,-4.62,-0.98,-1.26,3.51,
3.273,2.40,8.27,-6.78,-0.98,-1.26,3.51,
3.273,2.40,8.27,-6.78,-0.97,-1.21,3.52,
3.276,2.40,8.27,-6.78,-1.00,-1.12,3.50,
3.278,2.40,8.27,-6.78,-1.07,-1.01,3.49,
3.278,2.20,8.62,-9.63,-1.07,-1.01,3.49,
3.281,2.20,8.62,-9.63,-1.18,-0.87,3.52,
3.283,0.84,10.99,-10.26,-1.18,-0.87,3.52,
3.283,0.84,10.99,-10.26,-1.33,-0.72,3.61,
3.286,0.84,10.99,-10.26,-1.47,-0.53,3.76,
3.289,0.20,13.78,-7.77,-1.47,-0.53,3.76,
3.289,0.20,13.78,-7.77,-1.60,-0.28,3.95,
3.29,0.20,13.78,-7.77,-1.66,-0.00,4.17,
3.293,1.32,12.24,-2.27,-1.66,-0.00,4.17,
3.294,1.32,12.24,-2.27,-1.64,0.22,4.40,
3.295,1.32,12.24,-2.27,-1.61,0.29,4.63,
3.298,4.03,9.09,1.97,-1.61,0.29,4.63,
3.298,4.03,9.09,1.97,-1.55,0.24,4.80,
3.3,4.03,9.09,1.97,-1.47,0.18,4.88,
3.306,5.48,10.38,0.59,-1.47,0.18,4.88,
3.307,5.48,10.38,0.59,-1.39,0.19,4.88,
3.307,5.48,10.38,0.59,-1.34,0.32,4.83,
3.308,3.50,13.77,-4.46,-1.34,0.32,4.83,
3.309,3.50,13.77,-4.46,-1.34,0.57,4.77,
3.311,3.50,13.77,-4.46,-1.40,0.87,4.70,
3.314,1.33,17.57,-8.26,-1.40,0.87,4.70,
3.315,1.33,17.57,-8.26,-1.51,1.20,4.65,
3.316,1.33,17.57,-8.26,-1.66,1.53,4.62,
3.318,-0.91,19.83,-10.31,-1.66,1.53,4.62,
3.318,-0.91,19.83,-10.31,-1.81,1.83,4.61,
3.328,-0.91,19.83,-10.31,-1.97,2.09,4.60,
3.328,-2.11,19.97,-9.21,-1.97,2.09,4.60,
3.329,-2.11,19.97,-9.21,-2.10,2.30,4.61,
3.329,-2.11,19.97,-9.21,-2.20,2.45,4.60,
3.329,-2.11,19.97,-9.21,-2.26,2.58,4.59,
3.33,-2.24,19.29,-5.45,-2.26,2.58,4.59,
3.33,-2.24,19.29,-5.45,-2.28,2.67,4.57,
3.345,-2.24,19.29,-5.45,-2.26,2.74,4.56,
3.345,-2.70,18.06,-2.35,-2.26,2.74,4.56,
3.346,-2.70,18.06,-2.35,-2.23,2.81,4.55,
3.346,-2.70,18.06,-2.35,-2.18,2.87,4.54,
3.346,-3.21,16.23,-0.88,-2.18,2.87,4.54,
3.346,-3.21,16.23,-0.88,-2.12,2.89,4.52,
3.347,-3.21,16.23,-0.88,-2.07,2.88,4.50,
3.347,-3.52,14.23,-0.39,-2.07,2.88,4.50,
3.347,-3.52,14.23,-0.39,-2.03,2.83,4.47,
3.347,-3.52,14.23,-0.39,-1.99,2.74,4.44,
3.348,-3.96,12.53,-0.68,-1.99,2.74,4.44,
3.35,-3.96,12.53,-0.68,-1.97,2.64,4.40,
3.355,-3.96,12.53,-0.68,-1.95,2.52,4.34,
3.355,-3.88,11.68,-0.95,-1.95,2.52,4.34,
3.356,-3.88,11.68,-0.95,-1.92,2.41,4.28,
3.358,-3.88,11.68,-0.95,-1.89,2.27,4.21,
3.358,-3.86,11.61,-0.61,-1.89,2.27,4.21,
3.36,-3.86,11.61,-0.61,-1.86,2.14,4.14,
3.363,-3.86,11.61,-0.61,-1.82,2.00,4.07,
3.363,-4.14,11.07,-0.70,-1.82,2.00,4.07,
3.365,-4.14,11.07,-0.70,-1.79,1.87,4.00,
3.367,-4.14,11.07,-0.70,-1.76,1.73,3.94,
3.368,-4.50,10.33,-0.93,-1.76,1.73,3.94,
3.37,-4.50,10.33,-0.93,-1.73,1.59,3.88,
3.373,-4.72,9.52,-0.83,-1.73,1.59,3.88,
3.373,-4.72,9.52,-0.83,-1.69,1.45,3.83,
3.375,-4.72,9.52,-0.83,-1.65,1.30,3.77,
3.377,-4.72,9.52,-0.83,-1.60,1.15,3.71,
3.377,-4.55,8.66,-0.39,-1.60,1.15,3.71,
3.38,-4.55,8.66,-0.39,-1.54,1.00,3.64,
3.383,-4.55,8.66,-0.39,-1.48,0.84,3.56,
3.383,-4.20,7.84,0.18,-1.48,0.84,3.56,
3.385,-4.20,7.84,0.18,-1.41,0.68,3.47,
3.389,-3.79,7.07,0.67,-1.41,0.68,3.47,
3.389,-3.79,7.07,0.67,-1.34,0.53,3.38,
3.39,-3.79,7.07,0.67,-1.27,0.38,3.28,
3.393,-3.51,6.21,0.83,-1.27,0.38,3.28,
3.394,-3.51,6.21,0.83,-1.18,0.25,3.18,
3.394,-3.51,6.21,0.83,-1.09,0.13,3.08,
3.397,-3.17,5.30,0.64,-1.09,0.13,3.08,
3.398,-3.17,5.30,0.64,-1.00,0.04,2.97,
3.399,-3.17,5.30,0.64,-0.92,-0.05,2.85,
3.402,-3.17,5.30,0.64,-0.84,-0.12,2.72,
3.403,-3.00,4.46,0.11,-0.84,-0.12,2.72,
3.409,-3.00,4.46,0.11,-0.76,-0.19,2.59,
3.41,-3.03,3.70,-0.40,-0.76,-0.19,2.59,
3.41,-3.03,3.70,-0.40,-0.69,-0.25,2.46,
3.411,-3.03,3.70,-0.40,-0.62,-0.31,2.32,
3.413,-3.34,3.10,-0.75,-0.62,-0.31,2.32,
3.413,-3.34,3.10,-0.75,-0.54,-0.36,2.18,
3.415,-3.34,3.10,-0.75,-0.47,-0.40,2.05,
3.417,-3.96,2.58,-1.00,-0.47,-0.40,2.05,
3.417,-3.96,2.58,-1.00,-0.40,-0.44,1.92,
3.432,-3.96,2.58,-1.00,-0.32,-0.48,1.79,
3.433,-4.60,2.14,-1.00,-0.32,-0.48,1.79,
3.433,-4.60,2.14,-1.00,-0.24,-0.52,1.66,
3.433,-4.60,2.14,-1.00,-0.15,-0.57,1.53,
3.434,-5.12,1.63,-0.92,-0.15,-0.57,1.53,
3.434,-5.12,1.63,-0.92,-0.07,-0.62,1.40,
3.435,-5.12,1.63,-0.92,0.01,-0.69,1.28,
3.435,-5.12,1.63,-0.92,0.09,-0.75,1.15,
3.435,-5.46,0.98,-1.00,0.09,-0.75,1.15,
3.436,-5.46,0.98,-1.00,0.16,-0.81,1.03,
3.438,-5.46,0.98,-1.00,0.23,-0.87,0.89,
3.438,-5.74,0.25,-1.18,0.23,-0.87,0.89,
3.44,-5.74,0.25,-1.18,0.29,-0.92,0.76,
3.442,-5.74,0.25,-1.18,0.35,-0.97,0.63,
3.442,-6.02,-0.42,-1.22,0.35,-0.97,0.63,
3.444,-6.02,-0.42,-1.22,0.41,-1.03,0.50,
3.447,-6.02,-0.42,-1.22,0.46,-1.09,0.38,
3.447,-6.22,-0.99,-1.12,0.46,-1.09,0.38,
3.449,-6.22,-0.99,-1.12,0.52,-1.17,0.26,
3.452,-6.22,-0.99,-1.12,0.57,-1.24,0.14,
3.452,-6.08,-1.66,-1.07,0.57,-1.24,0.14,
3.455,-6.08,-1.66,-1.07,0.62,-1.30,0.02,
3.457,-6.08,-1.66,-1.07,0.68,-1.36,-0.09,
3.458,-5.80,-2.43,-1.29,0.68,-1.36,-0.09,
3.46,-5.80,-2.43,-1.29,0.73,-1.41,-0.21,
3.462,-5.80,-2.43,-1.29,0.79,-1.46,-0.34,
3.462,-5.37,-3.18,-1.74,0.79,-1.46,-0.34,
3.464,-5.37,-3.18,-1.74,0.84,-1.50,-0.47,
3.467,-5.37,-3.18,-1.74,0.88,-1.54,-0.61,
3.467,-4.88,-3.90,-2.23,0.88,-1.54,-0.61,
3.469,-4.88,-3.90,-2.23,0.91,-1.57,-0.77,
3.472,-4.60,-4.51,-2.69,0.91,-1.57,-0.77,
3.474,-4.60,-4.51,-2.69,0.95,-1.59,-0.94,
3.475,-4.60,-4.51,-2.69,0.98,-1.60,-1.12,
3.477,-4.60,-4.51,-2.69,1.02,-1.60,-1.31,
3.477,-4.74,-4.93,-2.86,1.02,-1.60,-1.31,
3.479,-4.74,-4.93,-2.86,1.05,-1.59,-1.49,
3.482,-4.74,-4.93,-2.86,1.08,-1.58,-1.67,
3.482,-5.19,-5.24,-2.90,1.08,-1.58,-1.67,
3.484,-5.19,-5.24,-2.90,1.13,-1.56,-1.84,
3.487,-5.84,-5.59,-2.79,1.13,-1.56,-1.84,
3.487,-5.84,-5.59,-2.79,1.17,-1.54,-2.01,
3.49,-5.84,-5.59,-2.79,1.21,-1.52,-2.16,
3.492,-5.84,-5.59,-2.79,1.25,-1.51,-2.30,
3.492,-6.41,-6.03,-2.64,1.25,-1.51,-2.30,
3.494,-6.41,-6.03,-2.64,1.29,-1.50,-2.44,
3.497,-6.41,-6.03,-2.64,1.34,-1.49,-2.57,
3.512,-6.77,-6.58,-2.55,1.34,-1.49,-2.57,
3.512,-6.77,-6.58,-2.55,1.38,-1.48,-2.70,
3.512,-6.77,-6.58,-2.55,1.43,-1.47,-2.82,
3.512,-6.85,-7.22,-2.55,1.43,-1.47,-2.82,
3.512,-6.85,-7.22,-2.55,1.47,-1.45,-2.95,
3.512,-6.89,-7.98,-2.66,1.47,-1.45,-2.95,
3.513,-6.89,-7.98,-2.66,1.51,-1.44,-3.07,
3.513,-6.89,-7.98,-2.66,1.54,-1.42,-3.19,
3.513,-6.89,-7.98,-2.66,1.58,-1.41,-3.32,
3.513,-6.61,-8.69,-2.79,1.58,-1.41,-3.32,
3.517,-6.61,-8.69,-2.79,1.61,-1.40,-3.46,
3.518,-6.25,-9.25,-2.93,1.61,-1.40,-3.46,
3.518,-6.25,-9.25,-2.93,1.63,-1.38,-3.61,
3.519,-6.25,-9.25,-2.93,1.66,-1.37,-3.76,
3.526,-6.18,-9.57,-3.00,1.66,-1.37,-3.76,
3.526,-6.18,-9.57,-3.00,1.68,-1.36,-3.90,
3.529,-6.18,-9.57,-3.00,1.69,-1.34,-4.04,
3.529,-6.18,-9.57,-3.00,1.71,-1.32,-4.17,
3.529,-6.37,-9.48,-2.83,1.71,-1.32,-4.17,
3.53,-6.37,-9.48,-2.83,1.73,-1.31,-4.29,
3.531,-6.64,-9.15,-2.40,1.73,-1.31,-4.29,
3.532,-6.64,-9.15,-2.40,1.75,-1.30,-4.40,
3.533,-6.64,-9.15,-2.40,1.78,-1.29,-4.50,
3.536,-6.64,-9.15,-2.40,1.81,-1.27,-4.59,
3.537,-6.73,-8.77,-2.04,1.81,-1.27,-4.59,
3.539,-6.73,-8.77,-2.04,1.84,-1.26,-4.68,
3.542,-6.73,-8.77,-2.04,1.88,-1.25,-4.76,
3.542,-6.50,-8.46,-1.79,1.88,-1.25,-4.76,
3.543,-6.50,-8.46,-1.79,1.91,-1.25,-4.85,
3.546,-6.28,-8.33,-1.64,1.91,-1.25,-4.85,
3.546,-6.28,-8.33,-1.64,1.95,-1.25,-4.93,
3.548,-6.28,-8.33,-1.64,1.98,-1.26,-5.02,
3.551,-6.28,-8.33,-1.64,2.02,-1.26,-5.10,
3.551,-6.15,-8.25,-1.60,2.02,-1.26,-5.10,
3.554,-6.15,-8.25,-1.60,2.05,-1.27,-5.17,
3.556,-6.10,-8.14,-1.80,2.05,-1.27,-5.17,
3.557,-6.10,-8.14,-1.80,2.08,-1.27,-5.25,
3.558,-6.10,-8.14,-1.80,2.10,-1.26,-5.33,
3.562,-6.16,-7.91,-2.08,2.10,-1.26,-5.33,
3.562,-6.16,-7.91,-2.08,2.13,-1.26,-5.40,
3.564,-6.16,-7.91,-2.08,2.14,-1.25,-5.46,
3.566,-6.16,-7.91,-2.08,2.16,-1.24,-5.52,
3.567,-6.10,-7.73,-2.24,2.16,-1.24,-5.52,
3.569,-6.10,-7.73,-2.24,2.18,-1.24,-5.57,
3.571,-5.82,-7.65,-2.24,2.18,-1.24,-5.57,
3.571,-5.82,-7.65,-2.24,2.19,-1.24,-5.62,
3.573,-5.82,-7.65,-2.24,2.20,-1.24,-5.66,
3.576,-5.33,-7.64,-2.07,2.20,-1.24,-5.66,
3.576,-5.33,-7.64,-2.07,2.22,-1.24,-5.70,
3.578,-5.33,-7.64,-2.07,2.23,-1.24,-5.73,
3.581,-5.33,-7.64,-2.07,2.25,-1.22,-5.77,
3.581,-4.65,-7.74,-1.81,2.25,-1.22,-5.77,
3.583,-4.65,-7.74,-1.81,2.26,-1.20,-5.80,
3.586,-4.65,-7.74,-1.81,2.28,-1.17,-5.83,
3.586,-3.82,-8.00,-1.48,2.28,-1.17,-5.83,
3.588,-3.82,-8.00,-1.48,2.30,-1.13,-5.85,
3.591,-2.94,-8.28,-1.21,2.30,-1.13,-5.85,
3.591,-2.94,-8.28,-1.21,2.32,-1.08,-5.88,
3.593,-2.94,-8.28,-1.21,2.34,-1.03,-5.91,
3.595,-2.25,-8.41,-0.98,2.34,-1.03,-5.91,
3.596,-2.25,-8.41,-0.98,2.36,-0.98,-5.95,
3.598,-2.25,-8.41,-0.98,2.38,-0.94,-5.98,
3.6,-1.75,-8.46,-0.87,2.38,-0.94,-5.98,
3.601,-1.75,-8.46,-0.87,2.40,-0.90,-6.00,
3.603,-1.75,-8.46,-0.87,2.41,-0.86,-6.03,
3.605,-1.39,-8.49,-0.93,2.41,-0.86,-6.03,
3.606,-1.39,-8.49,-0.93,2.43,-0.81,-6.05,
3.608,-1.39,-8.49,-0.93,2.43,-0.77,-6.06,
3.61,-1.21,-8.55,-0.83,2.43,-0.77,-6.06,
3.611,-1.21,-8.55,-0.83,2.44,-0.73,-6.07,
3.613,-1.21,-8.55,-0.83,2.44,-0.68,-6.07,
3.615,-1.21,-8.55,-0.83,2.45,-0.65,-6.06,
3.616,-1.13,-8.57,-0.38,2.45,-0.65,-6.06,
3.618,-1.13,-8.57,-0.38,2.45,-0.62,-6.04,
3.626,-1.13,-8.57,-0.38,2.46,-0.61,-6.02,
3.627,-0.77,-8.67,0.30,2.46,-0.61,-6.02,
3.627,-0.77,-8.67,0.30,2.46,-0.61,-6.00,
3.627,-0.17,-8.80,0.96,2.46,-0.61,-6.00,
3.628,-0.17,-8.80,0.96,2.47,-0.61,-5.97,
3.628,-0.17,-8.80,0.96,2.47,-0.62,-5.94,
3.631,-0.17,-8.80,0.96,2.47,-0.66,-5.90,
3.631,0.34,-8.77,1.63,2.47,-0.66,-5.90,
3.633,0.34,-8.77,1.63,2.47,-0.71,-5.85,
3.636,0.85,-8.58,2.41,2.47,-0.71,-5.85,
3.636,0.85,-8.58,2.41,2.46,-0.77,-5.79,
3.656,0.85,-8.58,2.41,2.46,-0.84,-5.72,
3.657,0.85,-8.58,2.41,2.45,-0.92,-5.64,
3.658,1.66,-8.33,3.24,2.45,-0.92,-5.64,
3.658,1.66,-8.33,3.24,2.44,-1.00,-5.55,
3.659,1.66,-8.33,3.24,2.43,-1.08,-5.46,
3.659,2.75,-7.96,4.01,2.43,-1.08,-5.46,
3.66,2.75,-7.96,4.01,2.43,-1.16,-5.36,
3.66,2.75,-7.96,4.01,2.43,-1.24,-5.24,
3.661,4.06,-7.39,4.68,2.43,-1.24,-5.24,
3.661,4.06,-7.39,4.68,2.44,-1.31,-5.12,
3.661,4.06,-7.39,4.68,2.44,-1.37,-5.00,
3.661,5.75,-6.84,4.85,2.44,-1.37,-5.00,
3.662,5.75,-6.84,4.85,2.44,-1.40,-4.87,
3.662,5.75,-6.84,4.85,2.43,-1.40,-4.74,
3.663,7.44,-6.03,4.51,2.43,-1.40,-4.74,
3.689,7.44,-6.03,4.51,2.41,-1.39,-4.59,
3.689,7.44,-6.03,4.51,2.39,-1.37,-4.43,
3.689,8.93,-4.78,4.20,2.39,-1.37,-4.43,
3.69,8.93,-4.78,4.20,2.37,-1.34,-4.27,
3.69,10.86,-3.78,4.22,2.37,-1.34,-4.27,
3.69,10.86,-3.78,4.22,2.33,-1.31,-4.11,
3.691,10.86,-3.78,4.22,2.29,-1.28,-3.95,
3.691,12.46,-2.67,4.27,2.29,-1.28,-3.95,
3.691,12.46,-2.67,4.27,2.25,-1.26,-3.79,
3.692,12.46,-2.67,4.27,2.20,-1.22,-3.62,
3.692,13.71,-1.59,4.18,2.20,-1.22,-3.62,
3.692,13.71,-1.59,4.18,2.14,-1.18,-3.45,
3.693,13.71,-1.59,4.18,2.07,-1.14,-3.27,
3.693,13.71,-1.59,4.18,1.99,-1.10,-3.08,
3.693,14.76,-0.70,4.40,1.99,-1.10,-3.08,
3.694,14.76,-0.70,4.40,1.90,-1.06,-2.89,
3.694,14.76,-0.70,4.40,1.81,-1.02,-2.69,
3.694,15.69,-0.18,5.20,1.81,-1.02,-2.69,
3.695,15.69,-0.18,5.20,1.71,-0.98,-2.50,
3.698,15.69,-0.18,5.20,1.60,-0.93,-2.30,
3.698,15.69,-0.18,5.20,1.50,-0.88,-2.11,
3.701,16.53,0.03,6.17,1.50,-0.88,-2.11,
3.702,17.37,-0.24,7.17,1.50,-0.88,-2.11,
3.702,17.37,-0.24,7.17,1.40,-0.82,-1.93,
3.703,17.37,-0.24,7.17,1.29,-0.76,-1.76,
3.707,17.37,-0.24,7.17,1.20,-0.72,-1.60,
3.709,18.25,-1.02,8.38,1.20,-0.72,-1.60,
3.71,18.25,-1.02,8.38,1.11,-0.68,-1.44,
3.71,19.12,-2.17,9.41,1.11,-0.68,-1.44,
3.71,19.12,-2.17,9.41,1.02,-0.65,-1.30,
3.714,19.12,-2.17,9.41,0.94,-0.63,-1.17,
3.715,19.69,-3.41,9.85,0.94,-0.63,-1.17,
3.716,19.69,-3.41,9.85,0.85,-0.62,-1.04,
3.717,19.69,-3.41,9.85,0.76,-0.59,-0.91,
3.719,19.69,-3.41,9.85,0.67,-0.56,-0.78,
3.72,20.11,-4.63,9.68,0.67,-0.56,-0.78,
3.723,20.11,-4.63,9.68,0.57,-0.51,-0.66,
3.725,19.98,-5.78,9.24,0.57,-0.51,-0.66,
3.726,19.98,-5.78,9.24,0.47,-0.46,-0.52,
3.727,19.98,-5.78,9.24,0.37,-0.40,-0.39,
3.73,19.91,-7.10,9.09,0.37,-0.40,-0.39,
3.73,19.91,-7.10,9.09,0.27,-0.36,-0.25,
3.732,19.91,-7.10,9.09,0.16,-0.32,-0.10,
3.735,19.91,-7.10,9.09,0.07,-0.29,0.04,
3.735,19.87,-8.71,9.26,0.07,-0.29,0.04,
3.737,19.87,-8.71,9.26,-0.03,-0.27,0.18,
3.74,19.87,-8.71,9.26,-0.10,-0.23,0.29,
3.74,20.00,-10.45,9.57,-0.10,-0.23,0.29,
3.742,20.00,-10.45,9.57,-0.19,-0.19,0.38,
3.744,20.00,-10.45,9.57,-0.27,-0.14,0.45,
3.744,20.02,-12.29,9.84,-0.27,-0.14,0.45,
3.747,20.02,-12.29,9.84,-0.33,-0.07,0.48,
3.749,19.91,-14.17,9.97,-0.33,-0.07,0.48,
3.75,19.91,-14.17,9.97,-0.42,0.00,0.49,
3.752,19.91,-14.17,9.97,-0.49,0.08,0.46,
3.754,19.07,-16.00,10.10,-0.49,0.08,0.46,
3.755,19.07,-16.00,10.10,-0.58,0.16,0.42,
3.757,19.07,-16.00,10.10,-0.55,0.24,0.35,
3.759,19.07,-16.00,10.10,-0.53,0.24,0.18,
3.759,14.69,-10.58,5.16,-0.53,0.24,0.18,
3.762,14.69,-10.58,5.16,-0.91,-0.00,0.14,
3.765,14.69,-10.58,5.16,-1.82,-0.51,0.54,
3.765,3.82,7.57,-12.55,-1.82,-0.51,0.54,
3.766,3.82,7.57,-12.55,-3.24,-1.29,1.21,
3.769,3.82,7.57,-12.55,-3.61,-1.54,1.92,
3.769,7.21,30.06,4.54,-3.61,-1.54,1.92,
3.772,7.21,30.06,4.54,-3.05,-0.97,2.57,
3.774,7.21,30.06,4.54,-2.52,0.01,3.02,
3.775,2.56,29.99,4.71,-2.52,0.01,3.02,
3.776,2.56,29.99,4.71,-1.77,1.68,3.02,
3.779,2.56,29.99,4.71,-1.17,3.48,3.06,
3.779,3.64,29.94,-8.30,-1.17,3.48,3.06,
3.781,3.64,29.94,-8.30,-0.79,4.75,3.53,
3.784,3.64,29.94,-8.30,-0.79,4.93,4.28,
3.784,2.82,29.89,4.89,-0.79,4.93,4.28,
3.786,2.82,29.89,4.89,-1.26,3.93,4.77,
3.789,10.74,25.77,12.01,-1.26,3.93,4.77,
3.79,10.74,25.77,12.01,-1.52,2.53,4.61,
3.792,10.74,25.77,12.01,-1.30,1.17,4.01,
3.794,11.52,1.14,8.88,-1.30,1.17,4.01,
3.795,11.52,1.14,8.88,-0.99,-0.13,3.24,
3.796,11.52,1.14,8.88,-0.70,-1.33,2.42,
3.799,11.52,1.14,8.88,-0.47,-2.38,1.64,
3.799,8.84,-10.13,1.96,-0.47,-2.38,1.64,
3.801,8.84,-10.13,1.96,-0.40,-3.23,0.97,
3.804,1.69,-14.78,-1.11,-0.40,-3.23,0.97,
3.804,1.69,-14.78,-1.11,-0.35,-3.79,0.54,
3.807,1.69,-14.78,-1.11,-0.40,-3.99,0.46,
3.809,1.69,-14.78,-1.11,-0.69,-3.86,0.76,
3.81,-5.57,-15.37,-3.08,-0.69,-3.86,0.76,
3.811,-5.57,-15.37,-3.08,-1.08,-3.38,1.33,
3.814,-2.39,-18.84,2.60,-1.08,-3.38,1.33,
3.814,-2.39,-18.84,2.60,-1.32,-2.55,1.96,
3.817,-2.39,-18.84,2.60,-1.38,-1.44,2.47,
3.826,-2.39,-18.84,2.60,-1.40,-0.26,2.82,
3.828,-2.39,-18.84,2.60,-1.24,0.79,2.95,
3.829,6.25,-21.10,8.34,-1.24,0.79,2.95,
3.83,6.25,-21.10,8.34,-1.05,1.47,2.82,
3.83,12.14,-16.46,9.49,-1.05,1.47,2.82,
3.831,12.14,-16.46,9.49,-0.92,1.77,2.50,
3.86,12.47,-7.24,7.45,-0.92,1.77,2.50,
3.86,12.47,-7.24,7.45,-0.77,1.82,2.11,
3.861,12.47,-7.24,7.45,-0.63,1.75,1.77,
3.861,12.47,-7.24,7.45,-0.51,1.60,1.52,
3.861,8.75,1.76,3.92,-0.51,1.60,1.52,
3.861,8.75,1.76,3.92,-0.47,1.36,1.36,
3.861,5.60,6.17,0.67,-0.47,1.36,1.36,
3.862,5.60,6.17,0.67,-0.50,1.10,1.26,
3.862,5.60,6.17,0.67,-0.57,0.87,1.19,
3.862,5.60,6.17,0.67,-0.63,0.70,1.14,
3.862,3.32,6.44,0.13,-0.63,0.70,1.14,
3.862,3.32,6.44,0.13,-0.66,0.56,1.11,
3.862,3.32,6.44,0.13,-0.63,0.46,1.10,
3.863,0.98,4.58,2.31,-0.63,0.46,1.10,
3.863,0.98,4.58,2.31,-0.55,0.38,1.09,
3.863,0.98,4.58,2.31,-0.46,0.33,1.08,
3.863,-0.18,1.09,4.20,-0.46,0.33,1.08,
3.863,-0.18,1.09,4.20,-0.36,0.29,1.09,
3.863,-0.18,1.09,4.20,-0.29,0.25,1.08,
3.864,-0.57,-1.27,3.61,-0.29,0.25,1.08,
3.864,-0.57,-1.27,3.61,-0.25,0.19,1.08,
3.864,-0.57,-1.27,3.61,-0.23,0.12,1.08,
3.864,-0.77,-0.87,2.03,-0.23,0.12,1.08,
3.869,-0.77,-0.87,2.03,-0.22,0.07,1.08,
3.87,-0.77,-0.87,2.03,-0.22,0.05,1.09,
3.87,-1.10,-0.19,0.70,-0.22,0.05,1.09,
3.871,-1.10,-0.19,0.70,-0.22,0.05,1.12,
3.874,-1.10,-0.19,0.70,-0.23,0.07,1.14,
3.874,-1.13,-0.06,0.23,-0.23,0.07,1.14,
3.876,-1.13,-0.06,0.23,-0.23,0.09,1.17,
3.878,-1.13,-0.06,0.23,-0.23,0.10,1.17,
3.879,-0.43,-0.19,0.72,-0.23,0.10,1.17,
3.881,-0.43,-0.19,0.72,-0.22,0.08,1.16,
3.883,-0.43,-0.19,0.72,-0.19,0.05,1.15,
3.884,0.47,-0.34,1.70,-0.19,0.05,1.15,
3.886,0.47,-0.34,1.70,-0.16,0.01,1.13,
3.889,0.94,-0.59,2.27,-0.16,0.01,1.13,
3.889,0.94,-0.59,2.27,-0.13,-0.02,1.10,
3.891,0.94,-0.59,2.27,-0.10,-0.04,1.08,
3.894,0.94,-0.59,2.27,-0.06,-0.07,1.05,
3.894,0.92,-0.69,2.30,-0.06,-0.07,1.05,
3.896,0.92,-0.69,2.30,-0.03,-0.08,1.03,
3.898,0.92,-0.69,2.30,-0.00,-0.10,1.01,
3.898,0.64,-0.56,1.84,-0.00,-0.10,1.01,
3.901,0.64,-0.56,1.84,0.02,-0.11,0.99,
3.903,0.64,-0.56,1.84,0.03,-0.12,0.96,
3.903,0.92,-0.38,0.82,0.03,-0.12,0.96,
3.908,0.92,-0.38,0.82,0.04,-0.11,0.92,
3.91,0.92,-0.38,0.82,0.03,-0.10,0.89,
3.912,1.58,-0.10,-0.22,0.03,-0.10,0.89,
3.912,1.58,-0.10,-0.22,0.02,-0.06,0.85,
3.913,1.58,-0.10,-0.22,0.02,-0.00,0.80,
3.913,2.29,-0.04,-0.69,0.02,-0.00,0.80,
3.916,2.29,-0.04,-0.69,0.01,0.07,0.75,
3.918,2.29,-0.04,-0.69,0.01,0.14,0.69,
3.919,2.84,0.12,-0.54,0.01,0.14,0.69,
3.921,2.84,0.12,-0.54,0.00,0.21,0.63,
3.924,2.84,0.12,-0.54,0.00,0.27,0.57,
3.925,2.95,0.20,-0.19,0.00,0.27,0.57,
3.926,2.95,0.20,-0.19,0.00,0.31,0.52,
3.928,2.95,0.20,-0.19,0.00,0.33,0.47,
3.928,2.58,0.24,0.29,0.00,0.33,0.47,
3.93,2.58,0.24,0.29,0.01,0.34,0.42,
3.935,2.58,0.24,0.29,0.02,0.34,0.38,
3.936,1.96,0.43,0.57,0.02,0.34,0.38,
3.937,1.96,0.43,0.57,0.03,0.35,0.34,
3.938,1.20,0.44,0.39,0.03,0.35,0.34,
3.946,1.20,0.44,0.39,0.04,0.34,0.32,
3.947,1.20,0.44,0.39,0.04,0.33,0.29,
3.947,1.20,0.44,0.39,0.04,0.31,0.28,
3.948,0.44,0.35,-0.06,0.04,0.31,0.28,
3.948,0.44,0.35,-0.06,0.03,0.29,0.27,
3.948,0.44,0.35,-0.06,0.02,0.26,0.27,
3.95,-0.16,0.34,-0.39,0.02,0.26,0.27,
3.953,-0.16,0.34,-0.39,0.01,0.24,0.27,
3.953,-0.55,0.44,-0.58,0.01,0.24,0.27,
3.953,-0.55,0.44,-0.58,0.00,0.22,0.27,
3.955,-0.55,0.44,-0.58,-0.01,0.21,0.28,
3.958,-0.70,0.63,-0.52,-0.01,0.21,0.28,
3.958,-0.70,0.63,-0.52,-0.01,0.19,0.28,
3.96,-0.70,0.63,-0.52,-0.02,0.17,0.28,
3.962,-0.54,0.67,-0.45,-0.02,0.17,0.28,
3.963,-0.54,0.67,-0.45,-0.03,0.15,0.28,
3.966,-0.54,0.67,-0.45,-0.03,0.13,0.28,
3.967,-0.54,0.67,-0.45,-0.04,0.11,0.27,
3.968,-0.24,0.62,-0.43,-0.04,0.11,0.27,
3.97,-0.24,0.62,-0.43,-0.05,0.09,0.26,
3.973,-0.02,0.36,-0.24,-0.05,0.09,0.26,
3.973,-0.02,0.36,-0.24,-0.06,0.06,0.25,
3.974,-0.02,0.36,-0.24,-0.06,0.05,0.24,
3.978,0.19,0.20,-0.24,-0.06,0.05,0.24,
3.978,0.19,0.20,-0.24,-0.06,0.03,0.23,
3.98,0.19,0.20,-0.24,-0.07,0.03,0.22,
3.983,0.19,0.20,-0.24,-0.08,0.02,0.21,
3.983,0.36,0.12,-0.33,-0.08,0.02,0.21,
3.985,0.36,0.12,-0.33,-0.09,-0.00,0.20,
3.987,0.36,0.12,-0.33,-0.09,-0.01,0.18,
3.988,0.56,0.31,-0.31,-0.09,-0.01,0.18,
3.991,0.56,0.31,-0.31,-0.10,-0.02,0.17,
3.992,0.56,0.31,-0.31,-0.10,-0.00,0.15,
4.016,0.63,0.31,-0.42,-0.10,-0.00,0.15,
4.017,0.63,0.31,-0.42,-0.11,0.02,0.13,
4.017,0.73,0.01,-0.29,-0.11,0.02,0.13,
4.017,0.73,0.01,-0.29,-0.11,0.03,0.11,
4.017,0.73,0.01,-0.29,-0.11,0.04,0.08,
4.017,1.14,0.08,-0.19,-0.11,0.04,0.08,
4.017,1.14,0.08,-0.19,-0.11,0.06,0.05,
4.018,1.14,0.08,-0.19,-0.11,0.09,0.02,
4.018,1.14,0.08,-0.19,-0.11,0.12,0.03,
4.018,0.48,1.25,-0.08,-0.11,0.12,0.03,
4.018,0.48,1.25,-0.08,-0.10,0.13,0.05,
4.018,0.48,1.25,-0.08,-0.10,0.16,0.06,
4.018,0.15,1.15,0.25,-0.10,0.16,0.06,
4.019,0.15,1.15,0.25,-0.10,0.20,0.04,
4.019,0.15,1.15,0.25,-0.08,0.22,0.03,
4.019,-0.17,0.62,0.75,-0.08,0.22,0.03,
4.02,-0.17,0.62,0.75,-0.07,0.23,0.02,
4.024,-0.17,0.62,0.75,-0.05,0.22,0.02,
4.024,-0.56,0.36,0.96,-0.05,0.22,0.02,
4.027,-0.50,0.29,0.74,-0.05,0.22,0.02,
4.031,-0.50,0.29,0.74,-0.03,0.22,0.02,
4.031,-0.50,0.29,0.74,-0.01,0.23,0.01,
4.031,-0.50,0.29,0.74,-0.00,0.24,0.01,
4.033,-0.71,0.45,0.73,-0.00,0.24,0.01,
4.033,-0.71,0.45,0.73,0.01,0.24,0.02,
4.034,-0.71,0.45,0.73,0.02,0.24,0.02,
4.037,-0.71,0.45,0.73,0.04,0.25,0.03,
4.04,-0.78,0.58,0.78,0.04,0.25,0.03,
4.043,-0.78,0.58,0.78,0.05,0.28,0.04,
4.043,-0.78,0.58,0.78,0.06,0.33,0.05,
4.043,-1.09,0.89,0.48,0.06,0.33,0.05,
4.047,-1.09,0.89,0.48,0.07,0.37,0.06,
4.047,-1.33,1.08,0.05,0.07,0.37,0.06,
4.047,-1.33,1.08,0.05,0.08,0.42,0.08,
4.049,-1.33,1.08,0.05,0.08,0.44,0.10,
4.051,-1.33,1.08,0.05,0.09,0.44,0.12,
4.052,-1.29,1.08,-0.04,0.09,0.44,0.12,
4.054,-1.29,1.08,-0.04,0.08,0.42,0.13,
4.057,-1.29,1.08,-0.04,0.08,0.40,0.14,
4.06,-1.01,0.88,-0.09,0.08,0.40,0.14,
4.06,-1.01,0.88,-0.09,0.08,0.39,0.15,
4.061,-1.01,0.88,-0.09,0.08,0.38,0.16,
4.062,-0.76,0.82,-0.13,0.08,0.38,0.16,
4.064,-0.76,0.82,-0.13,0.07,0.37,0.16,
4.066,-0.76,0.82,-0.13,0.07,0.37,0.17,
4.067,-0.56,0.84,-0.33,0.07,0.37,0.17,
4.069,-0.56,0.84,-0.33,0.06,0.38,0.18,
4.072,-0.56,0.84,-0.33,0.06,0.39,0.18,
4.072,-0.49,0.86,-0.55,0.06,0.39,0.18,
4.074,-0.49,0.86,-0.55,0.05,0.40,0.19,
4.077,-0.49,0.86,-0.55,0.04,0.42,0.19,
4.077,-0.74,1.14,-0.89,0.04,0.42,0.19,
4.078,-0.74,1.14,-0.89,0.03,0.45,0.21,
4.082,-0.74,1.14,-0.89,0.02,0.48,0.23,
4.082,-1.23,1.54,-1.33,0.02,0.48,0.23,
4.084,-1.23,1.54,-1.33,0.00,0.51,0.25,
4.086,-1.23,1.54,-1.33,-0.01,0.53,0.27,
4.086,-1.50,1.56,-1.53,-0.01,0.53,0.27,
4.089,-1.50,1.56,-1.53,-0.02,0.53,0.29,
4.091,-1.50,1.56,-1.53,-0.03,0.54,0.31,
4.091,-1.82,1.41,-1.74,-0.03,0.54,0.31,
4.093,-1.82,1.41,-1.74,-0.04,0.54,0.33,
4.096,-1.82,1.41,-1.74,-0.06,0.56,0.36,
4.096,-2.25,1.28,-1.89,-0.06,0.56,0.36,
4.098,-2.25,1.28,-1.89,-0.07,0.58,0.39,
4.101,-2.25,1.28,-1.89,-0.09,0.60,0.43,
4.101,-2.38,1.31,-1.76,-0.09,0.60,0.43,
4.103,-2.38,1.31,-1.76,-0.11,0.62,0.46,
4.107,-2.09,1.44,-1.45,-0.11,0.62,0.46,
4.107,-2.09,1.44,-1.45,-0.11,0.63,0.49,
4.108,-2.09,1.44,-1.45,-0.12,0.63,0.52,
4.111,-2.09,1.44,-1.45,-0.13,0.64,0.55,
4.111,-1.88,1.55,-1.12,-0.13,0.64,0.55,
4.113,-1.88,1.55,-1.12,-0.13,0.65,0.58,
4.116,-1.88,1.55,-1.12,-0.14,0.66,0.61,
4.116,-1.91,1.46,-0.98,-0.14,0.66,0.61,
4.118,-1.91,1.46,-0.98,-0.15,0.68,0.63,
4.121,-2.08,1.41,-0.97,-0.15,0.68,0.63,
4.121,-2.08,1.41,-0.97,-0.16,0.70,0.66,
4.128,-2.08,1.41,-0.97,-0.18,0.73,0.69,
4.129,-2.26,1.48,-0.94,-0.18,0.73,0.69,
4.129,-2.26,1.48,-0.94,-0.19,0.75,0.71,
4.13,-2.26,1.48,-0.94,-0.21,0.76,0.74,
4.136,-2.26,1.48,-0.94,-0.21,0.77,0.78,
4.136,-2.45,1.52,-0.85,-0.21,0.77,0.78,
4.137,-2.45,1.52,-0.85,-0.20,0.76,0.83,
4.139,-2.45,1.52,-0.85,-0.22,0.76,0.86,
4.139,-2.56,1.78,-1.38,-0.22,0.76,0.86,
4.14,-2.56,1.78,-1.38,-0.26,0.77,0.87,
4.147,-2.56,1.78,-1.38,-0.33,0.79,0.87,
4.148,-2.90,2.74,-1.70,-0.33,0.79,0.87,
4.148,-2.90,2.74,-1.70,-0.39,0.79,0.89,
4.149,-2.90,2.74,-1.70,-0.43,0.79,0.95,
4.149,-3.78,3.59,-0.22,-0.43,0.79,0.95,
4.149,-3.78,3.59,-0.22,-0.44,0.74,1.01,
4.151,-3.78,3.59,-0.22,-0.42,0.65,1.06,
4.151,-3.19,4.02,1.27,-0.42,0.65,1.06,
4.157,-3.19,4.02,1.27,-0.41,0.57,1.09,
4.158,-1.96,4.35,-0.57,-0.41,0.57,1.09,
4.161,-1.96,4.35,-0.57,-0.42,0.54,1.10,
4.175,-1.96,4.35,-0.57,-0.44,0.56,1.11,
4.175,-2.63,4.43,-1.10,-0.44,0.56,1.11,
4.176,-2.63,4.43,-1.10,-0.46,0.55,1.14,
4.176,-2.63,4.43,-1.10,-0.46,0.50,1.20,
4.176,-3.49,4.20,-0.37,-0.46,0.50,1.20,
4.176,-3.49,4.20,-0.37,-0.45,0.40,1.26,
4.177,-3.49,4.20,-0.37,-0.45,0.24,1.30,
4.177,-2.76,2.88,0.04,-0.45,0.24,1.30,
4.177,-2.76,2.88,0.04,-0.45,0.09,1.32,
4.178,-2.76,2.88,0.04,-0.47,-0.04,1.32,
4.178,-2.76,2.88,0.04,-0.47,-0.14,1.34,
4.178,-3.13,1.17,0.29,-0.47,-0.14,1.34,
4.178,-3.13,1.17,0.29,-0.48,-0.20,1.37,
4.18,-3.13,1.17,0.29,-0.48,-0.15,1.41,
4.181,-3.83,-0.54,0.70,-0.48,-0.15,1.41,
4.183,-3.83,-0.54,0.70,-0.49,-0.01,1.47,
4.185,-3.83,-0.54,0.70,-0.48,0.21,1.54,
4.186,-3.30,-1.51,0.48,-0.48,0.21,1.54,
4.189,-3.30,-1.51,0.48,-0.48,0.45,1.61,
4.19,-2.02,-1.43,0.40,-0.48,0.45,1.61,
4.191,-2.02,-1.43,0.40,-0.49,0.63,1.67,
4.192,-2.02,-1.43,0.40,-0.48,0.76,1.72,
4.195,-0.02,-0.56,0.59,-0.48,0.76,1.72,
4.196,-0.02,-0.56,0.59,-0.47,0.88,1.74,
4.197,-0.02,-0.56,0.59,-0.49,0.80,1.69,
4.2,-0.02,-0.56,0.59,-0.51,0.59,1.62,
4.2,2.25,1.22,-0.48,-0.51,0.59,1.62,
4.202,2.25,1.22,-0.48,-0.54,0.52,1.60,
4.206,0.47,2.42,-1.85,-0.54,0.52,1.60,
4.206,0.47,2.42,-1.85,-0.57,0.62,1.60,
4.208,0.47,2.42,-1.85,-0.59,0.69,1.62,
4.21,0.47,2.42,-1.85,-0.58,0.64,1.63,
4.21,0.39,1.79,1.13,-0.58,0.64,1.63,
4.212,0.39,1.79,1.13,-0.54,0.53,1.61,
4.215,0.39,1.79,1.13,-0.50,0.46,1.56,
4.215,0.76,0.46,1.81,-0.50,0.46,1.56,
4.217,0.76,0.46,1.81,-0.47,0.49,1.53,
4.22,0.76,0.46,1.81,-0.48,0.56,1.51,
4.22,0.24,-0.27,0.73,-0.48,0.56,1.51,
4.223,0.24,-0.27,0.73,-0.49,0.58,1.50,
4.228,0.24,-0.27,0.73,-0.52,0.57,1.50,
4.228,-0.18,-0.21,0.81,-0.52,0.57,1.50,
4.228,-0.18,-0.21,0.81,-0.54,0.54,1.48,
4.23,-0.18,-0.21,0.81,-0.56,0.52,1.47,
4.23,-0.70,0.11,1.17,-0.56,0.52,1.47,
4.232,-0.70,0.11,1.17,-0.57,0.48,1.46,
4.236,-1.29,0.50,1.57,-0.57,0.48,1.46,
4.236,-1.29,0.50,1.57,-0.56,0.43,1.45,
4.237,-1.29,0.50,1.57,-0.56,0.37,1.47,
4.24,-1.29,0.50,1.57,-0.55,0.32,1.48,
4.242,-1.36,0.50,1.45,-0.55,0.32,1.48,
4.243,-1.36,0.50,1.45,-0.56,0.26,1.49,
4.245,-1.36,0.50,1.45,-0.57,0.20,1.49,
4.245,-0.72,0.39,1.20,-0.57,0.20,1.49,
4.247,-0.72,0.39,1.20,-0.58,0.15,1.48,
4.251,-0.72,0.39,1.20,-0.60,0.07,1.46,
4.251,0.08,0.18,1.44,-0.60,0.07,1.46,
4.252,0.08,0.18,1.44,-0.61,-0.00,1.42,
4.255,0.08,0.18,1.44,-0.62,-0.05,1.37,
4.256,0.78,0.06,1.51,-0.62,-0.05,1.37,
4.26,0.78,0.06,1.51,-0.62,-0.10,1.33,
4.26,0.78,0.06,1.51,-0.63,-0.15,1.28,
4.26,0.74,0.16,1.57,-0.63,-0.15,1.28,
4.262,0.74,0.16,1.57,-0.63,-0.18,1.25,
4.266,0.74,0.16,1.57,-0.65,-0.17,1.21,
4.266,0.84,0.49,0.42,-0.65,-0.17,1.21,
4.268,0.84,0.49,0.42,-0.67,-0.14,1.17,
4.27,0.84,0.49,0.42,-0.68,-0.12,1.14,
4.271,0.42,0.92,0.26,-0.68,-0.12,1.14,
4.273,0.42,0.92,0.26,-0.68,-0.13,1.12,
4.275,0.42,0.92,0.26,-0.68,-0.17,1.10,
4.276,-0.13,1.01,1.14,-0.68,-0.17,1.10,
4.277,-0.13,1.01,1.14,-0.69,-0.20,1.07,
4.28,-0.13,1.01,1.14,-0.70,-0.21,1.04,
4.28,-0.10,1.47,0.34,-0.70,-0.21,1.04,
4.282,-0.10,1.47,0.34,-0.72,-0.21,1.02,
4.285,-0.10,1.47,0.34,-0.74,-0.23,0.99,
4.285,0.02,2.09,0.37,-0.74,-0.23,0.99,
4.287,0.02,2.09,0.37,-0.75,-0.27,0.97,
4.29,0.52,2.54,0.93,-0.75,-0.27,0.97,
4.29,0.52,2.54,0.93,-0.76,-0.32,0.94,
4.292,0.52,2.54,0.93,-0.76,-0.34,0.91,
4.295,0.52,2.54,0.93,-0.76,-0.34,0.87,
4.295,0.91,3.17,0.82,-0.76,-0.34,0.87,
4.297,0.91,3.17,0.82,-0.76,-0.34,0.83,
4.299,0.91,3.17,0.82,-0.76,-0.32,0.79,
4.299,0.71,3.70,0.79,-0.76,-0.32,0.79,
4.302,0.71,3.70,0.79,-0.75,-0.31,0.75,
4.304,0.71,3.70,0.79,-0.76,-0.30,0.71,
4.305,0.52,4.20,0.31,-0.76,-0.30,0.71,
4.309,0.52,4.20,0.31,-0.77,-0.28,0.67,
4.311,0.52,4.20,0.31,-0.77,-0.26,0.63,
4.311,0.25,4.67,0.25,-0.77,-0.26,0.63,
4.312,0.25,4.67,0.25,-0.77,-0.26,0.60,
4.315,0.27,4.97,0.20,-0.77,-0.26,0.60,
4.315,0.27,4.97,0.20,-0.76,-0.25,0.57,
4.317,0.27,4.97,0.20,-0.76,-0.24,0.53,
4.32,0.27,4.97,0.20,-0.75,-0.23,0.49,
4.32,0.22,5.08,0.10,-0.75,-0.23,0.49,
4.325,0.22,5.08,0.10,-0.75,-0.20,0.44,
4.357,0.64,5.27,-0.74,-0.75,-0.20,0.44,
4.357,0.64,5.27,-0.74,-0.76,-0.16,0.38,
4.357,0.64,5.27,-0.74,-0.77,-0.09,0.31,
4.358,0.92,5.74,-0.97,-0.77,-0.09,0.31,
4.358,0.65,6.22,-0.36,-0.77,-0.09,0.31,
4.358,0.65,6.22,-0.36,-0.78,-0.03,0.24,
4.358,0.65,6.22,-0.36,-0.78,0.03,0.18,
4.359,0.65,6.22,-0.36,-0.78,0.09,0.13,
4.359,0.65,6.22,-0.36,-0.77,0.17,0.08,
4.359,0.65,6.22,-0.36,-0.75,0.29,0.04,
4.359,0.65,6.22,-0.36,-0.74,0.44,-0.01,
4.359,0.22,6.50,-0.65,-0.74,0.44,-0.01,
4.36,0.10,6.69,-1.36,-0.74,0.44,-0.01,
4.36,0.10,6.69,-1.36,-0.74,0.61,-0.06,
4.36,0.10,6.69,-1.36,-0.74,0.78,-0.13,
4.36,0.10,6.69,-1.36,-0.74,0.97,-0.21,
4.361,0.77,6.94,-2.17,-0.74,0.97,-0.21,
4.361,0.77,6.94,-2.17,-0.74,1.16,-0.30,
4.361,-0.05,7.59,-3.38,-0.74,1.16,-0.30,
4.361,-0.05,7.59,-3.38,-0.75,1.31,-0.37,
4.361,-0.05,7.59,-3.38,-0.77,1.43,-0.42,
4.362,-0.05,7.59,-3.38,-0.79,1.50,-0.47,
4.362,-1.34,8.23,-4.20,-0.79,1.50,-0.47,
4.362,-1.34,8.23,-4.20,-0.82,1.55,-0.52,
4.365,-1.34,8.23,-4.20,-0.85,1.60,-0.57,
4.365,-2.81,8.69,-3.98,-0.85,1.60,-0.57,
4.367,-2.81,8.69,-3.98,-0.87,1.65,-0.63,
4.37,-2.81,8.69,-3.98,-0.89,1.72,-0.68,
4.37,-4.61,8.88,-3.44,-0.89,1.72,-0.68,
4.372,-4.61,8.88,-3.44,-0.92,1.84,-0.74,
4.375,-6.52,9.19,-3.85,-0.92,1.84,-0.74,
4.375,-6.52,9.19,-3.85,-0.95,1.99,-0.79,
4.376,-6.52,9.19,-3.85,-0.98,2.13,-0.82,
4.379,-8.01,9.18,-4.90,-0.98,2.13,-0.82,
4.379,-8.01,9.18,-4.90,-1.01,2.26,-0.85,
4.381,-8.01,9.18,-4.90,-1.04,2.35,-0.88,
4.384,-8.01,9.18,-4.90,-1.07,2.39,-0.89,
4.384,-8.99,9.36,-6.34,-1.07,2.39,-0.89,
4.386,-8.99,9.36,-6.34,-1.11,2.37,-0.84,
4.389,-9.99,9.87,-6.59,-1.11,2.37,-0.84,
4.389,-9.99,9.87,-6.59,-1.15,2.28,-0.78,
4.394,-10.69,9.67,-5.98,-1.15,2.28,-0.78,
4.395,-10.69,9.67,-5.98,-1.20,2.14,-0.69,
4.395,-10.69,9.67,-5.98,-1.23,1.94,-0.59,
4.396,-10.69,9.67,-5.98,-1.25,1.71,-0.48,
4.398,-10.69,9.67,-5.98,-1.28,1.56,-0.36,
4.399,-10.94,10.03,-6.95,-1.28,1.56,-0.36,
4.401,-10.94,10.03,-6.95,-1.28,1.50,-0.21,
4.404,-10.94,10.03,-6.95,-1.27,1.42,-0.03,
4.405,-11.73,9.90,-6.85,-1.27,1.42,-0.03,
4.409,-11.73,9.90,-6.85,-1.23,1.36,0.17,
4.41,-12.58,9.40,-6.95,-1.23,1.36,0.17,
4.41,-12.58,9.40,-6.95,-1.17,1.30,0.41,
4.411,-12.58,9.40,-6.95,-1.11,1.24,0.68,
4.414,-12.58,9.40,-6.95,-1.05,1.16,0.97,
4.415,-12.21,8.06,-8.40,-1.05,1.16,0.97,
4.417,-12.21,8.06,-8.40,-1.03,1.06,1.27,
4.418,-12.21,8.06,-8.40,-1.03,0.94,1.57,
4.419,-10.68,6.61,-10.35,-1.03,0.94,1.57,
4.421,-10.68,6.61,-10.35,-1.04,0.77,1.90,
4.428,-9.60,6.00,-10.97,-1.04,0.77,1.90,
4.429,-9.60,6.00,-10.97,-1.08,0.56,2.25,
4.429,-9.60,6.00,-10.97,-1.14,0.35,2.60,
4.43,-9.60,6.00,-10.97,-1.20,0.18,2.96,
4.43,-7.85,6.85,-10.64,-1.20,0.18,2.96,
4.431,-7.85,6.85,-10.64,-1.26,0.05,3.33,
4.439,-7.85,6.85,-10.64,-1.30,-0.03,3.68,
4.454,-4.91,8.88,-8.79,-1.30,-0.03,3.68,
4.455,-0.92,10.47,-7.17,-1.30,-0.03,3.68,
4.456,-0.92,10.47,-7.17,-1.32,-0.08,3.99,
4.456,-0.92,10.47,-7.17,-1.32,-0.09,4.25,
4.456,-0.92,10.47,-7.17,-1.30,-0.05,4.44,
4.457,2.32,11.18,-7.12,-1.30,-0.05,4.44,
4.457,2.32,11.18,-7.12,-1.27,0.06,4.57,
4.457,2.32,11.18,-7.12,-1.26,0.23,4.67,
4.458,2.32,11.18,-7.12,-1.31,0.45,4.79,
4.458,2.74,12.26,-8.73,-1.31,0.45,4.79,
4.458,2.74,12.26,-8.73,-1.42,0.70,4.92,
4.459,2.74,12.26,-8.73,-1.56,0.98,5.07,
4.459,3.05,14.20,-8.94,-1.56,0.98,5.07,
4.459,3.05,14.20,-8.94,-1.71,1.30,5.25,
4.46,3.05,14.20,-8.94,-1.88,1.66,5.45,
4.46,3.68,16.01,-7.90,-1.88,1.66,5.45,
4.462,3.68,16.01,-7.90,-2.07,2.06,5.64,
4.465,3.68,16.01,-7.90,-2.24,2.51,5.83,
4.465,4.70,16.73,-5.94,-2.24,2.51,5.83,
4.467,4.70,16.73,-5.94,-2.37,2.97,6.07,
4.469,5.15,15.99,-2.79,-2.37,2.97,6.07,
4.469,5.15,15.99,-2.79,-2.46,3.39,6.33,
4.47,5.15,15.99,-2.79,-2.51,3.72,6.60,
4.473,6.90,15.24,-0.26,-2.51,3.72,6.60,
4.474,6.90,15.24,-0.26,-2.53,3.95,6.79,
4.475,6.90,15.24,-0.26,-2.55,4.13,6.83,
4.478,6.90,15.24,-0.26,-2.60,4.21,6.71,
4.479,8.63,14.10,-1.92,-2.60,4.21,6.71,
4.48,8.63,14.10,-1.92,-2.68,4.16,6.46,
4.483,8.63,14.10,-1.92,-2.80,3.98,6.13,
4.483,8.94,14.54,-2.99,-2.80,3.98,6.13,
4.485,8.94,14.54,-2.99,-2.91,3.68,5.76,
4.488,8.94,14.54,-2.99,-3.04,3.29,5.41,
4.514,6.72,16.33,-2.96,-3.04,3.29,5.41,
4.515,6.72,16.33,-2.96,-3.15,2.93,5.11,
4.515,2.49,17.03,-2.72,-3.15,2.93,5.11,
4.516,2.49,17.03,-2.72,-3.25,2.65,4.85,
4.516,2.49,17.03,-2.72,-3.32,2.45,4.62,
4.516,2.49,17.03,-2.72,-3.35,2.34,4.42,
4.516,-1.20,15.82,-1.08,-3.35,2.34,4.42,
4.517,-1.20,15.82,-1.08,-3.34,2.29,4.26,
4.517,-5.32,13.55,1.01,-3.34,2.29,4.26,
4.517,-5.32,13.55,1.01,-3.31,2.24,4.14,
4.517,-5.32,13.55,1.01,-3.25,2.19,4.07,
4.518,-5.32,13.55,1.01,-3.17,2.10,4.05,
4.518,-9.65,10.89,1.75,-3.17,2.10,4.05,
4.518,-9.65,10.89,1.75,-3.08,1.99,4.06,
4.518,-9.65,10.89,1.75,-2.99,1.89,4.07,
4.519,-12.52,8.38,1.49,-2.99,1.89,4.07,
4.519,-12.52,8.38,1.49,-2.89,1.80,4.08,
4.519,-14.44,6.41,0.65,-2.89,1.80,4.08,
4.52,-14.44,6.41,0.65,-2.79,1.69,4.10,
4.52,-14.44,6.41,0.65,-2.69,1.53,4.12,
4.524,-14.44,6.41,0.65,-2.61,1.31,4.13,
4.525,-14.99,4.72,-0.35,-2.61,1.31,4.13,
4.526,-14.99,4.72,-0.35,-2.53,1.02,4.12,
4.528,-14.58,3.40,-1.28,-2.53,1.02,4.12,
4.529,-14.58,3.40,-1.28,-2.46,0.68,4.08,
4.531,-14.58,3.40,-1.28,-2.39,0.31,4.03,
4.533,-14.58,3.40,-1.28,-2.32,-0.08,3.96,
4.534,-14.10,2.36,-1.92,-2.32,-0.08,3.96,
4.534,-14.10,2.36,-1.92,-2.25,-0.47,3.88,
4.546,-14.10,2.36,-1.92,-2.18,-0.85,3.80,
4.547,-14.21,1.53,-2.50,-2.18,-0.85,3.80,
4.547,-14.21,1.53,-2.50,-2.10,-1.20,3.72,
4.548,-14.21,1.53,-2.50,-2.01,-1.51,3.63,
4.549,-14.08,0.76,-2.89,-2.01,-1.51,3.63,
4.549,-14.08,0.76,-2.89,-1.92,-1.77,3.53,
4.55,-14.08,0.76,-2.89,-1.82,-1.98,3.43,
4.55,-13.86,0.12,-3.27,-1.82,-1.98,3.43,
4.55,-13.86,0.12,-3.27,-1.72,-2.15,3.32,
4.553,-13.86,0.12,-3.27,-1.61,-2.29,3.21,
4.553,-13.31,-0.43,-3.58,-1.61,-2.29,3.21,
4.562,-12.62,-0.93,-3.95,-1.61,-2.29,3.21,
4.563,-12.62,-0.93,-3.95,-1.51,-2.40,3.10,
4.563,-12.62,-0.93,-3.95,-1.40,-2.49,2.98,
4.564,-12.62,-0.93,-3.95,-1.30,-2.56,2.86,
4.564,-12.62,-0.93,-3.95,-1.21,-2.62,2.73,
4.565,-11.99,-1.41,-4.27,-1.21,-2.62,2.73,
4.565,-11.99,-1.41,-4.27,-1.11,-2.65,2.60,
4.568,-11.99,-1.41,-4.27,-1.02,-2.67,2.45,
4.568,-11.37,-1.84,-4.33,-1.02,-2.67,2.45,
4.569,-11.37,-1.84,-4.33,-0.92,-2.68,2.31,
4.573,-11.37,-1.84,-4.33,-0.83,-2.68,2.16,
4.573,-10.77,-2.27,-4.28,-0.83,-2.68,2.16,
4.575,-10.77,-2.27,-4.28,-0.74,-2.67,2.00,
4.577,-10.77,-2.27,-4.28,-0.65,-2.67,1.84,
4.578,-10.12,-2.67,-4.20,-0.65,-2.67,1.84,
4.579,-10.12,-2.67,-4.20,-0.56,-2.66,1.68,
4.582,-10.12,-2.67,-4.20,-0.48,-2.64,1.51,
4.582,-9.48,-3.09,-4.24,-0.48,-2.64,1.51,
4.584,-9.48,-3.09,-4.24,-0.40,-2.62,1.34,
4.587,-9.48,-3.09,-4.24,-0.32,-2.59,1.17,
4.587,-8.94,-3.50,-4.25,-0.32,-2.59,1.17,
4.589,-8.94,-3.50,-4.25,-0.24,-2.55,1.00,
4.592,-8.94,-3.50,-4.25,-0.17,-2.51,0.83,
4.592,-8.56,-3.91,-4.27,-0.17,-2.51,0.83,
4.594,-8.56,-3.91,-4.27,-0.11,-2.46,0.67,
4.597,-8.56,-3.91,-4.27,-0.04,-2.41,0.51,
4.597,-8.28,-4.23,-4.14,-0.04,-2.41,0.51,
4.599,-8.28,-4.23,-4.14,0.02,-2.35,0.35,
4.602,-8.28,-4.23,-4.14,0.08,-2.29,0.19,
4.602,-7.99,-4.49,-4.02,0.08,-2.29,0.19,
4.604,-7.99,-4.49,-4.02,0.14,-2.22,0.04,
4.607,-7.73,-4.63,-3.87,0.14,-2.22,0.04,
4.607,-7.73,-4.63,-3.87,0.20,-2.16,-0.11,
4.609,-7.73,-4.63,-3.87,0.25,-2.10,-0.25,
4.612,-7.73,-4.63,-3.87,0.30,-2.04,-0.40,
4.612,-7.47,-4.76,-3.86,0.30,-2.04,-0.40,
4.614,-7.47,-4.76,-3.86,0.35,-1.97,-0.55,
4.617,-7.47,-4.76,-3.86,0.39,-1.90,-0.70,
4.617,-7.12,-4.92,-3.87,0.39,-1.90,-0.70,
4.619,-7.12,-4.92,-3.87,0.43,-1.82,-0.86,
4.622,-7.12,-4.92,-3.87,0.46,-1.73,-1.02,
4.622,-6.91,-4.92,-3.75,0.46,-1.73,-1.02,
4.625,-6.91,-4.92,-3.75,0.49,-1.65,-1.17,
4.634,-6.83,-4.83,-3.65,0.49,-1.65,-1.17,
4.634,-6.83,-4.83,-3.65,0.52,-1.57,-1.33,
4.634,-6.83,-4.83,-3.65,0.55,-1.48,-1.49,
4.634,-6.85,-4.75,-3.64,0.55,-1.48,-1.49,
4.635,-6.85,-4.75,-3.64,0.57,-1.39,-1.64,
4.635,-6.85,-4.75,-3.64,0.59,-1.29,-1.80,
4.637,-6.85,-4.75,-3.64,0.61,-1.20,-1.94,
4.637,-6.92,-4.73,-3.69,0.61,-1.20,-1.94,
4.647,-6.92,-4.73,-3.69,0.63,-1.10,-2.08,
4.648,-6.92,-4.73,-3.69,0.65,-1.01,-2.21,
4.648,-7.05,-4.72,-3.63,0.65,-1.01,-2.21,
4.648,-7.05,-4.72,-3.63,0.68,-0.92,-2.34,
4.648,-7.11,-4.79,-3.54,0.68,-0.92,-2.34,
4.648,-7.11,-4.79,-3.54,0.70,-0.83,-2.46,
4.649,-7.11,-4.79,-3.54,0.72,-0.75,-2.58,
4.651,-7.12,-4.88,-3.38,0.72,-0.75,-2.58,
4.654,-7.12,-4.88,-3.38,0.75,-0.68,-2.69,
4.669,-7.12,-4.88,-3.38,0.77,-0.61,-2.80,
4.669,-7.12,-4.88,-3.38,0.80,-0.56,-2.91,
4.67,-7.12,-4.99,-3.21,0.80,-0.56,-2.91,
4.67,-7.12,-4.99,-3.21,0.82,-0.51,-3.01,
4.67,-7.12,-4.99,-3.21,0.84,-0.48,-3.11,
4.67,-7.37,-5.15,-3.00,0.84,-0.48,-3.11,
4.671,-7.37,-5.15,-3.00,0.87,-0.46,-3.21,
4.671,-7.37,-5.15,-3.00,0.90,-0.45,-3.30,
4.671,-7.52,-5.20,-2.87,0.90,-0.45,-3.30,
4.671,-7.52,-5.20,-2.87,0.92,-0.44,-3.40,
4.672,-7.19,-5.07,-2.79,0.92,-0.44,-3.40,
4.672,-7.19,-5.07,-2.79,0.94,-0.44,-3.49,
4.675,-7.19,-5.07,-2.79,0.96,-0.42,-3.59,
4.678,-7.19,-5.07,-2.79,0.98,-0.41,-3.69,
4.678,-6.96,-4.89,-2.61,0.98,-0.41,-3.69,
4.678,-6.96,-4.89,-2.61,1.01,-0.39,-3.78,
4.681,-6.96,-4.89,-2.61,1.03,-0.37,-3.88,
4.681,-6.81,-4.71,-2.44,1.03,-0.37,-3.88,
4.683,-6.81,-4.71,-2.44,1.05,-0.36,-3.97,
4.686,-6.81,-4.71,-2.44,1.08,-0.34,-4.07,
4.686,-6.66,-4.56,-2.23,1.08,-0.34,-4.07,
4.688,-6.66,-4.56,-2.23,1.10,-0.34,-4.16,
4.691,-6.64,-4.47,-2.09,1.10,-0.34,-4.16,
4.692,-6.64,-4.47,-2.09,1.13,-0.34,-4.24,
4.693,-6.64,-4.47,-2.09,1.15,-0.33,-4.33,
4.696,-6.64,-4.47,-2.09,1.18,-0.33,-4.41,
4.696,-6.70,-4.37,-2.04,1.18,-0.33,-4.41,
4.698,-6.70,-4.37,-2.04,1.21,-0.33,-4.49,
4.701,-6.70,-4.37,-2.04,1.24,-0.34,-4.57,
4.701,-6.76,-4.11,-1.97,1.24,-0.34,-4.57,
4.703,-6.76,-4.11,-1.97,1.27,-0.36,-4.64,
4.706,-6.75,-3.72,-1.90,1.27,-0.36,-4.64,
4.707,-6.75,-3.72,-1.90,1.30,-0.38,-4.71,
4.709,-6.75,-3.72,-1.90,1.33,-0.40,-4.78,
4.711,-6.75,-3.72,-1.90,1.37,-0.41,-4.85,
4.711,-6.66,-3.42,-1.88,1.37,-0.41,-4.85,
4.713,-6.66,-3.42,-1.88,1.40,-0.44,-4.91,
4.716,-6.66,-3.42,-1.88,1.43,-0.48,-4.98,
4.716,-6.55,-3.22,-1.86,1.43,-0.48,-4.98,
4.718,-6.55,-3.22,-1.86,1.47,-0.52,-5.04,
4.721,-6.55,-3.22,-1.86,1.50,-0.56,-5.10,
4.721,-6.47,-3.08,-1.80,1.50,-0.56,-5.10,
4.723,-6.47,-3.08,-1.80,1.54,-0.60,-5.16,
4.726,-6.38,-2.97,-1.56,1.54,-0.60,-5.16,
4.726,-6.38,-2.97,-1.56,1.57,-0.63,-5.22,
4.728,-6.38,-2.97,-1.56,1.61,-0.66,-5.27,
4.731,-6.38,-2.97,-1.56,1.65,-0.68,-5.32,
4.731,-6.23,-2.83,-1.42,1.65,-0.68,-5.32,
4.733,-6.23,-2.83,-1.42,1.70,-0.69,-5.37,
4.736,-6.23,-2.83,-1.42,1.74,-0.69,-5.42,
4.736,-6.01,-2.68,-1.29,1.74,-0.69,-5.42,
4.738,-6.01,-2.68,-1.29,1.79,-0.68,-5.47,
4.745,-6.01,-2.68,-1.29,1.84,-0.66,-5.51,
4.746,-5.75,-2.60,-1.22,1.84,-0.66,-5.51,
4.746,-5.75,-2.60,-1.22,1.88,-0.65,-5.55,
4.747,-5.51,-2.55,-1.21,1.88,-0.65,-5.55,
4.748,-5.51,-2.55,-1.21,1.93,-0.64,-5.60,
4.748,-5.51,-2.55,-1.21,1.97,-0.63,-5.64,
4.755,-5.51,-2.55,-1.21,2.02,-0.61,-5.69,
4.756,-5.51,-2.55,-1.21,2.06,-0.60,-5.73,
4.756,-5.30,-2.47,-1.23,2.06,-0.60,-5.73,
4.767,-5.30,-2.47,-1.23,2.10,-0.59,-5.77,
4.767,-5.13,-2.37,-1.24,2.10,-0.59,-5.77,
4.768,-5.13,-2.37,-1.24,2.13,-0.58,-5.81,
4.768,-5.13,-2.37,-1.24,2.17,-0.58,-5.85,
4.769,-5.04,-2.16,-1.13,2.17,-0.58,-5.85,
4.769,-5.04,-2.16,-1.13,2.21,-0.59,-5.88,
4.769,-4.87,-1.95,-1.04,2.21,-0.59,-5.88,
4.77,-4.87,-1.95,-1.04,2.25,-0.61,-5.91,
4.775,-4.62,-1.72,-1.00,2.25,-0.61,-5.91,
4.776,-4.62,-1.72,-1.00,2.29,-0.63,-5.93,
4.776,-4.62,-1.72,-1.00,2.33,-0.65,-5.96,
4.777,-4.62,-1.72,-1.00,2.37,-0.67,-5.99,
4.777,-4.62,-1.72,-1.00,2.41,-0.69,-6.02,
4.777,-4.37,-1.46,-0.97,2.41,-0.69,-6.02,
4.778,-4.37,-1.46,-0.97,2.45,-0.71,-6.05,
4.781,-4.37,-1.46,-0.97,2.49,-0.72,-6.07,
4.781,-4.09,-1.14,-0.91,2.49,-0.72,-6.07,
4.783,-4.09,-1.14,-0.91,2.53,-0.74,-6.10,
4.785,-4.09,-1.14,-0.91,2.57,-0.76,-6.12,
4.786,-3.81,-0.80,-0.92,2.57,-0.76,-6.12,
4.788,-3.81,-0.80,-0.92,2.60,-0.77,-6.15,
4.79,-3.81,-0.80,-0.92,2.63,-0.79,-6.18,
4.791,-3.59,-0.45,-0.92,2.63,-0.79,-6.18,
4.793,-3.59,-0.45,-0.92,2.66,-0.81,-6.20,
4.796,-3.59,-0.45,-0.92,2.69,-0.82,-6.23,
4.796,-3.31,-0.09,-0.86,2.69,-0.82,-6.23,
4.798,-3.31,-0.09,-0.86,2.72,-0.84,-6.25,
4.8,-3.31,-0.09,-0.86,2.74,-0.86,-6.28,
4.8,-3.04,0.24,-0.77,2.74,-0.86,-6.28,
4.802,-3.04,0.24,-0.77,2.76,-0.88,-6.31,
4.805,-3.04,0.24,-0.77,2.78,-0.90,-6.33,
4.806,-2.80,0.53,-0.68,2.78,-0.90,-6.33,
4.808,-2.80,0.53,-0.68,2.80,-0.92,-6.35,
4.81,-2.80,0.53,-0.68,2.82,-0.94,-6.37,
4.81,-2.54,0.83,-0.57,2.82,-0.94,-6.37,
4.812,-2.54,0.83,-0.57,2.84,-0.95,-6.39,
4.815,-2.17,1.13,-0.50,2.84,-0.95,-6.39,
4.816,-2.17,1.13,-0.50,2.86,-0.97,-6.40,
4.817,-2.17,1.13,-0.50,2.87,-0.98,-6.42,
4.841,-2.17,1.13,-0.50,2.89,-0.98,-6.44,
4.841,-1.71,1.43,-0.42,2.89,-0.98,-6.44,
4.841,-1.71,1.43,-0.42,2.90,-0.99,-6.46,
4.841,-1.23,1.78,-0.33,2.90,-0.99,-6.46,
4.842,-1.23,1.78,-0.33,2.92,-0.99,-6.49,
4.842,-1.23,1.78,-0.33,2.93,-0.99,-6.51,
4.842,-1.23,1.78,-0.33,2.95,-0.99,-6.54,
4.842,-0.75,2.17,-0.28,2.95,-0.99,-6.54,
4.843,-0.75,2.17,-0.28,2.96,-0.99,-6.56,
4.843,-0.75,2.17,-0.28,2.97,-0.99,-6.59,
4.843,-0.28,2.62,-0.21,2.97,-0.99,-6.59,
4.843,-0.28,2.62,-0.21,2.98,-0.99,-6.62,
4.844,-0.28,2.62,-0.21,2.99,-0.98,-6.65,
4.844,0.12,3.11,-0.14,2.99,-0.98,-6.65,
4.844,0.12,3.11,-0.14,3.00,-0.98,-6.68,
4.853,0.12,3.11,-0.14,3.01,-0.97,-6.70,
4.854,0.55,3.68,-0.07,3.01,-0.97,-6.70,
4.855,0.55,3.68,-0.07,3.02,-0.97,-6.73,
4.856,0.55,3.68,-0.07,3.02,-0.96,-6.75,
4.856,0.93,4.38,-0.03,3.02,-0.96,-6.75,
4.856,0.93,4.38,-0.03,3.03,-0.96,-6.77,
4.857,0.93,4.38,-0.03,3.04,-0.96,-6.79,
4.857,1.29,5.13,0.06,3.04,-0.96,-6.79,
4.857,1.29,5.13,0.06,3.04,-0.97,-6.80,
4.869,1.29,5.13,0.06,3.04,-0.98,-6.81,
4.87,1.62,5.88,0.12,3.04,-0.98,-6.81,
4.87,1.62,5.88,0.12,3.04,-1.00,-6.82,
4.871,1.62,5.88,0.12,3.04,-1.03,-6.82,
4.871,1.86,6.61,0.23,3.04,-1.03,-6.82,
4.871,1.86,6.61,0.23,3.04,-1.06,-6.82,
4.871,1.86,6.61,0.23,3.03,-1.09,-6.81,
4.872,2.01,7.37,0.39,3.03,-1.09,-6.81,
4.872,2.01,7.37,0.39,3.02,-1.12,-6.79,
4.877,2.11,8.16,0.62,3.02,-1.12,-6.79,
4.878,2.11,8.16,0.62,3.01,-1.15,-6.77,
4.878,2.11,8.16,0.62,3.00,-1.16,-6.74,
4.88,2.11,8.16,0.62,2.99,-1.17,-6.71,
4.881,2.24,9.04,0.91,2.99,-1.17,-6.71,
4.882,2.24,9.04,0.91,2.97,-1.18,-6.67,
4.884,2.24,9.04,0.91,2.95,-1.19,-6.62,
4.885,2.45,9.80,1.12,2.95,-1.19,-6.62,
4.887,2.45,9.80,1.12,2.93,-1.21,-6.57,
4.89,2.61,10.63,1.22,2.93,-1.21,-6.57,
4.89,2.61,10.63,1.22,2.89,-1.23,-6.52,
4.892,2.61,10.63,1.22,2.85,-1.25,-6.45,
4.894,2.61,10.63,1.22,2.81,-1.26,-6.39,
4.894,3.30,11.50,1.43,2.81,-1.26,-6.39,
4.897,3.30,11.50,1.43,2.77,-1.23,-6.32,
4.899,3.30,11.50,1.43,2.72,-1.18,-6.23,
4.899,3.92,12.85,1.67,2.72,-1.18,-6.23,
4.901,3.92,12.85,1.67,2.67,-1.15,-6.13,
4.904,3.92,12.85,1.67,2.61,-1.16,-6.01,
4.904,3.92,14.02,1.56,2.61,-1.16,-6.01,
4.908,3.92,14.02,1.56,2.53,-1.20,-5.87,
4.909,3.92,14.02,1.56,2.42,-1.19,-5.72,
4.909,4.29,14.97,-0.81,2.42,-1.19,-5.72,
4.911,4.29,14.97,-0.81,2.29,-1.15,-5.56,
4.914,4.29,14.97,-0.81,2.17,-1.13,-5.36,
4.914,5.35,16.43,-1.26,2.17,-1.13,-5.36,
4.916,5.35,16.43,-1.26,2.06,-1.29,-5.17,
4.919,5.35,16.43,-1.26,2.03,-1.61,-4.99,
4.919,6.19,15.03,5.23,2.03,-1.61,-4.99,
4.921,6.19,15.03,5.23,2.06,-1.90,-4.82,
4.926,6.19,15.03,5.23,2.11,-2.13,-4.65,
4.926,6.06,11.49,7.78,2.11,-2.13,-4.65,
4.927,6.06,11.49,7.78,2.15,-2.31,-4.45,
4.935,6.06,11.49,7.78,2.17,-2.40,-4.19,
4.935,6.75,9.93,5.99,2.17,-2.40,-4.19,
4.935,6.75,9.93,5.99,2.15,-2.41,-3.90,
4.935,6.75,9.93,5.99,2.08,-2.40,-3.59,
4.936,8.63,10.36,2.66,2.08,-2.40,-3.59,
4.936,8.63,10.36,2.66,1.96,-2.38,-3.28,
4.939,8.63,10.36,2.66,1.82,-2.34,-2.99,
4.939,11.60,11.47,0.03,1.82,-2.34,-2.99,
4.945,11.60,11.47,0.03,1.65,-2.31,-2.72,
4.945,11.60,11.47,0.03,1.50,-2.26,-2.45,
4.945,13.99,11.85,0.82,1.50,-2.26,-2.45,
4.946,13.99,11.85,0.82,1.36,-2.21,-2.17,
4.949,13.99,11.85,0.82,1.24,-2.18,-1.89,
4.949,16.17,11.31,3.76,1.24,-2.18,-1.89,
4.951,16.17,11.31,3.76,1.13,-2.15,-1.61,
4.953,16.17,11.31,3.76,1.04,-2.11,-1.33,
4.954,18.61,10.25,4.63,1.04,-2.11,-1.33,
4.957,18.61,10.25,4.63,0.93,-2.05,-1.04,
4.959,20.14,8.88,2.45,0.93,-2.05,-1.04,
4.96,20.14,8.88,2.45,0.79,-1.97,-0.73,
4.961,20.14,8.88,2.45,0.64,-1.88,-0.40,
4.964,20.68,7.59,0.01,0.64,-1.88,-0.40,
4.964,20.68,7.59,0.01,0.47,-1.76,-0.05,
