
time,ax,ay,az,wx,wy,wz,
0.002,-0.41,-0.22,0.47,0.08,-0.78,-0.35,
0.003,-0.41,-0.22,0.47,0.13,-0.71,-0.34,
0.003,-0.41,-0.22,0.47,0.17,-0.63,-0.33,
0.003,-0.41,-0.22,0.47,0.21,-0.55,-0.32,
0.003,-0.08,0.03,0.20,0.21,-0.55,-0.32,
0.003,-0.08,0.03,0.20,0.24,-0.46,-0.32,
0.004,-0.08,0.03,0.20,0.26,-0.37,-0.32,
0.004,0.18,0.17,-0.00,0.26,-0.37,-0.32,
0.004,0.18,0.17,-0.00,0.28,-0.29,-0.33,
0.009,0.31,0.19,-0.16,0.28,-0.29,-0.33,
0.01,0.31,0.19,-0.16,0.29,-0.22,-0.33,
0.01,0.31,0.19,-0.16,0.30,-0.15,-0.34,
0.012,0.31,0.19,-0.16,0.30,-0.10,-0.34,
0.012,0.31,0.14,-0.24,0.30,-0.10,-0.34,
0.013,0.31,0.14,-0.24,0.29,-0.06,-0.34,
0.016,0.31,0.14,-0.24,0.27,-0.03,-0.34,
0.016,0.20,-0.01,-0.24,0.27,-0.03,-0.34,
0.019,0.20,-0.01,-0.24,0.26,-0.01,-0.34,
0.022,0.20,-0.01,-0.24,0.23,0.00,-0.34,
0.022,0.10,-0.13,-0.19,0.23,0.00,-0.34,
0.026,0.05,-0.17,-0.04,0.23,0.00,-0.34,
0.026,0.05,-0.17,-0.04,0.21,-0.00,-0.34,
0.027,0.05,-0.17,-0.04,0.18,-0.02,-0.34,
0.029,0.05,-0.17,-0.04,0.16,-0.05,-0.34,
0.031,0.05,-0.17,-0.04,0.13,-0.09,-0.34,
0.031,-0.02,-0.23,0.06,0.13,-0.09,-0.34,
0.033,-0.02,-0.23,0.06,0.11,-0.13,-0.34,
0.036,-0.02,-0.23,0.06,0.08,-0.17,-0.35,
0.036,-0.02,-0.30,0.09,0.08,-0.17,-0.35,
0.038,-0.02,-0.30,0.09,0.05,-0.22,-0.35,
0.043,-0.02,-0.30,0.09,0.02,-0.26,-0.35,
0.043,0.01,-0.33,0.09,0.02,-0.26,-0.35,
0.045,0.01,-0.33,0.09,-0.01,-0.30,-0.36,
0.046,0.01,-0.33,0.09,-0.03,-0.34,-0.36,
0.046,0.07,-0.33,0.10,-0.03,-0.34,-0.36,
0.048,0.07,-0.33,0.10,-0.05,-0.37,-0.37,
0.051,0.07,-0.33,0.10,-0.08,-0.39,-0.37,
0.051,0.14,-0.27,0.10,-0.08,-0.39,-0.37,
0.054,0.14,-0.27,0.10,-0.09,-0.41,-0.37,
0.056,0.14,-0.27,0.10,-0.11,-0.42,-0.38,
0.056,0.18,-0.24,0.12,-0.11,-0.42,-0.38,
0.058,0.18,-0.24,0.12,-0.12,-0.42,-0.38,
0.061,0.18,-0.24,0.12,-0.12,-0.42,-0.38,
0.061,0.21,-0.22,0.18,-0.12,-0.42,-0.38,
0.063,0.21,-0.22,0.18,-0.12,-0.41,-0.38,
0.066,0.21,-0.22,0.18,-0.12,-0.40,-0.39,
0.067,0.25,-0.25,0.25,-0.12,-0.40,-0.39,
0.068,0.25,-0.25,0.25,-0.12,-0.39,-0.39,
0.07,0.25,-0.25,0.25,-0.11,-0.38,-0.39,
0.071,0.27,-0.28,0.30,-0.11,-0.38,-0.39,
0.074,0.27,-0.28,0.30,-0.10,-0.36,-0.39,
0.076,0.27,-0.28,0.30,-0.09,-0.35,-0.40,
0.077,0.25,-0.30,0.38,-0.09,-0.35,-0.40,
0.077,0.25,-0.30,0.38,-0.07,-0.34,-0.40,
0.081,0.25,-0.30,0.38,-0.06,-0.32,-0.40,
0.081,0.23,-0.35,0.45,-0.06,-0.32,-0.40,
0.083,0.23,-0.35,0.45,-0.04,-0.31,-0.40,
0.085,0.23,-0.35,0.45,-0.03,-0.31,-0.40,
0.085,0.22,-0.37,0.50,-0.03,-0.31,-0.40,
0.088,0.22,-0.37,0.50,-0.01,-0.30,-0.40,
0.091,0.22,-0.37,0.50,0.01,-0.29,-0.41,
0.091,0.18,-0.38,0.53,0.01,-0.29,-0.41,
0.093,0.18,-0.38,0.53,0.03,-0.29,-0.41,
0.095,0.18,-0.38,0.53,0.04,-0.29,-0.41,
0.095,0.17,-0.37,0.57,0.04,-0.29,-0.41,
0.097,0.17,-0.37,0.57,0.05,-0.29,-0.41,
0.101,0.17,-0.37,0.57,0.07,-0.30,-0.41,
0.101,0.15,-0.37,0.54,0.07,-0.30,-0.41,
0.102,0.15,-0.37,0.54,0.08,-0.30,-0.41,
0.105,0.15,-0.37,0.54,0.09,-0.30,-0.41,
0.106,0.11,-0.36,0.51,0.09,-0.30,-0.41,
0.108,0.11,-0.36,0.51,0.10,-0.31,-0.41,
0.11,0.11,-0.36,0.51,0.11,-0.31,-0.41,
0.111,0.08,-0.33,0.45,0.11,-0.31,-0.41,
0.113,0.08,-0.33,0.45,0.11,-0.31,-0.41,
0.115,0.08,-0.33,0.45,0.12,-0.31,-0.42,
0.115,0.02,-0.32,0.38,0.12,-0.31,-0.42,
0.117,0.02,-0.32,0.38,0.12,-0.31,-0.42,
0.12,0.02,-0.32,0.38,0.13,-0.32,-0.42,
0.12,-0.01,-0.30,0.30,0.13,-0.32,-0.42,
0.122,-0.01,-0.30,0.30,0.13,-0.31,-0.42,
0.125,-0.01,-0.30,0.30,0.13,-0.31,-0.41,
0.126,-0.06,-0.28,0.22,0.13,-0.31,-0.41,
0.127,-0.06,-0.28,0.22,0.13,-0.30,-0.41,
0.13,-0.06,-0.28,0.22,0.13,-0.30,-0.41,
0.13,-0.12,-0.27,0.17,0.13,-0.30,-0.41,
0.132,-0.12,-0.27,0.17,0.13,-0.29,-0.41,
0.135,-0.12,-0.27,0.17,0.13,-0.29,-0.41,
0.135,-0.16,-0.26,0.11,0.13,-0.29,-0.41,
0.137,-0.16,-0.26,0.11,0.13,-0.28,-0.41,
0.143,-0.16,-0.26,0.11,0.13,-0.27,-0.40,
0.143,-0.20,-0.25,0.06,0.13,-0.27,-0.40,
0.143,-0.20,-0.25,0.06,0.13,-0.27,-0.40,
0.145,-0.20,-0.25,0.06,0.13,-0.27,-0.40,
0.145,-0.23,-0.27,0.02,0.13,-0.27,-0.40,
0.147,-0.23,-0.27,0.02,0.13,-0.26,-0.40,
0.15,-0.23,-0.27,0.02,0.13,-0.26,-0.39,
0.15,-0.27,-0.29,-0.03,0.13,-0.26,-0.39,
0.152,-0.27,-0.29,-0.03,0.14,-0.26,-0.39,
0.155,-0.27,-0.29,-0.03,0.13,-0.26,-0.39,
0.17,-0.30,-0.30,-0.09,0.13,-0.26,-0.39,
0.17,-0.30,-0.30,-0.09,0.13,-0.25,-0.39,
0.171,-0.30,-0.30,-0.09,0.13,-0.25,-0.39,
0.171,-0.32,-0.30,-0.14,0.13,-0.25,-0.39,
0.171,-0.32,-0.30,-0.14,0.13,-0.25,-0.39,
0.171,-0.32,-0.30,-0.14,0.13,-0.25,-0.38,
0.172,-0.32,-0.29,-0.17,0.13,-0.25,-0.38,
0.172,-0.32,-0.29,-0.17,0.12,-0.24,-0.38,
0.172,-0.32,-0.29,-0.17,0.12,-0.24,-0.38,
0.172,-0.31,-0.25,-0.21,0.12,-0.24,-0.38,
0.174,-0.31,-0.25,-0.21,0.11,-0.24,-0.38,
0.175,-0.31,-0.25,-0.21,0.11,-0.24,-0.38,
0.175,-0.32,-0.23,-0.25,0.11,-0.24,-0.38,
0.177,-0.32,-0.23,-0.25,0.10,-0.23,-0.38,
0.179,-0.32,-0.23,-0.25,0.09,-0.23,-0.37,
0.18,-0.31,-0.25,-0.28,0.09,-0.23,-0.37,
0.182,-0.31,-0.25,-0.28,0.09,-0.23,-0.37,
0.184,-0.31,-0.25,-0.28,0.08,-0.22,-0.37,
0.184,-0.32,-0.22,-0.27,0.08,-0.22,-0.37,
0.187,-0.32,-0.22,-0.27,0.07,-0.22,-0.37,
0.189,-0.32,-0.22,-0.27,0.07,-0.22,-0.36,
0.19,-0.36,-0.23,-0.27,0.07,-0.22,-0.36,
0.192,-0.36,-0.23,-0.27,0.06,-0.21,-0.36,
0.194,-0.36,-0.23,-0.27,0.05,-0.21,-0.36,
0.194,-0.38,-0.22,-0.28,0.05,-0.21,-0.36,
0.197,-0.38,-0.22,-0.28,0.04,-0.20,-0.35,
0.199,-0.38,-0.22,-0.28,0.03,-0.20,-0.35,
0.199,-0.42,-0.22,-0.25,0.03,-0.20,-0.35,
0.202,-0.42,-0.22,-0.25,0.03,-0.20,-0.34,
0.204,-0.42,-0.22,-0.25,0.02,-0.19,-0.34,
0.204,-0.42,-0.22,-0.19,0.02,-0.19,-0.34,
0.207,-0.42,-0.22,-0.19,0.01,-0.19,-0.34,
0.21,-0.42,-0.22,-0.19,0.01,-0.19,-0.33,
0.21,-0.45,-0.21,-0.17,0.01,-0.19,-0.33,
0.211,-0.45,-0.21,-0.17,0.01,-0.18,-0.33,
0.214,-0.45,-0.21,-0.17,0.01,-0.18,-0.32,
0.214,-0.47,-0.22,-0.13,0.01,-0.18,-0.32,
0.216,-0.47,-0.22,-0.13,0.00,-0.17,-0.32,
0.219,-0.47,-0.22,-0.13,0.00,-0.17,-0.32,
0.22,-0.48,-0.23,-0.11,0.00,-0.17,-0.32,
0.222,-0.48,-0.23,-0.11,0.00,-0.16,-0.31,
0.224,-0.48,-0.23,-0.11,0.00,-0.15,-0.31,
0.225,-0.48,-0.22,-0.07,0.00,-0.15,-0.31,
0.226,-0.48,-0.22,-0.07,0.00,-0.15,-0.30,
0.23,-0.48,-0.22,-0.07,0.01,-0.15,-0.30,
0.231,-0.47,-0.22,-0.04,0.01,-0.15,-0.30,
0.231,-0.47,-0.22,-0.04,0.01,-0.14,-0.29,
0.235,-0.47,-0.22,-0.04,0.01,-0.14,-0.29,
0.235,-0.47,-0.21,-0.02,0.01,-0.14,-0.29,
0.236,-0.47,-0.21,-0.02,0.01,-0.14,-0.29,
0.239,-0.47,-0.21,-0.02,0.02,-0.13,-0.29,
0.239,-0.46,-0.21,-0.04,0.02,-0.13,-0.29,
0.242,-0.46,-0.21,-0.04,0.02,-0.13,-0.28,
0.247,-0.46,-0.18,-0.02,0.02,-0.13,-0.28,
0.248,-0.46,-0.18,-0.02,0.02,-0.12,-0.28,
0.248,-0.46,-0.18,-0.02,0.03,-0.12,-0.27,
0.249,-0.46,-0.18,-0.02,0.03,-0.12,-0.27,
0.249,-0.46,-0.18,-0.03,0.03,-0.12,-0.27,
0.252,-0.46,-0.18,-0.03,0.03,-0.12,-0.27,
0.254,-0.42,-0.16,-0.06,0.03,-0.12,-0.27,
0.254,-0.42,-0.16,-0.06,0.03,-0.12,-0.26,
0.259,-0.42,-0.16,-0.06,0.03,-0.11,-0.26,
0.26,-0.43,-0.13,-0.09,0.03,-0.11,-0.26,
0.26,-0.43,-0.13,-0.09,0.03,-0.11,-0.25,
0.261,-0.43,-0.13,-0.09,0.03,-0.11,-0.25,
0.264,-0.43,-0.11,-0.12,0.03,-0.11,-0.25,
0.265,-0.43,-0.11,-0.12,0.03,-0.12,-0.24,
0.266,-0.43,-0.11,-0.12,0.03,-0.12,-0.24,
0.269,-0.43,-0.11,-0.12,0.03,-0.12,-0.23,
0.269,-0.43,-0.07,-0.13,0.03,-0.12,-0.23,
0.271,-0.43,-0.07,-0.13,0.03,-0.12,-0.23,
0.274,-0.41,-0.02,-0.17,0.03,-0.12,-0.23,
0.275,-0.41,-0.02,-0.17,0.02,-0.12,-0.22,
0.277,-0.41,-0.02,-0.17,0.02,-0.12,-0.21,
0.279,-0.41,-0.02,-0.17,0.01,-0.12,-0.20,
0.279,-0.40,0.02,-0.17,0.01,-0.12,-0.20,
0.281,-0.40,0.02,-0.17,0.01,-0.12,-0.20,
0.285,-0.40,0.02,-0.17,0.00,-0.12,-0.19,
0.285,-0.38,0.02,-0.17,0.00,-0.12,-0.19,
0.287,-0.38,0.02,-0.17,-0.01,-0.12,-0.18,
0.29,-0.36,0.02,-0.17,-0.01,-0.12,-0.18,
0.29,-0.36,0.02,-0.17,-0.01,-0.12,-0.17,
0.292,-0.36,0.02,-0.17,-0.02,-0.13,-0.17,
0.293,-0.36,0.02,-0.17,-0.03,-0.13,-0.16,
0.294,-0.30,0.04,-0.18,-0.03,-0.13,-0.16,
0.296,-0.30,0.04,-0.18,-0.03,-0.13,-0.15,
0.298,-0.30,0.04,-0.18,-0.04,-0.13,-0.15,
0.299,-0.25,0.04,-0.15,-0.04,-0.13,-0.15,
0.302,-0.25,0.04,-0.15,-0.05,-0.13,-0.14,
0.304,-0.25,0.04,-0.15,-0.05,-0.13,-0.13,
0.305,-0.19,0.04,-0.13,-0.05,-0.13,-0.13,
0.306,-0.19,0.04,-0.13,-0.05,-0.13,-0.13,
0.309,-0.19,0.04,-0.13,-0.06,-0.13,-0.12,
0.31,-0.13,0.01,-0.09,-0.06,-0.13,-0.12,
0.311,-0.13,0.01,-0.09,-0.06,-0.12,-0.12,
0.314,-0.09,-0.00,-0.04,-0.06,-0.12,-0.12,
0.314,-0.09,-0.00,-0.04,-0.06,-0.12,-0.12,
0.316,-0.09,-0.00,-0.04,-0.06,-0.11,-0.11,
0.318,-0.09,-0.00,-0.04,-0.06,-0.11,-0.11,
0.319,-0.09,-0.04,0.03,-0.06,-0.11,-0.11,
0.335,-0.09,-0.04,0.03,-0.06,-0.11,-0.11,
0.335,-0.10,-0.07,0.07,-0.06,-0.11,-0.11,
0.335,-0.10,-0.07,0.07,-0.06,-0.11,-0.11,
0.336,-0.10,-0.07,0.07,-0.06,-0.10,-0.11,
0.336,-0.10,-0.07,0.07,-0.06,-0.10,-0.11,
0.336,-0.07,-0.06,0.11,-0.06,-0.10,-0.11,
0.336,-0.07,-0.06,0.11,-0.05,-0.10,-0.10,
0.336,-0.05,-0.06,0.17,-0.05,-0.10,-0.10,
0.337,-0.05,-0.06,0.17,-0.05,-0.09,-0.10,
0.337,-0.05,-0.06,0.17,-0.05,-0.09,-0.10,
0.338,-0.06,-0.06,0.20,-0.05,-0.09,-0.10,
0.338,-0.06,-0.06,0.20,-0.04,-0.08,-0.10,
0.34,-0.06,-0.06,0.20,-0.04,-0.08,-0.10,
0.343,-0.03,-0.05,0.24,-0.04,-0.08,-0.10,
0.343,-0.03,-0.05,0.24,-0.03,-0.07,-0.09,
0.345,-0.03,-0.05,0.24,-0.03,-0.07,-0.09,
0.348,-0.03,-0.05,0.24,-0.03,-0.06,-0.09,
0.348,-0.02,-0.06,0.28,-0.03,-0.06,-0.09,
0.353,-0.02,-0.06,0.28,-0.03,-0.06,-0.09,
0.353,0.00,-0.07,0.28,-0.03,-0.06,-0.09,
0.353,0.00,-0.07,0.28,-0.02,-0.05,-0.09,
0.356,0.00,-0.07,0.28,-0.02,-0.05,-0.08,
0.358,-0.01,-0.09,0.32,-0.02,-0.05,-0.08,
0.359,-0.01,-0.09,0.32,-0.02,-0.05,-0.08,
0.361,-0.01,-0.09,0.32,-0.02,-0.05,-0.08,
0.363,-0.00,-0.10,0.34,-0.02,-0.05,-0.08,
0.363,-0.00,-0.10,0.34,-0.02,-0.05,-0.08,
0.365,-0.00,-0.10,0.34,-0.01,-0.06,-0.08,
0.368,-0.00,-0.10,0.34,-0.01,-0.06,-0.08,
0.368,-0.00,-0.12,0.36,-0.01,-0.06,-0.08,
0.37,-0.00,-0.12,0.36,-0.01,-0.06,-0.08,
0.373,-0.00,-0.12,0.36,-0.01,-0.07,-0.08,
0.373,-0.00,-0.16,0.37,-0.01,-0.07,-0.08,
0.375,-0.00,-0.16,0.37,-0.01,-0.07,-0.08,
0.378,-0.00,-0.16,0.37,-0.01,-0.08,-0.08,
0.378,0.01,-0.17,0.39,-0.01,-0.08,-0.08,
0.38,0.01,-0.17,0.39,-0.00,-0.08,-0.08,
0.382,0.01,-0.17,0.39,0.00,-0.08,-0.08,
0.382,-0.00,-0.17,0.37,0.00,-0.08,-0.08,
0.385,-0.00,-0.17,0.37,0.01,-0.09,-0.09,
0.387,-0.00,-0.17,0.37,0.01,-0.09,-0.09,
0.387,-0.03,-0.19,0.35,0.01,-0.09,-0.09,
0.39,-0.03,-0.19,0.35,0.02,-0.09,-0.09,
0.392,-0.03,-0.19,0.35,0.02,-0.09,-0.09,
0.393,-0.06,-0.19,0.30,0.02,-0.09,-0.09,
0.395,-0.06,-0.19,0.30,0.03,-0.09,-0.09,
0.397,-0.06,-0.19,0.30,0.04,-0.10,-0.09,
0.397,-0.08,-0.20,0.24,0.04,-0.10,-0.09,
0.4,-0.08,-0.20,0.24,0.04,-0.10,-0.09,
0.402,-0.08,-0.20,0.24,0.05,-0.10,-0.09,
0.402,-0.10,-0.18,0.17,0.05,-0.10,-0.09,
0.405,-0.10,-0.18,0.17,0.06,-0.09,-0.09,
0.407,-0.10,-0.18,0.17,0.06,-0.09,-0.09,
0.409,-0.12,-0.17,0.09,0.06,-0.09,-0.09,
0.41,-0.12,-0.17,0.09,0.07,-0.09,-0.09,
0.413,-0.12,-0.17,0.09,0.07,-0.09,-0.09,
0.413,-0.12,-0.14,-0.04,0.07,-0.09,-0.09,
0.415,-0.12,-0.14,-0.04,0.08,-0.09,-0.09,
0.417,-0.12,-0.14,-0.04,0.08,-0.09,-0.09,
0.417,-0.13,-0.10,-0.10,0.08,-0.09,-0.09,
0.42,-0.13,-0.10,-0.10,0.08,-0.08,-0.08,
0.422,-0.13,-0.10,-0.10,0.08,-0.08,-0.08,
0.422,-0.13,-0.06,-0.18,0.08,-0.08,-0.08,
0.425,-0.13,-0.06,-0.18,0.08,-0.07,-0.08,
0.427,-0.13,-0.06,-0.18,0.08,-0.07,-0.07,
0.427,-0.14,-0.06,-0.23,0.08,-0.07,-0.07,
0.43,-0.14,-0.06,-0.23,0.07,-0.07,-0.07,
0.433,-0.14,-0.06,-0.23,0.07,-0.07,-0.07,
0.433,-0.17,-0.04,-0.27,0.07,-0.07,-0.07,
0.434,-0.17,-0.04,-0.27,0.06,-0.07,-0.06,
0.437,-0.17,-0.04,-0.27,0.05,-0.07,-0.06,
0.437,-0.20,0.00,-0.29,0.05,-0.07,-0.06,
0.439,-0.20,0.00,-0.29,0.05,-0.07,-0.05,
0.443,-0.22,0.06,-0.25,0.05,-0.07,-0.05,
0.443,-0.22,0.06,-0.25,0.04,-0.07,-0.05,
0.444,-0.22,0.06,-0.25,0.03,-0.07,-0.05,
0.447,-0.22,0.06,-0.25,0.02,-0.07,-0.04,
0.447,-0.26,0.11,-0.17,0.02,-0.07,-0.04,
0.449,-0.26,0.11,-0.17,0.02,-0.07,-0.03,
0.452,-0.26,0.11,-0.17,0.01,-0.07,-0.03,
0.452,-0.29,0.15,-0.09,0.01,-0.07,-0.03,
0.454,-0.29,0.15,-0.09,0.00,-0.07,-0.02,
0.459,-0.29,0.15,-0.09,-0.00,-0.08,-0.02,
0.459,-0.31,0.20,0.05,-0.00,-0.08,-0.02,
0.46,-0.31,0.20,0.05,-0.01,-0.09,-0.01,
0.462,-0.31,0.20,0.05,-0.01,-0.10,0.00,
0.462,-0.30,0.26,0.22,-0.01,-0.10,0.00,
0.464,-0.30,0.26,0.22,-0.01,-0.12,0.01,
0.467,-0.30,0.26,0.22,-0.01,-0.13,0.01,
0.467,-0.27,0.24,0.40,-0.01,-0.13,0.01,
0.469,-0.27,0.24,0.40,-0.01,-0.15,0.01,
0.472,-0.27,0.24,0.40,-0.01,-0.16,0.02,
0.472,-0.24,0.26,0.60,-0.01,-0.16,0.02,
0.475,-0.24,0.26,0.60,-0.01,-0.17,0.02,
0.478,-0.23,0.35,0.76,-0.01,-0.17,0.02,
0.482,-0.23,0.35,0.76,-0.01,-0.18,0.02,
0.482,-0.23,0.35,0.76,0.00,-0.20,0.02,
0.482,-0.23,0.35,0.76,0.01,-0.21,0.02,
0.482,-0.13,0.45,0.85,0.01,-0.21,0.02,
0.484,-0.13,0.45,0.85,0.02,-0.21,0.02,
0.493,-0.13,0.45,0.85,0.04,-0.22,0.01,
0.494,-0.07,0.39,0.92,0.04,-0.22,0.01,
0.494,-0.07,0.39,0.92,0.06,-0.22,0.01,
0.494,0.17,0.38,0.92,0.06,-0.22,0.01,
0.494,0.17,0.38,0.92,0.08,-0.22,-0.01,
0.497,0.17,0.38,0.92,0.10,-0.22,-0.06,
0.499,0.47,0.32,0.91,0.10,-0.22,-0.06,
0.499,0.47,0.32,0.91,0.13,-0.23,-0.11,
0.5,0.47,0.32,0.91,0.15,-0.24,-0.15,
0.502,0.47,0.32,0.91,0.17,-0.23,-0.20,
0.502,0.52,-0.01,0.69,0.17,-0.23,-0.20,
0.504,0.52,-0.01,0.69,0.18,-0.22,-0.24,
0.507,0.12,-1.49,0.02,0.18,-0.22,-0.24,
0.507,0.12,-1.49,0.02,0.17,-0.17,-0.26,
0.509,0.12,-1.49,0.02,0.16,-0.07,-0.27,
0.512,0.12,-1.49,0.02,0.14,0.03,-0.28,
0.512,-0.14,-1.38,-0.05,0.14,0.03,-0.28,
0.514,-0.14,-1.38,-0.05,0.11,0.10,-0.29,
0.516,-0.14,-1.38,-0.05,0.09,0.13,-0.29,
0.517,0.10,-1.04,0.26,0.09,0.13,-0.29,
0.519,0.10,-1.04,0.26,0.06,0.12,-0.28,
0.521,0.10,-1.04,0.26,0.03,0.09,-0.29,
0.522,0.04,-0.76,0.50,0.03,0.09,-0.29,
0.524,0.04,-0.76,0.50,0.00,0.04,-0.28,
0.528,0.04,-0.76,0.50,-0.03,-0.02,-0.28,
0.529,-0.18,-0.64,0.59,-0.03,-0.02,-0.28,
0.531,-0.18,-0.64,0.59,-0.06,-0.09,-0.28,
0.533,-0.18,-0.64,0.59,-0.08,-0.16,-0.28,
0.533,-0.43,-0.49,0.66,-0.08,-0.16,-0.28,
0.535,-0.43,-0.49,0.66,-0.11,-0.24,-0.27,
0.537,-0.43,-0.49,0.66,-0.13,-0.32,-0.27,
0.537,-0.41,-0.64,0.58,-0.13,-0.32,-0.27,
0.539,-0.41,-0.64,0.58,-0.14,-0.37,-0.31,
0.542,-0.41,-0.64,0.58,-0.16,-0.42,-0.39,
0.544,-0.10,-1.06,0.52,-0.16,-0.42,-0.39,
0.544,-0.10,-1.06,0.52,-0.17,-0.48,-0.45,
0.547,0.01,-0.97,0.57,-0.17,-0.48,-0.45,
0.547,0.01,-0.97,0.57,-0.19,-0.54,-0.52,
0.549,0.01,-0.97,0.57,-0.21,-0.58,-0.59,
0.551,0.18,-0.69,0.49,-0.21,-0.58,-0.59,
0.552,0.18,-0.69,0.49,-0.23,-0.61,-0.65,
0.554,0.18,-0.69,0.49,-0.25,-0.64,-0.70,
0.556,0.28,-0.28,0.46,-0.25,-0.64,-0.70,
0.557,0.28,-0.28,0.46,-0.27,-0.68,-0.73,
0.559,0.28,-0.28,0.46,-0.30,-0.71,-0.75,
0.562,0.27,0.00,0.38,-0.30,-0.71,-0.75,
0.562,0.27,0.00,0.38,-0.33,-0.76,-0.76,
0.563,0.27,0.00,0.38,-0.36,-0.80,-0.77,
0.566,0.27,0.00,0.38,-0.38,-0.85,-0.76,
0.566,0.17,0.26,0.26,-0.38,-0.85,-0.76,
0.568,0.17,0.26,0.26,-0.41,-0.90,-0.75,
0.571,0.04,0.44,0.18,-0.41,-0.90,-0.75,
0.571,0.04,0.44,0.18,-0.44,-0.95,-0.74,
0.575,0.04,0.44,0.18,-0.47,-1.00,-0.72,
0.578,-0.13,0.53,0.15,-0.47,-1.00,-0.72,
0.579,-0.13,0.53,0.15,-0.49,-1.06,-0.70,
0.58,-0.13,0.53,0.15,-0.51,-1.12,-0.68,
0.582,-0.42,0.49,0.06,-0.51,-1.12,-0.68,
0.582,-0.42,0.49,0.06,-0.53,-1.19,-0.66,
0.583,-0.42,0.49,0.06,-0.54,-1.25,-0.63,
0.587,-0.42,0.49,0.06,-0.55,-1.31,-0.60,
0.587,-0.76,0.47,0.03,-0.55,-1.31,-0.60,
0.588,-0.76,0.47,0.03,-0.56,-1.37,-0.57,
0.591,-1.05,0.44,0.07,-0.56,-1.37,-0.57,
0.592,-1.05,0.44,0.07,-0.56,-1.43,-0.54,
0.594,-1.05,0.44,0.07,-0.56,-1.49,-0.50,
0.596,-0.62,0.26,0.69,-0.56,-1.49,-0.50,
0.597,-0.62,0.26,0.69,-0.55,-1.59,-0.47,
0.598,-0.62,0.26,0.69,-0.55,-1.76,-0.42,
0.601,-0.22,-0.02,0.68,-0.55,-1.76,-0.42,
0.601,-0.22,-0.02,0.68,-0.54,-1.89,-0.36,
0.603,-0.22,-0.02,0.68,-0.53,-1.97,-0.30,
0.606,-0.27,-0.15,0.09,-0.53,-1.97,-0.30,
0.607,-0.27,-0.15,0.09,-0.50,-2.02,-0.23,
0.609,-0.27,-0.15,0.09,-0.47,-2.05,-0.15,
0.612,-0.52,-0.03,-0.41,-0.47,-2.05,-0.15,
0.612,-0.52,-0.03,-0.41,-0.43,-2.02,-0.08,
0.613,-0.52,-0.03,-0.41,-0.38,-1.96,-0.01,
0.616,-0.80,0.17,-0.85,-0.38,-1.96,-0.01,
0.616,-0.80,0.17,-0.85,-0.33,-1.85,0.06,
0.618,-0.80,0.17,-0.85,-0.27,-1.71,0.12,
0.621,-1.03,0.42,-1.19,-0.27,-1.71,0.12,
0.621,-1.03,0.42,-1.19,-0.21,-1.52,0.16,
0.623,-1.03,0.42,-1.19,-0.15,-1.30,0.20,
0.627,-1.22,0.63,-1.27,-0.15,-1.30,0.20,
0.628,-1.22,0.63,-1.27,-0.11,-1.07,0.23,
0.629,-1.22,0.63,-1.27,-0.07,-0.82,0.25,
0.631,-1.38,0.80,-1.29,-0.07,-0.82,0.25,
0.631,-1.38,0.80,-1.29,-0.03,-0.56,0.28,
0.633,-1.38,0.80,-1.29,-0.01,-0.30,0.30,
0.636,-1.38,0.80,-1.29,0.01,-0.04,0.32,
0.636,-1.54,0.93,-1.34,0.01,-0.04,0.32,
0.638,-1.54,0.93,-1.34,0.03,0.20,0.34,
0.64,-1.55,0.97,-1.01,0.03,0.20,0.34,
0.641,-1.55,0.97,-1.01,0.04,0.41,0.37,
0.651,-1.55,0.97,-1.01,0.06,0.59,0.40,
0.651,-1.45,0.86,-0.47,0.06,0.59,0.40,
0.652,-1.45,0.86,-0.47,0.08,0.74,0.44,
0.652,-1.45,0.86,-0.47,0.10,0.87,0.48,
0.652,-1.38,0.65,0.02,0.10,0.87,0.48,
0.684,-1.38,0.65,0.02,0.13,0.97,0.53,
0.685,-1.41,0.45,0.41,0.13,0.97,0.53,
0.685,-1.45,0.32,0.73,0.13,0.97,0.53,
0.686,-1.45,0.19,0.94,0.13,0.97,0.53,
0.686,-1.45,0.19,0.94,0.16,1.04,0.58,
0.687,-1.45,0.19,0.94,0.19,1.10,0.63,
0.687,-1.45,0.19,0.94,0.22,1.14,0.68,
0.687,-1.45,0.19,0.94,0.24,1.17,0.74,
0.688,-1.45,0.19,0.94,0.27,1.19,0.79,
0.688,-1.45,0.19,0.94,0.30,1.19,0.83,
0.688,-1.45,0.19,0.94,0.32,1.19,0.87,
0.688,-1.45,0.19,0.94,0.34,1.19,0.91,
0.689,-1.45,0.08,1.03,0.34,1.19,0.91,
0.689,-1.45,0.08,1.03,0.36,1.18,0.94,
0.689,-1.45,0.08,1.03,0.38,1.17,0.97,
0.69,-1.48,0.09,0.72,0.38,1.17,0.97,
0.69,-1.48,0.15,0.20,0.38,1.17,0.97,
0.69,-1.48,0.15,0.20,0.38,1.16,1.00,
0.69,-1.48,0.15,0.20,0.39,1.16,1.03,
0.691,-1.48,0.15,0.20,0.38,1.15,1.05,
0.691,-1.45,0.06,-0.30,0.38,1.15,1.05,
0.691,-1.45,0.06,-0.30,0.37,1.15,1.08,
0.691,-1.45,0.06,-0.30,0.36,1.17,1.11,
0.692,-1.45,0.06,-0.30,0.34,1.19,1.15,
0.692,-1.50,-0.12,-0.73,0.34,1.19,1.15,
0.692,-1.50,-0.12,-0.73,0.32,1.22,1.18,
0.696,-1.50,-0.12,-0.73,0.29,1.26,1.22,
0.697,-1.46,-0.56,-1.23,0.29,1.26,1.22,
0.697,-1.46,-0.56,-1.23,0.27,1.33,1.24,
0.7,-1.46,-0.56,-1.23,0.25,1.43,1.27,
0.7,-1.31,-1.21,-1.96,0.25,1.43,1.27,
0.702,-1.31,-1.21,-1.96,0.22,1.55,1.29,
0.705,-1.31,-1.21,-1.96,0.20,1.69,1.30,
0.705,-1.06,-1.51,-2.32,0.20,1.69,1.30,
0.707,-1.06,-1.51,-2.32,0.18,1.85,1.31,
0.71,-0.76,-1.42,-2.10,0.18,1.85,1.31,
0.711,-0.76,-1.42,-2.10,0.16,2.00,1.31,
0.712,-0.76,-1.42,-2.10,0.14,2.13,1.31,
0.715,-0.76,-1.42,-2.10,0.09,2.17,1.31,
0.715,-0.57,-1.08,-1.19,0.09,2.17,1.31,
0.717,-0.57,-1.08,-1.19,-0.04,1.99,1.32,
0.72,-0.57,-1.08,-1.19,-0.25,1.62,1.35,
0.721,-0.64,-0.77,-0.34,-0.25,1.62,1.35,
0.723,-0.64,-0.77,-0.34,-0.38,1.38,1.38,
0.725,-0.64,-0.77,-0.34,-0.42,1.29,1.39,
0.725,-0.25,-1.30,-0.68,-0.42,1.29,1.39,
0.727,-0.25,-1.30,-0.68,-0.44,1.19,1.40,
0.729,-0.25,-1.30,-0.68,-0.47,1.02,1.42,
0.73,-0.23,-1.28,0.06,-0.47,1.02,1.42,
0.733,-0.23,-1.28,0.06,-0.51,0.83,1.45,
0.735,-0.23,-1.28,0.06,-0.51,0.67,1.47,
0.736,-0.31,-1.00,0.57,-0.51,0.67,1.47,
0.738,-0.31,-1.00,0.57,-0.48,0.55,1.48,
0.739,-0.31,-1.00,0.57,-0.44,0.44,1.50,
0.74,-0.38,-0.66,0.94,-0.44,0.44,1.50,
0.742,-0.38,-0.66,0.94,-0.40,0.35,1.51,
0.745,-0.30,-0.44,1.00,-0.40,0.35,1.51,
0.745,-0.30,-0.44,1.00,-0.36,0.27,1.52,
0.747,-0.30,-0.44,1.00,-0.30,0.22,1.52,
0.749,-0.30,-0.44,1.00,-0.25,0.19,1.52,
0.75,-0.16,-0.30,0.83,-0.25,0.19,1.52,
0.752,-0.16,-0.30,0.83,-0.20,0.19,1.51,
0.754,-0.16,-0.30,0.83,-0.15,0.19,1.51,
0.754,-0.04,-0.19,0.66,-0.15,0.19,1.51,
0.757,-0.04,-0.19,0.66,-0.11,0.19,1.51,
0.76,-0.04,-0.19,0.66,-0.07,0.21,1.50,
0.761,0.09,-0.20,0.39,-0.07,0.21,1.50,
0.763,0.09,-0.20,0.39,-0.05,0.23,1.50,
0.764,0.09,-0.20,0.39,-0.04,0.25,1.49,
0.765,0.21,-0.26,0.06,-0.04,0.25,1.49,
0.767,0.21,-0.26,0.06,-0.04,0.26,1.49,
0.769,0.32,-0.28,-0.20,-0.04,0.26,1.49,
0.77,0.32,-0.28,-0.20,-0.05,0.25,1.48,
0.772,0.32,-0.28,-0.20,-0.08,0.23,1.48,
0.774,0.32,-0.28,-0.20,-0.11,0.19,1.47,
0.775,0.46,-0.40,-0.33,-0.11,0.19,1.47,
0.778,0.46,-0.40,-0.33,-0.14,0.13,1.47,
0.779,0.46,-0.40,-0.33,-0.18,0.04,1.46,
0.78,0.69,-0.48,-0.40,-0.18,0.04,1.46,
0.781,0.69,-0.48,-0.40,-0.22,-0.05,1.45,
0.784,0.69,-0.48,-0.40,-0.25,-0.17,1.43,
0.784,1.00,-0.50,-0.25,-0.25,-0.17,1.43,
0.786,1.00,-0.50,-0.25,-0.27,-0.28,1.42,
0.789,1.00,-0.50,-0.25,-0.29,-0.41,1.39,
0.789,1.10,-0.54,-0.47,-0.29,-0.41,1.39,
0.792,1.10,-0.54,-0.47,-0.32,-0.53,1.37,
0.795,1.08,-0.59,-0.90,-0.32,-0.53,1.37,
0.795,1.08,-0.59,-0.90,-0.35,-0.66,1.34,
0.796,1.08,-0.59,-0.90,-0.39,-0.78,1.31,
0.799,1.10,-0.47,-1.12,-0.39,-0.78,1.31,
0.799,1.10,-0.47,-1.12,-0.42,-0.89,1.28,
0.801,1.10,-0.47,-1.12,-0.46,-0.99,1.24,
0.804,1.10,-0.47,-1.12,-0.50,-1.08,1.19,
0.804,1.12,-0.38,-1.02,-0.50,-1.08,1.19,
0.807,1.12,-0.38,-1.02,-0.53,-1.16,1.14,
0.809,1.09,-0.39,-0.92,-0.53,-1.16,1.14,
0.811,1.09,-0.39,-0.92,-0.56,-1.23,1.09,
0.812,1.09,-0.39,-0.92,-0.59,-1.29,1.03,
0.814,1.05,-0.52,-0.93,-0.59,-1.29,1.03,
0.814,1.05,-0.52,-0.93,-0.63,-1.36,0.96,
0.842,1.05,-0.52,-0.93,-0.66,-1.42,0.90,
0.842,1.05,-0.52,-0.93,-0.70,-1.49,0.83,
0.842,1.02,-0.64,-0.94,-0.70,-1.49,0.83,
0.843,1.02,-0.64,-0.94,-0.73,-1.56,0.76,
0.843,1.02,-0.64,-0.94,-0.77,-1.62,0.69,
0.844,0.94,-0.52,-0.96,-0.77,-1.62,0.69,
0.844,0.94,-0.52,-0.96,-0.80,-1.69,0.62,
0.844,1.09,-0.18,-0.65,-0.80,-1.69,0.62,
0.845,1.09,-0.18,-0.65,-0.82,-1.76,0.55,
0.845,1.09,-0.18,-0.65,-0.84,-1.82,0.47,
0.845,0.84,-0.11,-0.59,-0.84,-1.82,0.47,
0.846,0.84,-0.11,-0.59,-0.85,-1.88,0.40,
0.846,0.84,-0.11,-0.59,-0.86,-1.91,0.33,
0.846,0.84,-0.11,-0.59,-0.87,-1.92,0.26,
0.847,0.51,-0.03,-0.26,-0.87,-1.92,0.26,
0.847,0.51,-0.03,-0.26,-0.86,-1.92,0.20,
0.847,0.51,-0.03,-0.26,-0.83,-1.90,0.13,
0.847,0.62,0.35,0.39,-0.83,-1.90,0.13,
0.847,0.62,0.35,0.39,-0.80,-1.87,0.07,
0.849,0.62,0.35,0.39,-0.77,-1.82,0.01,
0.851,0.39,0.63,0.52,-0.77,-1.82,0.01,
0.853,0.39,0.63,0.52,-0.72,-1.75,-0.04,
0.854,0.39,0.63,0.52,-0.68,-1.66,-0.08,
0.854,0.14,0.74,0.49,-0.68,-1.66,-0.08,
0.858,0.14,0.74,0.49,-0.62,-1.56,-0.11,
0.861,0.14,0.74,0.49,-0.57,-1.44,-0.13,
0.869,-0.24,0.89,0.29,-0.57,-1.44,-0.13,
0.87,-0.24,0.89,0.29,-0.50,-1.31,-0.14,
0.87,-0.24,0.89,0.29,-0.43,-1.17,-0.15,
0.871,-0.16,0.99,0.35,-0.43,-1.17,-0.15,
0.871,-0.16,0.99,0.35,-0.35,-1.02,-0.16,
0.871,-0.16,0.99,0.35,-0.27,-0.86,-0.16,
0.872,-0.14,1.06,0.11,-0.27,-0.86,-0.16,
0.872,-0.14,1.06,0.11,-0.19,-0.69,-0.16,
0.873,-0.14,1.06,0.11,-0.11,-0.52,-0.16,
0.874,-0.13,1.09,-0.08,-0.11,-0.52,-0.16,
0.88,-0.13,1.09,-0.08,-0.02,-0.33,-0.16,
0.881,-0.13,1.09,-0.08,0.06,-0.15,-0.16,
0.881,-0.19,1.12,-0.20,0.06,-0.15,-0.16,
0.881,-0.19,1.12,-0.20,0.16,0.05,-0.17,
0.884,-0.19,1.12,-0.20,0.25,0.25,-0.17,
0.884,-0.31,1.07,-0.29,0.25,0.25,-0.17,
0.885,-0.31,1.07,-0.29,0.35,0.46,-0.19,
0.888,-0.31,1.07,-0.29,0.45,0.66,-0.21,
0.889,-0.40,0.95,-0.28,0.45,0.66,-0.21,
0.891,-0.40,0.95,-0.28,0.55,0.88,-0.23,
0.895,-0.36,0.86,-0.38,0.55,0.88,-0.23,
0.895,-0.36,0.86,-0.38,0.65,1.12,-0.27,
0.896,-0.36,0.86,-0.38,0.76,1.37,-0.30,
0.898,-0.51,0.54,-0.51,0.76,1.37,-0.30,
0.899,-0.51,0.54,-0.51,0.86,1.62,-0.34,
0.9,-0.51,0.54,-0.51,0.96,1.87,-0.37,
0.903,-0.51,0.54,-0.51,1.06,2.09,-0.39,
0.903,-0.83,0.05,-0.50,1.06,2.09,-0.39,
0.905,-0.83,0.05,-0.50,1.15,2.31,-0.41,
0.912,-0.83,0.05,-0.50,1.24,2.51,-0.43,
0.913,-1.11,-0.20,-0.51,1.24,2.51,-0.43,
0.917,-1.11,-0.20,-0.51,1.32,2.69,-0.44,
0.918,-1.11,-0.20,-0.51,1.41,2.87,-0.46,
0.918,-1.26,-0.26,-0.56,1.41,2.87,-0.46,
0.919,-1.26,-0.26,-0.56,1.49,3.03,-0.48,
0.919,-1.26,-0.26,-0.56,1.57,3.18,-0.50,
0.92,-1.60,-0.40,-0.75,1.57,3.18,-0.50,
0.92,-1.60,-0.40,-0.75,1.64,3.33,-0.51,
0.925,-1.81,-0.51,-0.77,1.64,3.33,-0.51,
0.925,-1.81,-0.51,-0.77,1.71,3.46,-0.52,
0.927,-1.81,-0.51,-0.77,1.77,3.59,-0.53,
0.929,-1.81,-0.51,-0.77,1.82,3.69,-0.53,
0.93,-2.14,-0.79,-0.74,1.82,3.69,-0.53,
0.93,-2.14,-0.79,-0.74,1.88,3.71,-0.54,
0.933,-2.14,-0.79,-0.74,1.92,3.58,-0.55,
0.933,-2.17,-1.33,1.19,1.92,3.58,-0.55,
0.935,-2.17,-1.33,1.19,1.95,3.32,-0.56,
0.938,-2.17,-1.33,1.19,1.96,3.05,-0.57,
0.938,-2.74,-1.75,1.90,1.96,3.05,-0.57,
0.94,-2.74,-1.75,1.90,1.96,2.89,-0.59,
0.943,-2.74,-1.75,1.90,1.94,2.79,-0.60,
0.943,-3.10,-2.05,0.26,1.94,2.79,-0.60,
0.945,-3.10,-2.05,0.26,1.91,2.67,-0.61,
0.948,-3.10,-2.05,0.26,1.86,2.54,-0.62,
0.948,-3.14,-2.02,-0.42,1.86,2.54,-0.62,
0.95,-3.14,-2.02,-0.42,1.81,2.42,-0.63,
0.953,-3.14,-2.02,-0.42,1.76,2.33,-0.63,
0.953,-2.51,-1.59,-0.73,1.76,2.33,-0.63,
0.955,-2.51,-1.59,-0.73,1.70,2.28,-0.63,
0.958,-2.51,-1.59,-0.73,1.64,2.28,-0.64,
0.958,-1.90,-1.34,-1.09,1.64,2.28,-0.64,
0.96,-1.90,-1.34,-1.09,1.58,2.31,-0.65,
0.965,-1.55,-1.64,-1.04,1.58,2.31,-0.65,
0.965,-1.55,-1.64,-1.04,1.51,2.33,-0.67,
0.966,-1.55,-1.64,-1.04,1.43,2.31,-0.72,
0.968,-1.55,-1.64,-1.04,1.34,2.27,-0.77,
0.968,-1.47,-2.41,-0.94,1.34,2.27,-0.77,
0.97,-1.47,-2.41,-0.94,1.27,2.21,-0.83,
0.972,-1.47,-2.41,-0.94,1.20,2.13,-0.89,
0.973,-1.45,-2.79,-0.90,1.20,2.13,-0.89,
0.976,-1.45,-2.79,-0.90,1.15,2.06,-0.95,
0.978,-1.14,-3.03,-0.80,1.15,2.06,-0.95,
0.979,-1.14,-3.03,-0.80,1.10,1.99,-1.02,
0.98,-1.14,-3.03,-0.80,1.06,1.92,-1.09,
1.003,-1.14,-3.03,-0.80,1.03,1.87,-1.16,
1.004,-0.71,-3.02,-0.67,1.03,1.87,-1.16,
1.004,-0.71,-3.02,-0.67,1.01,1.82,-1.23,
1.005,-0.29,-2.90,-0.68,1.01,1.82,-1.23,
1.005,-0.29,-2.90,-0.68,1.00,1.79,-1.30,
1.006,-0.29,-2.90,-0.68,0.99,1.77,-1.38,
1.006,0.06,-2.78,-0.81,0.99,1.77,-1.38,
1.007,0.06,-2.78,-0.81,0.99,1.78,-1.45,
1.008,0.06,-2.78,-0.81,0.99,1.80,-1.53,
1.008,0.17,-2.69,-0.87,0.99,1.80,-1.53,
1.009,0.17,-2.69,-0.87,1.01,1.83,-1.60,
1.009,0.17,-2.69,-0.87,1.02,1.87,-1.68,
1.01,0.17,-2.69,-0.87,1.04,1.91,-1.75,
1.01,0.11,-2.71,-0.87,1.04,1.91,-1.75,
1.011,0.11,-2.71,-0.87,1.07,1.95,-1.83,
1.011,0.11,-2.71,-0.87,1.10,2.00,-1.91,
1.012,-0.04,-2.80,-0.81,1.10,2.00,-1.91,
1.013,-0.04,-2.80,-0.81,1.13,2.05,-1.98,
1.013,-0.20,-3.01,-0.75,1.13,2.05,-1.98,
1.014,-0.20,-3.01,-0.75,1.17,2.09,-2.05,
1.017,-0.20,-3.01,-0.75,1.21,2.14,-2.12,
1.018,-0.20,-3.01,-0.75,1.25,2.20,-2.18,
1.018,-0.50,-3.30,-0.76,1.25,2.20,-2.18,
1.02,-0.50,-3.30,-0.76,1.30,2.25,-2.22,
1.023,-0.50,-3.30,-0.76,1.35,2.30,-2.26,
1.024,-0.74,-3.58,-0.72,1.35,2.30,-2.26,
1.024,-0.74,-3.58,-0.72,1.40,2.36,-2.29,
1.028,-0.74,-3.58,-0.72,1.44,2.41,-2.32,
1.028,-0.79,-3.66,-0.64,1.44,2.41,-2.32,
1.029,-0.79,-3.66,-0.64,1.49,2.47,-2.34,
1.032,-0.79,-3.66,-0.64,1.53,2.54,-2.36,
1.032,-0.78,-3.72,-0.58,1.53,2.54,-2.36,
1.035,-0.78,-3.72,-0.58,1.57,2.60,-2.39,
1.037,-0.78,-3.72,-0.58,1.61,2.66,-2.41,
1.037,-0.74,-3.84,-0.43,1.61,2.66,-2.41,
1.039,-0.74,-3.84,-0.43,1.64,2.71,-2.45,
1.043,-0.74,-3.84,-0.43,1.68,2.75,-2.48,
1.044,-0.63,-4.06,-0.31,1.68,2.75,-2.48,
1.045,-0.63,-4.06,-0.31,1.70,2.78,-2.53,
1.047,-0.63,-4.06,-0.31,1.73,2.80,-2.57,
1.047,-0.56,-4.28,-0.15,1.73,2.80,-2.57,
1.049,-0.56,-4.28,-0.15,1.76,2.82,-2.61,
1.052,-0.56,-4.28,-0.15,1.79,2.82,-2.66,
1.052,-0.68,-4.59,0.07,1.79,2.82,-2.66,
1.054,-0.68,-4.59,0.07,1.81,2.82,-2.71,
1.057,-0.68,-4.59,0.07,1.83,2.81,-2.77,
1.057,-0.50,-4.81,0.11,1.83,2.81,-2.77,
1.06,-0.50,-4.81,0.11,1.85,2.81,-2.82,
1.063,-0.50,-4.81,0.11,1.87,2.82,-2.88,
1.063,-0.25,-4.85,-0.05,1.87,2.82,-2.88,
1.064,-0.25,-4.85,-0.05,1.89,2.84,-2.94,
1.067,-0.25,-4.85,-0.05,1.90,2.87,-2.99,
1.067,-0.04,-4.74,-0.28,1.90,2.87,-2.99,
1.069,-0.04,-4.74,-0.28,1.91,2.91,-3.04,
1.072,-0.04,-4.74,-0.28,1.92,2.96,-3.09,
1.072,0.13,-4.52,-0.50,1.92,2.96,-3.09,
1.074,0.13,-4.52,-0.50,1.92,3.00,-3.13,
1.077,0.31,-4.24,-0.81,1.92,3.00,-3.13,
1.077,0.31,-4.24,-0.81,1.92,3.06,-3.17,
1.08,0.31,-4.24,-0.81,1.91,3.12,-3.20,
1.081,0.31,-4.24,-0.81,1.90,3.17,-3.22,
1.082,0.40,-3.92,-1.22,1.90,3.17,-3.22,
1.084,0.40,-3.92,-1.22,1.89,3.22,-3.24,
1.087,0.40,-3.92,-1.22,1.88,3.27,-3.26,
1.087,0.53,-3.86,-1.61,1.88,3.27,-3.26,
1.089,0.53,-3.86,-1.61,1.85,3.29,-3.29,
1.092,1.01,-4.27,-1.91,1.85,3.29,-3.29,
1.092,1.01,-4.27,-1.91,1.83,3.31,-3.33,
1.094,1.01,-4.27,-1.91,1.80,3.35,-3.37,
1.099,0.72,-3.71,-2.43,1.80,3.35,-3.37,
1.1,0.72,-3.71,-2.43,1.76,3.40,-3.39,
1.1,0.72,-3.71,-2.43,1.73,3.46,-3.42,
1.101,0.72,-3.71,-2.43,1.70,3.54,-3.42,
1.102,0.47,-3.15,-2.62,1.70,3.54,-3.42,
1.104,0.47,-3.15,-2.62,1.66,3.61,-3.43,
1.107,0.17,-2.68,-2.59,1.66,3.61,-3.43,
1.108,0.17,-2.68,-2.59,1.63,3.69,-3.42,
1.11,0.17,-2.68,-2.59,1.60,3.77,-3.40,
1.112,-0.09,-2.31,-2.35,1.60,3.77,-3.40,
1.113,-0.09,-2.31,-2.35,1.57,3.85,-3.37,
1.114,-0.09,-2.31,-2.35,1.56,3.93,-3.35,
1.116,0.00,-2.05,-1.46,1.56,3.93,-3.35,
1.117,0.00,-2.05,-1.46,1.56,3.98,-3.33,
1.119,0.00,-2.05,-1.46,1.57,4.02,-3.31,
1.121,0.00,-2.05,-1.46,1.61,4.02,-3.30,
1.122,0.40,-2.00,-0.19,1.61,4.02,-3.30,
1.124,0.40,-2.00,-0.19,1.66,4.00,-3.31,
1.128,0.94,-2.04,0.92,1.66,4.00,-3.31,
1.13,0.94,-2.04,0.92,1.73,3.96,-3.33,
1.132,0.94,-2.04,0.92,1.82,3.89,-3.35,
1.132,0.94,-2.04,0.92,1.90,3.82,-3.39,
1.133,1.21,-2.19,1.30,1.90,3.82,-3.39,
1.134,1.21,-2.19,1.30,1.99,3.75,-3.42,
1.136,1.21,-2.19,1.30,2.07,3.67,-3.46,
1.137,1.48,-2.25,1.40,2.07,3.67,-3.46,
1.139,1.48,-2.25,1.40,2.16,3.58,-3.51,
1.141,1.48,-2.25,1.40,2.24,3.49,-3.56,
1.142,1.78,-2.24,1.62,2.24,3.49,-3.56,
1.144,1.78,-2.24,1.62,2.32,3.39,-3.62,
1.147,1.99,-2.16,1.76,2.32,3.39,-3.62,
1.172,1.99,-2.16,1.76,2.39,3.29,-3.67,
1.172,1.99,-2.16,1.76,2.45,3.18,-3.73,
1.172,1.99,-2.16,1.76,2.50,3.06,-3.78,
1.173,1.83,-2.14,1.72,2.50,3.06,-3.78,
1.173,1.83,-2.14,1.72,2.54,2.93,-3.84,
1.173,1.64,-2.06,1.71,2.54,2.93,-3.84,
1.174,1.64,-2.06,1.71,2.56,2.79,-3.89,
1.174,1.64,-2.06,1.71,2.57,2.65,-3.95,
1.174,1.54,-1.97,1.61,2.57,2.65,-3.95,
1.175,1.54,-1.97,1.61,2.56,2.50,-4.01,
1.175,1.54,-1.97,1.61,2.54,2.37,-4.07,
1.175,1.31,-1.93,1.30,2.54,2.37,-4.07,
1.176,1.31,-1.93,1.30,2.50,2.24,-4.13,
1.176,1.13,-1.90,0.90,2.50,2.24,-4.13,
1.176,1.13,-1.90,0.90,2.43,2.10,-4.20,
1.177,1.13,-1.90,0.90,2.33,1.94,-4.27,
1.177,1.13,-1.90,0.90,2.21,1.81,-4.34,
1.177,1.13,-1.90,0.90,2.10,1.72,-4.43,
1.178,1.25,-2.05,0.50,2.10,1.72,-4.43,
1.182,1.25,-2.05,0.50,1.99,1.67,-4.51,
1.183,1.25,-2.05,0.50,1.88,1.61,-4.59,
1.183,1.17,-2.22,0.77,1.88,1.61,-4.59,
1.184,1.17,-2.22,0.77,1.77,1.57,-4.68,
1.192,1.17,-2.22,0.77,1.66,1.54,-4.76,
1.192,0.74,-2.34,1.08,1.66,1.54,-4.76,
1.193,0.74,-2.34,1.08,1.55,1.54,-4.84,
1.193,0.74,-2.34,1.08,1.44,1.54,-4.90,
1.193,0.07,-2.22,1.60,1.44,1.54,-4.90,
1.193,0.07,-2.22,1.60,1.35,1.52,-4.96,
1.197,0.07,-2.22,1.60,1.27,1.48,-5.00,
1.198,-0.21,-1.83,2.15,1.27,1.48,-5.00,
1.198,-0.21,-1.83,2.15,1.20,1.43,-5.03,
1.202,-0.21,-1.83,2.15,1.15,1.38,-5.06,
1.202,-0.33,-1.34,2.75,1.15,1.38,-5.06,
1.204,-0.33,-1.34,2.75,1.11,1.30,-5.08,
1.207,-0.33,-1.34,2.75,1.09,1.22,-5.09,
1.208,-0.49,-0.87,3.28,1.09,1.22,-5.09,
1.208,-0.49,-0.87,3.28,1.08,1.14,-5.11,
1.212,-0.49,-0.87,3.28,1.08,1.07,-5.11,
1.215,-0.82,-0.53,3.66,1.08,1.07,-5.11,
1.216,-0.82,-0.53,3.66,1.10,1.00,-5.11,
1.216,-1.01,-0.25,4.04,1.10,1.00,-5.11,
1.217,-1.01,-0.25,4.04,1.13,0.94,-5.10,
1.218,-1.01,-0.25,4.04,1.16,0.89,-5.08,
1.221,-0.95,-0.21,4.23,1.16,0.89,-5.08,
1.221,-0.95,-0.21,4.23,1.20,0.84,-5.06,
1.223,-0.95,-0.21,4.23,1.24,0.80,-5.04,
1.226,-0.93,-0.29,4.21,1.24,0.80,-5.04,
1.227,-0.93,-0.29,4.21,1.28,0.75,-5.02,
1.228,-0.93,-0.29,4.21,1.32,0.70,-5.00,
1.23,-0.93,-0.29,4.21,1.36,0.65,-4.97,
1.231,-1.31,-0.25,4.28,1.36,0.65,-4.97,
1.232,-1.31,-0.25,4.28,1.40,0.58,-4.94,
1.235,-1.31,-0.25,4.28,1.44,0.50,-4.90,
1.235,-1.81,-0.02,4.59,1.44,0.50,-4.90,
1.237,-1.81,-0.02,4.59,1.48,0.40,-4.85,
1.24,-2.26,0.36,4.78,1.48,0.40,-4.85,
1.241,-2.26,0.36,4.78,1.51,0.28,-4.79,
1.243,-2.26,0.36,4.78,1.54,0.15,-4.72,
1.246,-2.64,0.70,4.62,1.54,0.15,-4.72,
1.247,-2.64,0.70,4.62,1.56,0.01,-4.64,
1.248,-2.64,0.70,4.62,1.57,-0.14,-4.54,
1.25,-2.64,0.70,4.62,1.58,-0.30,-4.45,
1.251,-2.89,0.94,4.27,1.58,-0.30,-4.45,
1.254,-2.89,0.94,4.27,1.58,-0.47,-4.34,
1.255,-3.00,1.22,3.58,1.58,-0.47,-4.34,
1.256,-3.00,1.22,3.58,1.57,-0.63,-4.23,
1.258,-3.00,1.22,3.58,1.55,-0.77,-4.12,
1.261,-3.09,1.65,2.59,1.55,-0.77,-4.12,
1.261,-3.09,1.65,2.59,1.52,-0.90,-3.99,
1.264,-3.09,1.65,2.59,1.48,-1.02,-3.87,
1.266,-3.08,2.14,1.62,1.48,-1.02,-3.87,
1.266,-3.08,2.14,1.62,1.44,-1.12,-3.74,
1.268,-3.08,2.14,1.62,1.39,-1.21,-3.61,
1.27,-3.02,2.51,0.64,1.39,-1.21,-3.61,
1.27,-3.02,2.51,0.64,1.33,-1.27,-3.48,
1.272,-3.02,2.51,0.64,1.26,-1.31,-3.36,
1.275,-2.72,2.45,-0.08,1.26,-1.31,-3.36,
1.275,-2.72,2.45,-0.08,1.20,-1.34,-3.25,
1.28,-2.72,2.45,-0.08,1.13,-1.35,-3.17,
1.281,-2.09,2.15,-0.60,1.13,-1.35,-3.17,
1.281,-2.09,2.15,-0.60,1.06,-1.35,-3.09,
1.285,-2.09,2.15,-0.60,1.00,-1.34,-3.03,
1.287,-0.78,2.17,-0.16,1.00,-1.34,-3.03,
1.287,-0.78,2.17,-0.16,0.95,-1.32,-3.00,
1.288,-0.78,2.17,-0.16,0.91,-1.27,-2.98,
1.29,-0.78,2.17,-0.16,0.88,-1.18,-2.98,
1.291,0.26,2.24,0.38,0.88,-1.18,-2.98,
1.296,0.26,2.24,0.38,0.87,-1.05,-3.01,
1.297,0.26,2.24,0.38,0.88,-0.90,-3.05,
1.297,0.93,2.14,1.04,0.88,-0.90,-3.05,
1.298,0.93,2.14,1.04,0.92,-0.73,-3.10,
1.3,0.93,2.14,1.04,0.97,-0.56,-3.16,
1.302,0.93,2.14,1.04,1.05,-0.37,-3.23,
1.303,1.00,1.68,1.67,1.05,-0.37,-3.23,
1.305,1.00,1.68,1.67,1.15,-0.20,-3.29,
1.305,0.48,1.08,2.36,1.15,-0.20,-3.29,
1.307,0.48,1.08,2.36,1.27,-0.04,-3.35,
1.311,0.48,1.08,2.36,1.41,0.11,-3.40,
1.311,-0.49,0.62,3.05,1.41,0.11,-3.40,
1.328,-0.49,0.62,3.05,1.56,0.25,-3.44,
1.328,-0.49,0.62,3.05,1.72,0.35,-3.45,
1.328,-1.60,0.52,3.75,1.72,0.35,-3.45,
1.329,-2.63,0.59,3.86,1.72,0.35,-3.45,
1.329,-2.63,0.59,3.86,1.89,0.42,-3.44,
1.329,-2.63,0.59,3.86,2.06,0.46,-3.40,
1.33,-2.63,0.59,3.86,2.23,0.49,-3.33,
1.33,-3.45,0.75,2.89,2.23,0.49,-3.33,
1.33,-3.45,0.75,2.89,2.37,0.54,-3.26,
1.33,-3.45,0.75,2.89,2.48,0.59,-3.18,
1.331,-3.47,0.99,1.95,2.48,0.59,-3.18,
1.331,-3.47,0.99,1.95,2.58,0.62,-3.10,
1.332,-3.47,0.99,1.95,2.66,0.65,-3.04,
1.335,-3.47,0.99,1.95,2.73,0.70,-2.98,
1.335,-3.51,1.41,0.75,2.73,0.70,-2.98,
1.336,-3.51,1.41,0.75,2.76,0.75,-2.92,
1.339,-3.51,1.41,0.75,2.76,0.82,-2.86,
1.34,-3.87,1.82,-1.33,2.76,0.82,-2.86,
1.342,-3.87,1.82,-1.33,2.72,0.89,-2.78,
1.345,-3.87,1.82,-1.33,2.66,0.94,-2.71,
1.346,-3.97,2.25,-3.31,2.66,0.94,-2.71,
1.347,-3.97,2.25,-3.31,2.57,0.97,-2.65,
1.349,-3.44,2.51,-4.49,2.57,0.97,-2.65,
1.35,-3.44,2.51,-4.49,2.48,0.98,-2.60,
1.352,-3.44,2.51,-4.49,2.38,0.96,-2.56,
1.354,-3.44,2.51,-4.49,2.27,0.93,-2.53,
1.354,-3.40,2.55,-5.15,2.27,0.93,-2.53,
1.356,-3.40,2.55,-5.15,2.17,1.03,-2.51,
1.361,-3.40,2.55,-5.15,2.05,1.26,-2.49,
1.362,-4.45,2.40,-5.57,2.05,1.26,-2.49,
1.362,-4.45,2.40,-5.57,1.94,1.44,-2.46,
1.364,-4.45,2.40,-5.57,1.85,1.55,-2.44,
1.364,-2.98,3.08,-5.94,1.85,1.55,-2.44,
1.367,-2.98,3.08,-5.94,1.78,1.63,-2.40,
1.371,-2.53,3.44,-6.39,1.78,1.63,-2.40,
1.371,-2.53,3.44,-6.39,1.73,1.69,-2.35,
1.371,-2.53,3.44,-6.39,1.70,1.72,-2.29,
1.374,-2.53,3.44,-6.39,1.67,1.74,-2.21,
1.374,-2.56,3.58,-6.56,1.67,1.74,-2.21,
1.377,-2.56,3.58,-6.56,1.66,1.73,-2.13,
1.379,-2.56,3.58,-6.56,1.66,1.72,-2.04,
1.379,-3.41,3.73,-6.16,1.66,1.72,-2.04,
1.382,-3.41,3.73,-6.16,1.65,1.76,-1.95,
1.385,-3.41,3.73,-6.16,1.63,1.85,-1.85,
1.385,-4.69,3.86,-5.41,1.63,1.85,-1.85,
1.387,-4.69,3.86,-5.41,1.62,1.97,-1.76,
1.39,-4.69,3.86,-5.41,1.60,2.08,-1.66,
1.39,-4.95,4.16,-4.49,1.60,2.08,-1.66,
1.393,-4.95,4.16,-4.49,1.59,2.15,-1.58,
1.394,-5.13,4.58,-4.23,1.59,2.15,-1.58,
1.397,-5.13,4.58,-4.23,1.57,2.19,-1.48,
1.397,-5.13,4.58,-4.23,1.56,2.20,-1.38,
1.399,-5.49,4.90,-4.18,1.56,2.20,-1.38,
1.399,-5.49,4.90,-4.18,1.54,2.18,-1.27,
1.401,-5.49,4.90,-4.18,1.51,2.16,-1.15,
1.404,-5.49,4.90,-4.18,1.47,2.13,-1.02,
1.404,-5.96,5.21,-4.40,1.47,2.13,-1.02,
1.406,-5.96,5.21,-4.40,1.41,2.10,-0.89,
1.408,-5.96,5.21,-4.40,1.34,2.06,-0.75,
1.409,-6.29,5.67,-4.72,1.34,2.06,-0.75,
1.411,-6.29,5.67,-4.72,1.25,2.03,-0.61,
1.413,-6.29,5.67,-4.72,1.16,1.99,-0.46,
1.414,-6.36,6.16,-4.93,1.16,1.99,-0.46,
1.416,-6.36,6.16,-4.93,1.06,1.93,-0.32,
1.418,-6.20,6.25,-4.99,1.06,1.93,-0.32,
1.419,-6.20,6.25,-4.99,0.96,1.87,-0.18,
1.421,-6.20,6.25,-4.99,0.84,1.80,-0.06,
1.424,-6.20,6.25,-4.99,0.73,1.72,0.06,
1.424,-5.71,6.04,-4.96,0.73,1.72,0.06,
1.428,-5.71,6.04,-4.96,0.62,1.65,0.17,
1.429,-5.71,6.04,-4.96,0.51,1.58,0.27,
1.429,-5.04,5.61,-4.63,0.51,1.58,0.27,
1.432,-5.04,5.61,-4.63,0.41,1.52,0.35,
1.434,-5.04,5.61,-4.63,0.33,1.47,0.42,
1.434,-4.00,5.00,-3.98,0.33,1.47,0.42,
1.436,-4.00,5.00,-3.98,0.27,1.45,0.47,
1.439,-4.00,5.00,-3.98,0.22,1.45,0.50,
1.439,-2.89,4.33,-3.29,0.22,1.45,0.50,
1.441,-2.89,4.33,-3.29,0.19,1.46,0.51,
1.444,-1.79,3.66,-2.85,0.19,1.46,0.51,
1.445,-1.79,3.66,-2.85,0.16,1.49,0.52,
1.447,-1.79,3.66,-2.85,0.15,1.55,0.52,
1.449,-1.79,3.66,-2.85,0.15,1.62,0.52,
1.45,-1.01,3.02,-2.73,0.15,1.62,0.52,
1.451,-1.01,3.02,-2.73,0.16,1.72,0.52,
1.454,-1.01,3.02,-2.73,0.17,1.82,0.51,
1.454,-0.45,2.62,-2.91,0.17,1.82,0.51,
1.456,-0.45,2.62,-2.91,0.18,1.93,0.51,
1.459,-0.45,2.62,-2.91,0.20,2.06,0.51,
1.459,-0.15,2.26,-3.09,0.20,2.06,0.51,
1.462,-0.15,2.26,-3.09,0.22,2.17,0.52,
1.472,0.06,2.07,-3.05,0.22,2.17,0.52,
1.473,0.06,2.07,-3.05,0.24,2.28,0.52,
1.473,0.06,2.07,-3.05,0.26,2.40,0.52,
1.473,0.06,2.07,-3.05,0.29,2.51,0.53,
1.473,0.26,1.91,-3.16,0.29,2.51,0.53,
1.473,0.26,1.91,-3.16,0.31,2.61,0.53,
1.473,0.26,1.91,-3.16,0.33,2.72,0.54,
1.474,0.64,1.90,-3.37,0.33,2.72,0.54,
1.475,0.64,1.90,-3.37,0.35,2.81,0.54,
1.487,1.13,1.77,-3.58,0.35,2.81,0.54,
1.488,1.13,1.77,-3.58,0.35,2.89,0.53,
1.488,1.13,1.77,-3.58,0.34,2.97,0.52,
1.488,1.13,1.77,-3.58,0.33,3.04,0.51,
1.488,1.23,1.53,-3.60,0.33,3.04,0.51,
1.489,1.23,1.53,-3.60,0.32,3.10,0.49,
1.489,1.23,1.53,-3.60,0.30,3.13,0.47,
1.489,1.20,1.30,-3.48,0.30,3.13,0.47,
1.49,1.20,1.30,-3.48,0.27,3.16,0.46,
1.493,1.20,1.30,-3.48,0.24,3.16,0.44,
1.494,1.38,1.19,-3.51,0.24,3.16,0.44,
1.496,1.38,1.19,-3.51,0.21,3.14,0.43,
1.498,1.38,1.19,-3.51,0.19,3.09,0.41,
1.498,1.58,1.00,-3.18,0.19,3.09,0.41,
1.5,1.58,1.00,-3.18,0.15,3.09,0.39,
1.503,1.58,1.00,-3.18,0.11,3.11,0.38,
1.503,1.48,0.74,-3.08,0.11,3.11,0.38,
1.505,1.48,0.74,-3.08,0.09,3.13,0.37,
1.508,1.21,0.55,-2.13,0.09,3.13,0.37,
1.508,1.21,0.55,-2.13,0.07,3.15,0.36,
1.511,1.21,0.55,-2.13,0.06,3.19,0.35,
1.515,0.94,0.20,-2.04,0.06,3.19,0.35,
1.515,0.94,0.20,-2.04,0.05,3.25,0.34,
1.517,0.94,0.20,-2.04,0.04,3.28,0.34,
1.517,0.94,0.20,-2.04,0.03,3.28,0.31,
1.518,0.93,0.00,-1.59,0.03,3.28,0.31,
1.52,0.93,0.00,-1.59,0.03,3.26,0.30,
1.523,0.40,-0.63,-0.48,0.03,3.26,0.30,
1.523,0.40,-0.63,-0.48,0.03,3.22,0.28,
1.525,0.40,-0.63,-0.48,0.05,3.16,0.26,
1.528,0.40,-0.63,-0.48,0.03,3.14,0.24,
1.528,0.55,-0.79,-0.29,0.03,3.14,0.24,
1.53,0.55,-0.79,-0.29,0.03,3.10,0.22,
1.533,0.30,-1.16,0.47,0.03,3.10,0.22,
1.533,0.30,-1.16,0.47,0.02,3.03,0.21,
1.535,0.30,-1.16,0.47,0.01,2.92,0.19,
1.538,0.30,-1.16,0.47,-0.01,2.84,0.16,
1.539,-0.31,-1.61,0.47,-0.01,2.84,0.16,
1.541,-0.31,-1.61,0.47,-0.06,2.90,0.17,
1.543,-1.29,-2.35,0.01,-0.06,2.90,0.17,
1.544,-1.29,-2.35,0.01,-0.14,2.91,0.18,
1.547,-1.29,-2.35,0.01,-0.21,2.81,0.20,
1.548,-0.54,-1.93,0.04,-0.21,2.81,0.20,
1.548,-0.54,-1.93,0.04,-0.28,2.65,0.21,
1.55,-0.54,-1.93,0.04,-0.33,2.45,0.21,
1.552,-0.54,-1.93,0.04,-0.38,2.23,0.20,
1.552,0.27,-1.37,0.31,-0.38,2.23,0.20,
1.555,0.27,-1.37,0.31,-0.45,1.99,0.19,
1.557,0.27,-1.37,0.31,-0.53,1.82,0.16,
1.557,1.08,-0.85,-0.11,-0.53,1.82,0.16,
1.561,1.08,-0.85,-0.11,-0.62,1.69,0.09,
1.563,1.08,-0.85,-0.11,-0.72,1.52,-0.01,
1.563,2.17,-0.02,-0.17,-0.72,1.52,-0.01,
1.565,2.17,-0.02,-0.17,-0.81,1.35,-0.12,
1.567,2.17,-0.02,-0.17,-0.88,1.20,-0.23,
1.568,1.73,-0.30,-0.25,-0.88,1.20,-0.23,
1.57,1.73,-0.30,-0.25,-0.97,1.15,-0.31,
1.572,1.73,-0.30,-0.25,-1.04,1.12,-0.36,
1.572,0.36,-1.31,0.02,-1.04,1.12,-0.36,
1.574,0.36,-1.31,0.02,-1.08,1.10,-0.37,
1.578,-0.28,-1.26,0.75,-1.08,1.10,-0.37,
1.578,-0.28,-1.26,0.75,-1.08,1.08,-0.37,
1.581,-0.28,-1.26,0.75,-1.07,1.00,-0.36,
1.582,-0.28,-1.26,0.75,-1.05,0.95,-0.36,
1.583,-0.30,-1.30,0.98,-1.05,0.95,-0.36,
1.584,-0.30,-1.30,0.98,-1.06,0.88,-0.36,
1.587,-0.30,-1.30,0.98,-1.06,0.79,-0.37,
1.587,-0.10,-1.12,0.10,-1.06,0.79,-0.37,
1.589,-0.10,-1.12,0.10,-1.10,0.73,-0.39,
1.592,-0.10,-1.12,0.10,-1.17,0.67,-0.44,
1.592,0.97,-0.40,-1.55,-1.17,0.67,-0.44,
1.596,0.97,-0.40,-1.55,-1.27,0.60,-0.52,
1.598,0.97,-0.40,-1.55,-1.40,0.52,-0.59,
1.599,1.44,0.96,-3.76,-1.40,0.52,-0.59,
1.599,1.44,0.96,-3.76,-1.62,0.44,-0.71,
1.602,1.44,0.96,-3.76,-1.85,0.49,-0.87,
1.602,2.47,4.10,-5.53,-1.85,0.49,-0.87,
1.604,2.47,4.10,-5.53,-2.03,0.63,-1.00,
1.607,2.47,4.10,-5.53,-2.21,0.74,-1.06,
1.608,-0.10,2.21,-5.46,-2.21,0.74,-1.06,
1.611,-0.10,2.21,-5.46,-2.35,0.81,-1.07,
1.613,-0.10,2.21,-5.46,-2.51,0.82,-1.04,
1.614,-1.32,2.36,-6.50,-2.51,0.82,-1.04,
1.617,-1.32,2.36,-6.50,-2.68,0.88,-1.03,
1.618,-1.14,5.03,-6.22,-2.68,0.88,-1.03,
1.619,-1.14,5.03,-6.22,-2.85,0.97,-0.99,
1.62,-1.14,5.03,-6.22,-2.94,1.03,-0.96,
1.622,-1.43,3.27,-2.39,-2.94,1.03,-0.96,
1.623,-1.43,3.27,-2.39,-2.99,1.07,-0.93,
1.625,-1.43,3.27,-2.39,-2.98,1.10,-0.90,
1.627,-1.43,3.27,-2.39,-3.01,1.09,-0.86,
1.628,-2.89,-0.00,-1.32,-3.01,1.09,-0.86,
1.63,-2.89,-0.00,-1.32,-3.00,1.01,-0.80,
1.632,-2.89,-0.00,-1.32,-2.95,0.91,-0.74,
1.633,-3.81,-0.97,0.52,-2.95,0.91,-0.74,
1.634,-3.81,-0.97,0.52,-2.91,0.87,-0.68,
1.637,-3.81,-0.97,0.52,-2.86,0.87,-0.63,
1.637,-4.03,-1.22,1.90,-2.86,0.87,-0.63,
1.639,-4.03,-1.22,1.90,-2.79,0.87,-0.55,
1.642,-4.03,-1.22,1.90,-2.70,0.86,-0.46,
1.658,-3.56,-0.79,3.19,-2.70,0.86,-0.46,
1.659,-3.56,-0.79,3.19,-2.59,0.86,-0.36,
1.659,-3.56,-0.79,3.19,-2.47,0.86,-0.26,
1.659,-3.13,-0.64,4.25,-2.47,0.86,-0.26,
1.659,-3.13,-0.64,4.25,-2.33,0.86,-0.17,
1.66,-3.13,-0.64,4.25,-2.17,0.83,-0.09,
1.66,-2.82,-0.51,5.41,-2.17,0.83,-0.09,
1.66,-2.82,-0.51,5.41,-2.00,0.79,-0.03,
1.66,-2.82,-0.51,5.41,-1.80,0.75,0.03,
1.661,-2.56,-0.55,6.58,-1.80,0.75,0.03,
1.661,-2.56,-0.55,6.58,-1.59,0.70,0.07,
1.662,-2.56,-0.55,6.58,-1.36,0.65,0.12,
1.664,-2.28,-0.47,7.53,-1.36,0.65,0.12,
1.666,-2.28,-0.47,7.53,-1.13,0.59,0.18,
1.667,-2.28,-0.47,7.53,-0.90,0.53,0.23,
1.668,-2.06,0.08,7.24,-0.90,0.53,0.23,
1.669,-2.06,0.08,7.24,-0.68,0.48,0.29,
1.672,-2.06,0.08,7.24,-0.50,0.45,0.34,
1.672,-1.47,0.21,5.82,-0.50,0.45,0.34,
1.674,-1.47,0.21,5.82,-0.35,0.45,0.38,
1.678,-0.16,-0.08,4.24,-0.35,0.45,0.38,
1.678,-0.16,-0.08,4.24,-0.23,0.46,0.39,
1.679,-0.16,-0.08,4.24,-0.13,0.48,0.38,
1.682,-0.16,-0.08,4.24,-0.05,0.49,0.35,
1.683,1.28,-0.21,3.04,-0.05,0.49,0.35,
1.685,1.28,-0.21,3.04,0.02,0.50,0.30,
1.688,1.28,-0.21,3.04,0.08,0.47,0.28,
1.688,0.35,0.04,2.48,0.08,0.47,0.28,
1.69,0.35,0.04,2.48,0.12,0.46,0.25,
1.691,0.35,0.04,2.48,0.12,0.49,0.21,
1.691,0.83,0.46,0.29,0.12,0.49,0.21,
1.697,0.83,0.46,0.29,0.10,0.50,0.17,
1.699,1.52,0.78,-0.70,0.10,0.50,0.17,
1.7,1.52,0.78,-0.70,0.04,0.50,0.11,
1.7,1.52,0.78,-0.70,-0.04,0.48,0.03,
1.703,1.52,0.78,-0.70,-0.11,0.39,-0.14,
1.704,4.14,-1.20,-0.20,-0.11,0.39,-0.14,
1.705,4.14,-1.20,-0.20,-0.19,0.28,-0.34,
1.707,4.14,-1.20,-0.20,-0.28,0.14,-0.53,
1.707,4.25,-2.25,0.15,-0.28,0.14,-0.53,
1.71,4.25,-2.25,0.15,-0.37,-0.03,-0.72,
1.712,4.25,-2.25,0.15,-0.47,-0.22,-0.87,
1.713,2.40,-1.81,-0.04,-0.47,-0.22,-0.87,
1.714,2.40,-1.81,-0.04,-0.57,-0.29,-0.96,
1.716,2.40,-1.81,-0.04,-0.73,-0.34,-1.02,
1.716,-0.08,-2.28,-1.62,-0.73,-0.34,-1.02,
1.718,-0.08,-2.28,-1.62,-0.88,-0.40,-1.04,
1.721,-0.08,-2.28,-1.62,-1.03,-0.40,-0.97,
1.721,-3.50,-1.21,-2.46,-1.03,-0.40,-0.97,
1.723,-3.50,-1.21,-2.46,-1.21,-0.32,-0.81,
1.726,-3.50,-1.21,-2.46,-1.41,-0.18,-0.60,
1.726,-4.08,1.42,-3.78,-1.41,-0.18,-0.60,
1.73,-4.08,1.42,-3.78,-1.58,-0.07,-0.42,
1.731,-2.82,0.98,-2.63,-1.58,-0.07,-0.42,
1.731,-2.82,0.98,-2.63,-1.71,-0.05,-0.29,
1.734,-2.82,0.98,-2.63,-1.79,-0.08,-0.18,
1.736,-2.82,0.98,-2.63,-1.82,-0.13,-0.08,
1.736,-3.91,-0.10,-0.45,-1.82,-0.13,-0.08,
1.738,-3.91,-0.10,-0.45,-1.81,-0.19,0.02,
1.741,-3.91,-0.10,-0.45,-1.75,-0.26,0.11,
1.741,-3.95,-1.12,1.11,-1.75,-0.26,0.11,
1.744,-3.95,-1.12,1.11,-1.67,-0.33,0.19,
1.747,-2.98,-1.78,1.66,-1.67,-0.33,0.19,
1.748,-2.98,-1.78,1.66,-1.57,-0.41,0.26,
1.748,-2.98,-1.78,1.66,-1.47,-0.51,0.30,
1.751,-2.98,-1.78,1.66,-1.36,-0.61,0.32,
1.751,-2.39,-2.67,1.88,-1.36,-0.61,0.32,
1.753,-2.39,-2.67,1.88,-1.25,-0.68,0.33,
1.756,-2.39,-2.67,1.88,-1.17,-0.72,0.35,
1.756,-1.71,-3.22,1.08,-1.17,-0.72,0.35,
1.758,-1.71,-3.22,1.08,-1.09,-0.78,0.32,
1.761,-1.71,-3.22,1.08,-1.02,-0.86,0.28,
1.762,-1.24,-4.81,1.04,-1.02,-0.86,0.28,
1.764,-1.24,-4.81,1.04,-0.95,-0.95,0.25,
1.766,-1.24,-4.81,1.04,-0.89,-1.05,0.22,
1.766,-0.87,-5.18,0.69,-0.89,-1.05,0.22,
1.768,-0.87,-5.18,0.69,-0.83,-1.14,0.20,
1.771,-0.88,-5.16,-0.09,-0.83,-1.14,0.20,
1.771,-0.88,-5.16,-0.09,-0.79,-1.22,0.19,
1.773,-0.88,-5.16,-0.09,-0.77,-1.26,0.17,
1.776,-0.59,-5.23,-0.81,-0.77,-1.26,0.17,
1.776,-0.59,-5.23,-0.81,-0.75,-1.29,0.15,
1.781,-0.59,-5.23,-0.81,-0.74,-1.29,0.11,
1.782,-0.59,-5.23,-0.81,-0.75,-1.06,0.03,
1.782,-0.74,-4.57,-0.82,-0.75,-1.06,0.03,
1.783,-0.74,-4.57,-0.82,-0.75,-0.85,-0.03,
1.786,-0.74,-4.57,-0.82,-0.73,-0.76,-0.07,
1.787,0.61,-4.41,-0.57,-0.73,-0.76,-0.07,
1.788,0.61,-4.41,-0.57,-0.70,-0.72,-0.10,
1.791,0.61,-4.41,-0.57,-0.66,-0.70,-0.13,
1.791,0.97,-4.27,-0.88,-0.66,-0.70,-0.13,
1.793,0.97,-4.27,-0.88,-0.63,-0.69,-0.17,
1.801,1.26,-4.37,-1.73,-0.63,-0.69,-0.17,
1.802,1.26,-4.37,-1.73,-0.64,-0.61,-0.26,
1.803,1.26,-4.37,-1.73,-0.67,-0.54,-0.36,
1.803,1.26,-4.37,-1.73,-0.70,-0.50,-0.46,
1.804,1.53,-3.82,-1.97,-0.70,-0.50,-0.46,
1.804,1.53,-3.82,-1.97,-0.74,-0.45,-0.54,
1.807,1.70,-3.37,-2.27,-0.74,-0.45,-0.54,
1.807,1.70,-3.37,-2.27,-0.79,-0.39,-0.62,
1.831,1.70,-3.37,-2.27,-0.85,-0.32,-0.71,
1.831,1.70,-3.37,-2.27,-0.91,-0.25,-0.80,
1.832,1.80,-3.06,-2.29,-0.91,-0.25,-0.80,
1.832,1.80,-3.06,-2.29,-0.99,-0.19,-0.91,
1.832,1.80,-3.06,-2.29,-1.07,-0.12,-1.03,
1.833,2.11,-2.75,-2.31,-1.07,-0.12,-1.03,
1.833,2.11,-2.75,-2.31,-1.17,-0.04,-1.15,
1.833,2.11,-2.75,-2.31,-1.28,0.04,-1.28,
1.833,2.37,-2.19,-2.34,-1.28,0.04,-1.28,
1.834,2.37,-2.19,-2.34,-1.39,0.12,-1.41,
1.834,2.40,-0.98,-1.44,-1.39,0.12,-1.41,
1.834,2.40,-0.98,-1.44,-1.50,0.13,-1.52,
1.835,2.86,-0.81,-2.23,-1.50,0.13,-1.52,
1.835,2.86,-0.81,-2.23,-1.62,0.17,-1.63,
1.835,2.86,-0.81,-2.23,-1.74,0.32,-1.76,
1.835,2.86,-0.81,-2.23,-1.85,0.55,-1.90,
1.836,3.39,-1.28,-2.62,-1.85,0.55,-1.90,
1.836,3.39,-1.28,-2.62,-1.96,0.83,-2.07,
1.838,3.39,-1.28,-2.62,-2.07,1.14,-2.26,
1.84,3.39,-1.28,-2.62,-2.16,1.45,-2.46,
1.841,3.68,-1.67,-2.31,-2.16,1.45,-2.46,
1.843,3.68,-1.67,-2.31,-2.25,1.75,-2.67,
1.847,3.68,-1.67,-2.31,-2.33,2.03,-2.88,
1.85,4.25,-1.79,-1.71,-2.33,2.03,-2.88,
1.852,4.25,-1.79,-1.71,-2.39,2.31,-3.08,
1.852,4.25,-1.79,-1.71,-2.44,2.58,-3.29,
1.852,4.96,-1.72,-1.07,-2.44,2.58,-3.29,
1.855,4.96,-1.72,-1.07,-2.48,2.83,-3.49,
1.856,4.96,-1.72,-1.07,-2.49,3.06,-3.69,
1.857,5.04,-1.32,0.30,-2.49,3.06,-3.69,
1.858,5.04,-1.32,0.30,-2.46,3.21,-3.86,
1.86,4.36,-1.07,1.35,-2.46,3.21,-3.86,
1.86,4.36,-1.07,1.35,-2.42,3.36,-4.02,
1.864,4.36,-1.07,1.35,-2.38,3.54,-4.17,
1.865,3.73,-1.26,0.88,-2.38,3.54,-4.17,
1.865,3.73,-1.26,0.88,-2.34,3.73,-4.32,
1.867,3.73,-1.26,0.88,-2.32,3.95,-4.46,
1.87,3.73,-1.26,0.88,-2.29,4.18,-4.61,
1.87,3.98,-1.34,0.18,-2.29,4.18,-4.61,
1.872,3.98,-1.34,0.18,-2.27,4.38,-4.77,
1.874,3.98,-1.34,0.18,-2.22,4.44,-4.90,
1.875,4.16,-1.10,0.79,-2.22,4.44,-4.90,
1.878,4.16,-1.10,0.79,-2.07,4.20,-4.99,
1.88,4.16,-1.10,0.79,-1.78,3.52,-4.97,
1.88,1.87,-0.30,4.92,-1.78,3.52,-4.97,
1.883,1.87,-0.30,4.92,-1.35,2.48,-4.83,
1.885,1.87,-0.30,4.92,-0.83,1.25,-4.58,
1.886,-0.97,-0.88,5.58,-0.83,1.25,-4.58,
1.887,-0.97,-0.88,5.58,-0.26,0.08,-4.27,
1.89,-0.97,-0.88,5.58,0.28,-0.87,-3.93,
1.89,-2.06,-0.97,3.98,0.28,-0.87,-3.93,
1.893,-2.06,-0.97,3.98,0.77,-1.52,-3.60,
1.895,-2.06,-0.97,3.98,1.18,-1.90,-3.31,
1.895,-2.44,-0.46,2.26,1.18,-1.90,-3.31,
1.899,-2.44,-0.46,2.26,1.50,-2.06,-3.07,
1.9,-3.71,0.51,-2.67,1.50,-2.06,-3.07,
1.9,-3.71,0.51,-2.67,1.62,-1.81,-2.82,
1.902,-3.71,0.51,-2.67,1.71,-1.63,-2.62,
1.905,-1.11,1.22,2.00,1.71,-1.63,-2.62,
1.905,-1.11,1.22,2.00,1.83,-1.66,-2.50,
1.907,-1.11,1.22,2.00,1.88,-1.56,-2.38,
1.909,-1.67,1.66,-0.70,1.88,-1.56,-2.38,
1.91,-1.67,1.66,-0.70,1.85,-1.32,-2.24,
1.913,-1.67,1.66,-0.70,1.86,-1.19,-2.16,
1.915,-0.18,1.82,-0.59,1.86,-1.19,-2.16,
1.915,-0.18,1.82,-0.59,1.82,-0.97,-2.09,
1.917,-0.18,1.82,-0.59,1.75,-0.71,-2.03,
1.919,-0.18,1.82,-0.59,1.68,-0.47,-1.97,
1.919,0.23,1.76,-1.03,1.68,-0.47,-1.97,
1.921,0.23,1.76,-1.03,1.60,-0.24,-1.91,
1.924,0.23,1.76,-1.03,1.53,-0.04,-1.86,
1.925,0.29,1.58,-1.18,1.53,-0.04,-1.86,
1.927,0.29,1.58,-1.18,1.45,0.10,-1.80,
1.93,0.20,1.43,-1.09,1.45,0.10,-1.80,
1.93,0.20,1.43,-1.09,1.38,0.21,-1.73,
1.932,0.20,1.43,-1.09,1.31,0.30,-1.66,
1.934,0.20,1.43,-1.09,1.23,0.40,-1.60,
1.935,0.22,1.54,-0.99,1.23,0.40,-1.60,
1.938,0.22,1.54,-0.99,1.14,0.52,-1.56,
1.939,0.22,1.54,-0.99,1.07,0.63,-1.51,
1.939,0.14,1.53,-0.91,1.07,0.63,-1.51,
1.941,0.14,1.53,-0.91,1.02,0.80,-1.45,
1.945,0.34,1.36,-0.81,1.02,0.80,-1.45,
1.945,0.34,1.36,-0.81,0.99,1.00,-1.40,
1.948,0.34,1.36,-0.81,0.98,1.16,-1.34,
1.949,0.34,1.36,-0.81,0.97,1.29,-1.29,
1.949,0.43,1.10,-0.13,0.97,1.29,-1.29,
1.952,0.43,1.10,-0.13,0.96,1.39,-1.25,
1.954,0.43,1.10,-0.13,1.00,1.58,-1.21,
1.954,0.76,0.86,0.20,1.00,1.58,-1.21,
1.956,0.76,0.86,0.20,1.06,1.78,-1.18,
1.959,0.76,0.86,0.20,1.12,1.95,-1.18,
1.959,0.86,0.74,0.60,1.12,1.95,-1.18,
1.964,0.86,0.74,0.60,1.18,2.13,-1.19,
1.965,0.86,0.74,0.60,1.24,2.33,-1.21,
1.965,1.01,0.86,0.93,1.24,2.33,-1.21,
1.967,1.01,0.86,0.93,1.30,2.51,-1.25,
1.971,1.01,0.86,0.93,1.36,2.68,-1.31,
1.972,1.33,0.94,1.23,1.36,2.68,-1.31,
1.972,1.33,0.94,1.23,1.41,2.83,-1.38,
2.009,1.33,0.94,1.23,1.44,2.95,-1.47,
2.01,1.64,0.95,1.50,1.44,2.95,-1.47,
2.011,1.64,0.95,1.50,1.47,3.03,-1.58,
2.011,1.64,0.95,1.50,1.49,3.06,-1.70,
2.011,1.64,0.95,1.50,1.52,3.03,-1.81,
2.012,1.70,0.87,1.64,1.52,3.03,-1.81,
2.012,1.25,0.73,1.47,1.52,3.03,-1.81,
2.012,1.25,0.73,1.47,1.54,2.93,-1.92,
2.013,1.25,0.73,1.47,1.58,2.80,-2.02,
2.013,1.25,0.73,1.47,1.61,2.66,-2.12,
2.013,0.83,0.67,0.97,1.61,2.66,-2.12,
2.014,0.83,0.67,0.97,1.66,2.50,-2.20,
2.014,0.83,0.67,0.97,1.71,2.33,-2.27,
2.014,0.51,0.68,0.39,1.71,2.33,-2.27,
2.014,0.51,0.68,0.39,1.77,2.13,-2.32,
2.015,0.51,0.68,0.39,1.85,1.91,-2.34,
2.015,-0.14,0.65,-0.12,1.85,1.91,-2.34,
2.015,-0.14,0.65,-0.12,1.94,1.67,-2.36,
2.016,-0.14,0.65,-0.12,2.03,1.44,-2.35,
2.016,-0.74,0.72,-0.67,2.03,1.44,-2.35,
2.016,-0.74,0.72,-0.67,2.12,1.20,-2.33,
2.017,-0.74,0.72,-0.67,2.21,0.97,-2.30,
2.017,-1.22,0.75,-1.35,2.21,0.97,-2.30,
2.017,-1.22,0.75,-1.35,2.27,0.76,-2.27,
2.018,-1.22,0.75,-1.35,2.31,0.55,-2.24,
2.018,-1.39,0.85,-1.96,2.31,0.55,-2.24,
2.018,-1.39,0.85,-1.96,2.32,0.36,-2.23,
2.019,-1.39,0.85,-1.96,2.31,0.19,-2.23,
2.019,-1.53,0.96,-2.67,2.31,0.19,-2.23,
2.021,-1.53,0.96,-2.67,2.27,0.04,-2.25,
2.023,-1.66,1.06,-3.18,2.27,0.04,-2.25,
2.024,-1.66,1.06,-3.18,2.20,-0.10,-2.28,
2.028,-1.66,1.06,-3.18,2.12,-0.24,-2.32,
2.028,-1.83,1.13,-2.18,2.12,-0.24,-2.32,
2.029,-1.83,1.13,-2.18,2.06,-0.40,-2.35,
2.031,-1.83,1.13,-2.18,2.00,-0.57,-2.37,
2.033,-1.83,1.13,-2.18,1.96,-0.72,-2.37,
2.033,-2.28,1.24,-1.63,1.96,-0.72,-2.37,
2.035,-2.28,1.24,-1.63,1.91,-0.85,-2.37,
2.038,-2.28,1.24,-1.63,1.86,-0.96,-2.34,
2.038,-2.58,1.31,-1.27,1.86,-0.96,-2.34,
2.04,-2.58,1.31,-1.27,1.83,-1.07,-2.31,
2.043,-2.58,1.31,-1.27,1.81,-1.14,-2.26,
2.043,-2.65,1.29,-0.71,1.81,-1.14,-2.26,
2.045,-2.65,1.29,-0.71,1.80,-1.17,-2.20,
2.049,-2.84,1.06,-0.41,1.80,-1.17,-2.20,
2.05,-2.84,1.06,-0.41,1.80,-1.17,-2.13,
2.051,-2.84,1.06,-0.41,1.78,-1.18,-2.05,
2.054,-2.84,1.06,-0.41,1.76,-1.19,-1.98,
2.054,-3.10,0.57,-0.26,1.76,-1.19,-1.98,
2.055,-3.10,0.57,-0.26,1.72,-1.21,-1.90,
2.058,-3.10,0.57,-0.26,1.67,-1.25,-1.82,
2.058,-3.46,-0.24,-0.17,1.67,-1.25,-1.82,
2.061,-3.46,-0.24,-0.17,1.61,-1.27,-1.73,
2.064,-3.32,-0.57,-0.31,1.61,-1.27,-1.73,
2.064,-3.32,-0.57,-0.31,1.53,-1.29,-1.64,
2.065,-3.32,-0.57,-0.31,1.44,-1.28,-1.58,
2.068,-3.32,-0.57,-0.31,1.33,-1.26,-1.55,
2.068,-2.78,-0.55,-0.48,1.33,-1.26,-1.55,
2.07,-2.78,-0.55,-0.48,1.22,-1.22,-1.50,
2.073,-2.78,-0.55,-0.48,1.11,-1.15,-1.43,
2.073,-2.92,-1.04,-0.71,1.11,-1.15,-1.43,
2.075,-2.92,-1.04,-0.71,1.00,-1.06,-1.34,
2.09,-2.58,-0.61,-0.59,1.00,-1.06,-1.34,
2.091,-2.58,-0.61,-0.59,0.92,-0.97,-1.28,
2.091,-2.58,-0.61,-0.59,0.87,-0.93,-1.27,
2.091,-2.58,-0.61,-0.59,0.83,-0.90,-1.24,
2.092,-2.39,-0.37,-0.28,0.83,-0.90,-1.24,
2.092,-2.39,-0.37,-0.28,0.79,-0.85,-1.18,
2.093,-2.39,-0.37,-0.28,0.77,-0.84,-1.15,
2.093,-2.35,-0.34,-0.10,0.77,-0.84,-1.15,
2.094,-2.35,-0.34,-0.10,0.76,-0.89,-1.13,
2.094,-2.35,-0.34,-0.10,0.76,-1.00,-1.13,
2.095,-1.79,-0.04,0.62,0.76,-1.00,-1.13,
2.109,-1.79,-0.04,0.62,0.78,-1.17,-1.16,
2.11,-0.97,0.54,1.00,0.78,-1.17,-1.16,
2.11,-0.97,0.54,1.00,0.80,-1.39,-1.21,
2.111,-0.97,0.54,1.00,0.84,-1.65,-1.31,
2.111,-0.97,0.54,1.00,0.89,-1.94,-1.44,
2.112,0.18,1.18,1.18,0.89,-1.94,-1.44,
2.112,0.18,1.18,1.18,0.94,-2.24,-1.62,
2.112,0.18,1.18,1.18,0.99,-2.53,-1.84,
2.114,1.71,1.62,1.09,0.99,-2.53,-1.84,
2.115,2.80,1.74,0.25,0.99,-2.53,-1.84,
2.115,2.80,1.74,0.25,1.03,-2.76,-2.11,
2.116,2.80,1.74,0.25,1.06,-2.90,-2.39,
2.123,2.80,1.74,0.25,1.06,-2.89,-2.64,
2.124,2.05,1.93,-0.72,1.06,-2.89,-2.64,
2.124,2.05,1.93,-0.72,1.05,-2.77,-2.80,
2.124,2.05,1.93,-0.72,1.05,-2.56,-2.86,
2.125,0.87,1.81,-1.29,1.05,-2.56,-2.86,
2.125,0.87,1.81,-1.29,1.04,-2.28,-2.84,
2.127,0.87,1.81,-1.29,1.02,-1.95,-2.76,
2.132,0.87,1.81,-1.29,1.00,-1.58,-2.65,
2.132,0.37,1.66,-1.65,1.00,-1.58,-2.65,
2.133,0.37,1.66,-1.65,0.96,-1.20,-2.52,
2.134,0.26,1.35,-1.76,0.96,-1.20,-2.52,
2.134,0.26,1.35,-1.76,0.92,-0.82,-2.39,
2.138,0.26,1.35,-1.76,0.89,-0.47,-2.28,
2.138,0.26,1.35,-1.76,0.86,-0.17,-2.17,
2.153,-0.20,0.87,-1.28,0.86,-0.17,-2.17,
2.153,-0.20,0.87,-1.28,0.85,0.07,-2.07,
2.153,-0.20,0.87,-1.28,0.84,0.28,-1.97,
2.153,-0.67,0.50,-0.75,0.84,0.28,-1.97,
2.153,-0.67,0.50,-0.75,0.84,0.45,-1.86,
2.154,-0.67,0.50,-0.75,0.84,0.58,-1.76,
2.154,-1.02,0.25,-0.47,0.84,0.58,-1.76,
2.154,-1.02,0.25,-0.47,0.85,0.69,-1.66,
2.154,-1.02,0.25,-0.47,0.85,0.78,-1.57,
2.154,-1.31,0.15,-0.41,0.85,0.78,-1.57,
2.155,-1.31,0.15,-0.41,0.85,0.84,-1.48,
2.157,-1.31,0.15,-0.41,0.85,0.88,-1.40,
2.158,-1.52,0.18,-0.30,0.85,0.88,-1.40,
2.159,-1.52,0.18,-0.30,0.85,0.88,-1.30,
2.163,-1.52,0.18,-0.30,0.84,0.88,-1.19,
2.164,-1.76,0.38,-0.41,0.84,0.88,-1.19,
2.166,-1.76,0.38,-0.41,0.82,0.88,-1.06,
2.167,-1.76,0.38,-0.41,0.80,0.88,-0.92,
2.167,-1.78,0.53,-0.76,0.80,0.88,-0.92,
2.169,-1.78,0.53,-0.76,0.77,0.89,-0.79,
2.173,-1.78,0.53,-0.76,0.73,0.89,-0.66,
2.173,-1.62,0.41,-1.21,0.73,0.89,-0.66,
2.176,-1.62,0.41,-1.21,0.67,0.88,-0.55,
2.178,-1.62,0.41,-1.21,0.61,0.85,-0.44,
2.178,-1.38,0.31,-1.27,0.61,0.85,-0.44,
2.18,-1.38,0.31,-1.27,0.54,0.82,-0.35,
2.182,-1.38,0.31,-1.27,0.46,0.78,-0.27,
2.182,-1.04,0.08,-1.45,0.46,0.78,-0.27,
2.186,-1.04,0.08,-1.45,0.38,0.74,-0.20,
2.187,-0.51,0.09,-1.36,0.38,0.74,-0.20,
2.187,-0.51,0.09,-1.36,0.30,0.69,-0.14,
2.189,-0.51,0.09,-1.36,0.22,0.65,-0.08,
2.192,-0.51,0.09,-1.36,0.14,0.62,-0.03,
2.192,0.02,0.02,-1.43,0.14,0.62,-0.03,
2.194,0.02,0.02,-1.43,0.07,0.61,0.01,
2.197,0.02,0.02,-1.43,0.00,0.62,0.03,
2.197,0.71,-0.07,-1.37,0.00,0.62,0.03,
2.199,0.71,-0.07,-1.37,-0.06,0.65,0.02,
2.202,0.71,-0.07,-1.37,-0.10,0.71,-0.02,
2.202,1.48,-0.37,-1.28,-0.10,0.71,-0.02,
2.204,1.48,-0.37,-1.28,-0.13,0.80,-0.11,
2.207,1.48,-0.37,-1.28,-0.15,0.91,-0.26,
2.207,1.95,-0.97,-1.17,-0.15,0.91,-0.26,
2.209,1.95,-0.97,-1.17,-0.16,1.02,-0.44,
2.212,1.90,-1.67,-1.01,-0.16,1.02,-0.44,
2.213,1.90,-1.67,-1.01,-0.17,1.14,-0.68,
2.214,1.90,-1.67,-1.01,-0.17,1.24,-0.96,
2.217,1.90,-1.67,-1.01,-0.16,1.30,-1.28,
2.217,1.29,-2.21,-0.57,-0.16,1.30,-1.28,
2.219,1.29,-2.21,-0.57,-0.15,1.32,-1.61,
2.221,1.29,-2.21,-0.57,-0.14,1.30,-1.95,
2.221,0.45,-2.33,-0.14,-0.14,1.30,-1.95,
2.224,0.45,-2.33,-0.14,-0.12,1.27,-2.29,
2.228,-0.69,-1.45,0.33,-0.12,1.27,-2.29,
2.228,-0.69,-1.45,0.33,-0.08,1.22,-2.60,
2.23,-0.69,-1.45,0.33,-0.04,1.17,-2.88,
2.233,-1.68,-0.84,0.21,-0.04,1.17,-2.88,
2.233,-1.68,-0.84,0.21,0.02,1.14,-3.12,
2.234,-1.68,-0.84,0.21,0.09,1.12,-3.29,
2.236,-1.68,-0.84,0.21,0.17,1.10,-3.41,
2.236,-2.35,0.08,-0.05,0.17,1.10,-3.41,
2.239,-2.35,0.08,-0.05,0.25,1.09,-3.47,
2.241,-2.35,0.08,-0.05,0.32,1.08,-3.50,
2.241,-2.44,0.74,-0.39,0.32,1.08,-3.50,
2.244,-2.44,0.74,-0.39,0.39,1.04,-3.51,
2.247,-2.44,0.74,-0.39,0.46,0.98,-3.53,
2.248,-1.76,0.97,-0.38,0.46,0.98,-3.53,
2.249,-1.76,0.97,-0.38,0.52,0.90,-3.58,
2.251,-1.76,0.97,-0.38,0.58,0.84,-3.68,
2.252,-0.31,0.57,-0.78,0.58,0.84,-3.68,
2.254,-0.31,0.57,-0.78,0.63,0.81,-3.85,
2.256,-0.31,0.57,-0.78,0.65,0.84,-4.11,
2.257,1.20,-0.80,-1.48,0.65,0.84,-4.11,
2.259,1.20,-0.80,-1.48,0.67,0.87,-4.39,
2.265,1.22,-0.69,-1.62,0.67,0.87,-4.39,
2.266,1.22,-0.69,-1.62,0.69,0.91,-4.65,
2.266,1.22,-0.69,-1.62,0.72,1.00,-4.91,
2.267,1.22,-0.69,-1.62,0.77,1.16,-5.25,
2.268,0.63,-2.56,-2.13,0.77,1.16,-5.25,
2.27,0.63,-2.56,-2.13,0.86,1.39,-5.65,
2.271,-0.77,-4.70,-2.62,0.86,1.39,-5.65,
2.271,-0.77,-4.70,-2.62,0.98,1.70,-6.10,
2.274,-0.77,-4.70,-2.62,1.15,2.13,-6.57,
2.276,-0.77,-4.70,-2.62,1.34,2.43,-6.97,
2.277,-2.46,-4.45,-0.81,1.34,2.43,-6.97,
2.279,-2.46,-4.45,-0.81,1.52,2.42,-7.22,
2.283,-2.46,-4.45,-0.81,1.65,2.13,-7.37,
2.283,-4.51,-1.76,0.87,1.65,2.13,-7.37,
2.284,-4.51,-1.76,0.87,1.71,1.67,-7.47,
2.286,-4.51,-1.76,0.87,1.70,1.19,-7.51,
2.286,-3.95,0.88,-0.22,1.70,1.19,-7.51,
2.288,-3.95,0.88,-0.22,1.70,0.73,-7.51,
2.291,-3.95,0.88,-0.22,1.73,0.34,-7.45,
2.291,-3.79,3.17,1.06,1.73,0.34,-7.45,
2.293,-3.79,3.17,1.06,1.76,0.03,-7.34,
2.296,-3.79,3.17,1.06,1.75,-0.20,-7.21,
2.297,-3.36,4.35,-0.88,1.75,-0.20,-7.21,
2.299,-3.36,4.35,-0.88,1.71,-0.32,-7.07,
2.301,-3.36,4.35,-0.88,1.69,-0.32,-6.91,
2.301,-2.90,5.21,-1.56,1.69,-0.32,-6.91,
2.321,-2.90,5.21,-1.56,1.71,-0.23,-6.71,
2.322,-2.90,5.21,-1.56,1.75,-0.08,-6.50,
2.322,-2.88,5.74,-1.77,1.75,-0.08,-6.50,
2.322,-2.88,5.74,-1.77,1.77,0.08,-6.27,
2.323,-2.88,5.74,-1.77,1.79,0.23,-6.05,
2.323,-2.63,5.89,-2.61,1.79,0.23,-6.05,
2.324,-2.63,5.89,-2.61,1.80,0.36,-5.82,
2.324,-2.63,5.89,-2.61,1.82,0.48,-5.60,
2.325,-2.32,6.06,-2.28,1.82,0.48,-5.60,
2.325,-2.32,6.06,-2.28,1.83,0.57,-5.37,
2.326,-2.22,6.23,-2.44,1.83,0.57,-5.37,
2.326,-2.22,6.23,-2.44,1.82,0.62,-5.14,
2.326,-2.22,6.23,-2.44,1.80,0.63,-4.90,
2.327,-2.22,6.23,-2.44,1.78,0.61,-4.66,
2.327,-2.07,6.26,-2.04,1.78,0.61,-4.66,
2.329,-2.07,6.26,-2.04,1.77,0.57,-4.42,
2.331,-2.07,6.26,-2.04,1.76,0.51,-4.18,
2.331,-1.86,6.31,-1.27,1.76,0.51,-4.18,
2.333,-1.86,6.31,-1.27,1.76,0.44,-3.93,
2.336,-1.86,6.31,-1.27,1.77,0.37,-3.67,
2.336,-1.75,6.17,-0.45,1.77,0.37,-3.67,
2.338,-1.75,6.17,-0.45,1.78,0.29,-3.40,
2.341,-1.75,6.17,-0.45,1.81,0.21,-3.12,
2.341,-1.64,6.05,0.36,1.81,0.21,-3.12,
2.343,-1.64,6.05,0.36,1.84,0.14,-2.81,
2.348,-1.64,6.05,0.36,1.87,0.06,-2.49,
2.349,-1.36,5.95,0.83,1.87,0.06,-2.49,
2.349,-1.36,5.95,0.83,1.91,-0.01,-2.16,
2.35,-1.36,5.95,0.83,1.95,-0.08,-1.82,
2.351,-0.96,5.71,1.20,1.95,-0.08,-1.82,
2.353,-0.96,5.71,1.20,2.00,-0.16,-1.50,
2.355,-0.96,5.71,1.20,2.03,-0.22,-1.18,
2.356,-0.43,5.33,1.30,2.03,-0.22,-1.18,
2.358,-0.43,5.33,1.30,2.07,-0.27,-0.88,
2.36,-0.43,5.33,1.30,2.10,-0.30,-0.61,
2.361,0.10,4.87,1.16,2.10,-0.30,-0.61,
2.367,0.10,4.87,1.16,2.12,-0.31,-0.35,
2.368,0.10,4.87,1.16,2.13,-0.33,-0.13,
2.368,0.58,4.16,0.83,2.13,-0.33,-0.13,
2.368,0.58,4.16,0.83,2.12,-0.36,0.06,
2.371,0.58,4.16,0.83,2.09,-0.45,0.23,
2.372,1.11,3.02,0.26,2.09,-0.45,0.23,
2.374,1.11,3.02,0.26,2.05,-0.54,0.36,
2.375,1.11,3.02,0.26,2.02,-0.60,0.46,
2.376,1.69,1.80,0.33,2.02,-0.60,0.46,
2.379,1.69,1.80,0.33,1.97,-0.65,0.52,
2.382,1.69,1.80,0.33,1.91,-0.64,0.57,
2.383,2.21,0.48,-0.52,1.91,-0.64,0.57,
2.383,2.21,0.48,-0.52,1.84,-0.55,0.59,
2.385,2.21,0.48,-0.52,1.63,-0.29,0.59,
2.385,2.64,-0.63,-3.79,1.63,-0.29,0.59,
2.388,2.64,-0.63,-3.79,1.53,-0.09,0.59,
2.39,2.64,-0.63,-3.79,1.43,0.01,0.58,
2.39,2.30,-1.97,-2.00,1.43,0.01,0.58,
2.393,2.30,-1.97,-2.00,1.36,0.05,0.57,
2.397,2.30,-1.97,-2.00,1.23,0.13,0.55,
2.398,2.08,-3.03,-1.14,1.23,0.13,0.55,
2.398,2.08,-3.03,-1.14,1.12,0.19,0.50,
2.401,2.08,-3.03,-1.14,1.14,0.26,0.46,
2.401,1.72,-3.61,-0.19,1.14,0.26,0.46,
2.402,1.72,-3.61,-0.19,0.94,0.18,0.41,
2.405,1.72,-3.61,-0.19,0.76,0.17,0.35,
2.405,1.49,-4.44,0.98,0.76,0.17,0.35,
2.407,1.49,-4.44,0.98,0.77,0.19,0.29,
2.41,0.95,-5.21,-0.72,0.77,0.19,0.29,
2.41,0.95,-5.21,-0.72,0.62,0.03,0.23,
2.413,0.95,-5.21,-0.72,0.49,0.25,0.15,
2.415,0.95,-5.21,-0.72,0.30,0.39,0.10,
2.416,0.57,-5.70,-4.27,0.30,0.39,0.10,
2.417,0.57,-5.70,-4.27,0.21,0.29,0.05,
2.42,0.57,-5.70,-4.27,0.12,0.21,0.01,
2.42,-0.37,-6.50,-0.77,0.12,0.21,0.01,
2.422,-0.37,-6.50,-0.77,0.03,0.29,-0.02,
2.425,-0.37,-6.50,-0.77,-0.03,0.47,-0.05,
2.425,-1.07,-7.34,-1.46,-0.03,0.47,-0.05,
2.428,-1.07,-7.34,-1.46,-0.09,0.49,-0.05,
2.43,-1.07,-7.34,-1.46,-0.14,0.51,-0.05,
2.431,-2.02,-7.59,-0.89,-0.14,0.51,-0.05,
2.432,-2.02,-7.59,-0.89,-0.19,0.55,-0.03,
2.435,-2.02,-7.59,-0.89,-0.23,0.61,-0.02,
2.435,-2.50,-7.67,-1.72,-0.23,0.61,-0.02,
2.437,-2.50,-7.67,-1.72,-0.27,0.65,0.01,
2.44,-2.50,-7.67,-1.72,-0.30,0.65,0.03,
2.44,-2.68,-7.26,-1.71,-0.30,0.65,0.03,
2.442,-2.68,-7.26,-1.71,-0.32,0.66,0.05,
2.446,-2.68,-7.26,-1.71,-0.34,0.66,0.09,
2.447,-2.82,-6.92,-2.15,-0.34,0.66,0.09,
2.447,-2.82,-6.92,-2.15,-0.35,0.66,0.12,
2.449,-2.82,-6.92,-2.15,-0.35,0.65,0.17,
2.45,-2.97,-6.02,-2.38,-0.35,0.65,0.17,
2.452,-2.97,-6.02,-2.38,-0.35,0.63,0.21,
2.454,-2.97,-6.02,-2.38,-0.35,0.61,0.26,
2.455,-2.71,-4.53,-2.74,-0.35,0.61,0.26,
2.457,-2.71,-4.53,-2.74,-0.35,0.60,0.30,
2.459,-2.71,-4.53,-2.74,-0.34,0.58,0.33,
2.46,-2.17,-2.96,-2.80,-0.34,0.58,0.33,
2.462,-2.17,-2.96,-2.80,-0.32,0.57,0.35,
2.464,-2.17,-2.96,-2.80,-0.29,0.56,0.36,
2.465,-2.04,-1.81,-2.70,-0.29,0.56,0.36,
2.467,-2.04,-1.81,-2.70,-0.25,0.55,0.38,
2.481,-2.04,-1.81,-2.70,-0.22,0.55,0.40,
2.482,-2.18,-0.90,-2.57,-0.22,0.55,0.40,
2.482,-2.18,-0.90,-2.57,-0.18,0.54,0.43,
2.482,-2.18,-0.90,-2.57,-0.14,0.52,0.46,
2.482,-2.04,-0.43,-2.25,-0.14,0.52,0.46,
2.483,-2.04,-0.43,-2.25,-0.11,0.49,0.48,
2.483,-2.04,-0.43,-2.25,-0.08,0.47,0.51,
2.483,-1.83,-0.41,-2.03,-0.08,0.47,0.51,
2.483,-1.83,-0.41,-2.03,-0.05,0.45,0.54,
2.487,-1.83,-0.41,-2.03,-0.02,0.42,0.57,
2.488,-1.60,-0.44,-1.58,-0.02,0.42,0.57,
2.488,-1.60,-0.44,-1.58,-0.01,0.39,0.59,
2.491,-1.60,-0.44,-1.58,0.01,0.38,0.62,
2.491,-1.37,-0.71,-1.43,0.01,0.38,0.62,
2.491,-1.37,-0.71,-1.43,0.02,0.37,0.65,
2.494,-1.37,-0.71,-1.43,0.02,0.35,0.66,
2.495,-1.18,-1.01,-1.18,0.02,0.35,0.66,
2.499,-1.18,-1.01,-1.18,0.01,0.33,0.69,
2.5,-1.18,-1.01,-1.18,0.00,0.31,0.72,
2.5,-1.18,-1.12,-0.90,0.00,0.31,0.72,
2.501,-1.18,-1.12,-0.90,-0.00,0.28,0.75,
2.504,-1.18,-1.12,-0.90,-0.02,0.25,0.78,
2.504,-1.03,-1.04,-0.55,-0.02,0.25,0.78,
2.506,-1.03,-1.04,-0.55,-0.04,0.22,0.82,
2.509,-1.03,-1.04,-0.55,-0.05,0.19,0.86,
2.509,-0.92,-0.83,-0.28,-0.05,0.19,0.86,
2.512,-0.92,-0.83,-0.28,-0.08,0.15,0.89,
2.514,-0.50,-1.07,-0.11,-0.08,0.15,0.89,
2.514,-0.50,-1.07,-0.11,-0.10,0.12,0.91,
2.517,-0.50,-1.07,-0.11,-0.13,0.11,0.93,
2.519,-0.50,-1.07,-0.11,-0.16,0.10,0.94,
2.519,-0.06,-1.52,0.12,-0.16,0.10,0.94,
2.521,-0.06,-1.52,0.12,-0.18,0.09,0.94,
2.524,0.21,-1.99,0.30,-0.18,0.09,0.94,
2.524,0.21,-1.99,0.30,-0.21,0.09,0.93,
2.526,0.21,-1.99,0.30,-0.23,0.09,0.92,
2.529,0.21,-1.99,0.30,-0.25,0.09,0.91,
2.529,0.38,-2.40,0.44,-0.25,0.09,0.91,
2.531,0.38,-2.40,0.44,-0.26,0.08,0.89,
2.534,0.38,-2.40,0.44,-0.28,0.06,0.87,
2.534,0.63,-3.02,0.60,-0.28,0.06,0.87,
2.536,0.63,-3.02,0.60,-0.30,0.02,0.83,
2.539,0.63,-3.02,0.60,-0.31,-0.03,0.78,
2.539,0.78,-3.71,0.66,-0.31,-0.03,0.78,
2.541,0.78,-3.71,0.66,-0.32,-0.08,0.73,
2.544,0.78,-3.71,0.66,-0.34,-0.12,0.68,
2.544,0.54,-4.32,0.32,-0.34,-0.12,0.68,
2.547,0.54,-4.32,0.32,-0.35,-0.15,0.62,
2.549,0.54,-4.32,0.32,-0.36,-0.17,0.56,
2.549,0.25,-4.64,-0.26,-0.36,-0.17,0.56,
2.551,0.25,-4.64,-0.26,-0.37,-0.18,0.50,
2.554,0.25,-4.64,-0.26,-0.38,-0.19,0.42,
2.554,0.16,-4.56,-0.64,-0.38,-0.19,0.42,
2.556,0.16,-4.56,-0.64,-0.38,-0.19,0.34,
2.559,0.16,-4.56,-0.64,-0.39,-0.19,0.25,
2.559,0.05,-4.04,-0.97,-0.39,-0.19,0.25,
2.561,0.05,-4.04,-0.97,-0.38,-0.17,0.16,
2.571,-0.17,-3.41,-1.18,-0.38,-0.17,0.16,
2.572,-0.17,-3.41,-1.18,-0.38,-0.14,0.06,
2.572,-0.17,-3.41,-1.18,-0.36,-0.12,-0.03,
2.572,-0.17,-3.41,-1.18,-0.34,-0.10,-0.11,
2.572,-0.49,-2.57,-0.96,-0.34,-0.10,-0.11,
2.572,-0.49,-2.57,-0.96,-0.32,-0.09,-0.19,
2.574,-0.49,-2.57,-0.96,-0.29,-0.09,-0.25,
2.575,-0.47,-1.63,-0.62,-0.29,-0.09,-0.25,
2.577,-0.47,-1.63,-0.62,-0.25,-0.10,-0.31,
2.579,-0.47,-1.63,-0.62,-0.22,-0.12,-0.34,
2.58,-0.06,-0.97,-0.31,-0.22,-0.12,-0.34,
2.582,-0.06,-0.97,-0.31,-0.19,-0.13,-0.37,
2.584,0.50,-0.39,0.07,-0.19,-0.13,-0.37,
2.585,0.50,-0.39,0.07,-0.16,-0.14,-0.39,
2.587,0.50,-0.39,0.07,-0.13,-0.15,-0.41,
2.588,0.81,0.15,0.55,-0.13,-0.15,-0.41,
2.589,0.81,0.15,0.55,-0.10,-0.15,-0.42,
2.591,0.81,0.15,0.55,-0.07,-0.16,-0.43,
2.593,1.09,0.51,1.07,-0.07,-0.16,-0.43,
2.594,1.09,0.51,1.07,-0.05,-0.17,-0.44,
2.596,1.09,0.51,1.07,-0.02,-0.18,-0.45,
2.599,1.26,0.76,1.49,-0.02,-0.18,-0.45,
2.599,1.26,0.76,1.49,0.00,-0.19,-0.45,
2.601,1.26,0.76,1.49,0.02,-0.21,-0.46,
2.604,1.26,0.76,1.49,0.03,-0.22,-0.47,
2.604,1.46,1.01,1.80,0.03,-0.22,-0.47,
2.606,1.46,1.01,1.80,0.05,-0.23,-0.48,
2.609,1.58,1.22,2.04,0.05,-0.23,-0.48,
2.609,1.58,1.22,2.04,0.06,-0.24,-0.49,
2.611,1.58,1.22,2.04,0.06,-0.26,-0.50,
2.614,1.58,1.22,2.04,0.06,-0.27,-0.51,
2.614,1.65,1.48,2.12,0.06,-0.27,-0.51,
2.616,1.65,1.48,2.12,0.06,-0.27,-0.52,
2.619,1.65,1.48,2.12,0.05,-0.28,-0.53,
2.619,1.62,1.69,2.06,0.05,-0.28,-0.53,
2.621,1.62,1.69,2.06,0.04,-0.28,-0.53,
2.623,1.62,1.69,2.06,0.03,-0.28,-0.53,
2.623,1.58,1.92,1.90,0.03,-0.28,-0.53,
2.626,1.58,1.92,1.90,0.01,-0.26,-0.53,
2.63,1.49,2.16,1.63,0.01,-0.26,-0.53,
2.631,1.49,2.16,1.63,-0.01,-0.24,-0.53,
2.631,1.49,2.16,1.63,-0.03,-0.22,-0.52,
2.633,1.49,2.16,1.63,-0.05,-0.20,-0.51,
2.65,1.40,2.36,1.47,-0.05,-0.20,-0.51,
2.651,1.40,2.36,1.47,-0.07,-0.18,-0.51,
2.651,1.40,2.36,1.47,-0.08,-0.16,-0.50,
2.651,1.31,2.50,1.39,-0.08,-0.16,-0.50,
2.652,1.31,2.50,1.39,-0.09,-0.15,-0.48,
2.652,1.31,2.50,1.39,-0.09,-0.14,-0.47,
2.652,1.23,2.53,1.26,-0.09,-0.14,-0.47,
2.653,1.23,2.53,1.26,-0.08,-0.12,-0.46,
2.653,1.23,2.53,1.26,-0.07,-0.10,-0.45,
2.653,1.19,2.49,0.99,-0.07,-0.10,-0.45,
2.654,1.19,2.49,0.99,-0.06,-0.08,-0.44,
2.654,1.19,2.49,0.99,-0.04,-0.06,-0.43,
2.655,1.11,2.40,0.63,-0.04,-0.06,-0.43,
2.657,1.11,2.40,0.63,-0.03,-0.04,-0.42,
2.659,1.11,2.40,0.63,-0.00,-0.02,-0.40,
2.659,0.99,2.34,0.48,-0.00,-0.02,-0.40,
2.66,0.99,2.34,0.48,0.03,-0.01,-0.39,
2.663,0.99,2.34,0.48,0.06,0.01,-0.38,
2.664,0.89,2.20,0.27,0.06,0.01,-0.38,
2.666,0.89,2.20,0.27,0.09,0.05,-0.37,
2.668,0.89,2.20,0.27,0.13,0.08,-0.37,
2.668,0.82,2.04,0.16,0.13,0.08,-0.37,
2.67,0.82,2.04,0.16,0.17,0.10,-0.36,
2.673,0.82,2.04,0.16,0.21,0.12,-0.36,
2.673,0.58,1.88,0.11,0.21,0.12,-0.36,
2.675,0.58,1.88,0.11,0.25,0.13,-0.35,
2.678,0.58,1.88,0.11,0.28,0.13,-0.35,
2.678,0.35,1.68,0.06,0.28,0.13,-0.35,
2.686,0.35,1.68,0.06,0.31,0.12,-0.34,
2.688,0.25,1.48,-0.08,0.31,0.12,-0.34,
2.688,0.25,1.48,-0.08,0.33,0.10,-0.34,
2.688,0.25,1.48,-0.08,0.35,0.09,-0.34,
2.688,0.15,1.29,-0.04,0.35,0.09,-0.34,
2.689,0.15,1.29,-0.04,0.37,0.09,-0.34,
2.691,0.15,1.29,-0.04,0.39,0.11,-0.34,
2.692,0.15,1.29,-0.04,0.42,0.15,-0.34,
2.693,0.26,0.98,0.23,0.42,0.15,-0.34,
2.695,0.26,0.98,0.23,0.45,0.20,-0.34,
2.698,0.53,0.56,0.22,0.45,0.20,-0.34,
2.698,0.53,0.56,0.22,0.48,0.25,-0.36,
2.7,0.53,0.56,0.22,0.50,0.29,-0.37,
2.703,0.68,0.15,0.00,0.50,0.29,-0.37,
2.703,0.68,0.15,0.00,0.51,0.31,-0.39,
2.705,0.68,0.15,0.00,0.51,0.31,-0.40,
2.709,0.59,-0.17,-0.23,0.51,0.31,-0.40,
2.709,0.59,-0.17,-0.23,0.51,0.29,-0.41,
2.711,0.59,-0.17,-0.23,0.49,0.27,-0.42,
2.714,0.59,-0.17,-0.23,0.47,0.24,-0.42,
2.715,0.29,-0.33,-0.49,0.47,0.24,-0.42,
2.715,0.29,-0.33,-0.49,0.45,0.21,-0.41,
2.719,0.29,-0.33,-0.49,0.43,0.18,-0.40,
2.719,0.11,-0.45,-0.45,0.43,0.18,-0.40,
2.719,0.11,-0.45,-0.45,0.41,0.16,-0.40,
2.723,0.11,-0.45,-0.45,0.40,0.15,-0.39,
2.723,-0.03,-0.56,-0.27,0.40,0.15,-0.39,
2.725,-0.03,-0.56,-0.27,0.39,0.14,-0.39,
2.727,-0.07,-0.62,-0.12,0.39,0.14,-0.39,
2.727,-0.07,-0.62,-0.12,0.39,0.12,-0.39,
2.731,-0.07,-0.62,-0.12,0.39,0.10,-0.39,
2.732,-0.07,-0.62,-0.12,0.39,0.07,-0.40,
2.733,-0.05,-0.64,-0.12,0.39,0.07,-0.40,
2.735,-0.05,-0.64,-0.12,0.38,0.04,-0.40,
2.737,-0.05,-0.64,-0.12,0.37,-0.00,-0.40,
2.737,-0.23,-0.62,-0.47,0.37,-0.00,-0.40,
2.739,-0.23,-0.62,-0.47,0.35,-0.04,-0.40,
2.742,-0.23,-0.62,-0.47,0.33,-0.08,-0.40,
2.742,-0.40,-0.54,-0.98,0.33,-0.08,-0.40,
2.744,-0.40,-0.54,-0.98,0.31,-0.11,-0.40,
2.748,-0.55,-0.43,-1.50,0.31,-0.11,-0.40,
2.748,-0.55,-0.43,-1.50,0.29,-0.12,-0.39,
2.75,-0.55,-0.43,-1.50,0.27,-0.12,-0.39,
2.752,-0.54,-0.46,-1.92,0.27,-0.12,-0.39,
2.752,-0.54,-0.46,-1.92,0.24,-0.11,-0.39,
2.754,-0.54,-0.46,-1.92,0.22,-0.09,-0.40,
2.757,-0.54,-0.46,-1.92,0.20,-0.08,-0.39,
2.757,-0.69,-0.47,-2.08,0.20,-0.08,-0.39,
2.759,-0.69,-0.47,-2.08,0.19,-0.06,-0.39,
2.766,-0.69,-0.47,-2.08,0.18,-0.04,-0.39,
2.766,-0.73,-0.49,-2.17,0.18,-0.04,-0.39,
2.767,-0.73,-0.49,-2.17,0.18,0.00,-0.40,
2.767,-0.69,-0.53,-1.99,0.18,0.00,-0.40,
2.768,-0.69,-0.53,-1.99,0.19,0.04,-0.41,
2.769,-0.69,-0.53,-1.99,0.20,0.08,-0.42,
2.772,-0.83,-0.49,-1.76,0.20,0.08,-0.42,
2.773,-0.83,-0.49,-1.76,0.21,0.13,-0.43,
2.775,-0.83,-0.49,-1.76,0.23,0.17,-0.44,
2.777,-0.83,-0.49,-1.76,0.24,0.21,-0.45,
2.777,-0.87,-0.48,-1.77,0.24,0.21,-0.45,
2.78,-0.87,-0.48,-1.77,0.25,0.24,-0.46,
2.783,-0.87,-0.48,-1.77,0.26,0.28,-0.48,
2.783,-0.81,-0.37,-1.57,0.26,0.28,-0.48,
2.784,-0.81,-0.37,-1.57,0.27,0.32,-0.51,
2.787,-0.91,-0.12,-1.36,0.27,0.32,-0.51,
2.787,-0.91,-0.12,-1.36,0.29,0.36,-0.53,
2.789,-0.91,-0.12,-1.36,0.30,0.39,-0.55,
2.792,-0.98,0.11,-1.18,0.30,0.39,-0.55,
2.792,-0.98,0.11,-1.18,0.31,0.40,-0.57,
2.794,-0.98,0.11,-1.18,0.32,0.40,-0.59,
2.797,-0.99,0.28,-1.12,0.32,0.40,-0.59,
2.798,-0.99,0.28,-1.12,0.32,0.39,-0.61,
2.819,-0.99,0.28,-1.12,0.33,0.38,-0.62,
2.819,-0.99,0.28,-1.12,0.33,0.36,-0.63,
2.82,-0.90,0.38,-1.23,0.33,0.36,-0.63,
2.82,-0.90,0.38,-1.23,0.33,0.35,-0.65,
2.82,-0.71,0.45,-1.35,0.33,0.35,-0.65,
2.821,-0.71,0.45,-1.35,0.32,0.33,-0.66,
2.821,-0.71,0.45,-1.35,0.32,0.31,-0.68,
2.822,-0.71,0.45,-1.35,0.31,0.29,-0.70,
2.822,-0.51,0.48,-1.48,0.31,0.29,-0.70,
2.822,-0.51,0.48,-1.48,0.30,0.27,-0.72,
2.823,-0.51,0.48,-1.48,0.29,0.26,-0.73,
2.823,-0.42,0.47,-1.59,0.29,0.26,-0.73,
2.823,-0.42,0.47,-1.59,0.28,0.25,-0.75,
2.824,-0.42,0.47,-1.59,0.28,0.25,-0.78,
2.824,-0.29,0.40,-1.63,0.28,0.25,-0.78,
2.824,-0.29,0.40,-1.63,0.28,0.24,-0.80,
2.826,-0.18,0.10,-1.72,0.28,0.24,-0.80,
2.827,-0.18,0.10,-1.72,0.27,0.22,-0.83,
2.83,-0.18,0.10,-1.72,0.27,0.20,-0.86,
2.832,-0.11,-0.16,-1.88,0.27,0.20,-0.86,
2.832,-0.11,-0.16,-1.88,0.26,0.18,-0.89,
2.837,0.03,-0.54,-1.91,0.26,0.18,-0.89,
2.837,0.03,-0.54,-1.91,0.26,0.17,-0.92,
2.837,0.03,-0.54,-1.91,0.26,0.15,-0.96,
2.842,0.00,-0.85,-1.92,0.26,0.15,-0.96,
2.842,0.00,-0.85,-1.92,0.26,0.12,-1.01,
2.842,0.00,-0.85,-1.92,0.27,0.10,-1.05,
2.844,0.00,-0.85,-1.92,0.28,0.07,-1.09,
2.847,-0.23,-0.99,-1.85,0.28,0.07,-1.09,
2.848,-0.23,-0.99,-1.85,0.30,0.06,-1.13,
2.85,-0.23,-0.99,-1.85,0.31,0.06,-1.16,
2.851,-0.23,-0.99,-1.85,0.33,0.06,-1.19,
2.852,-0.30,-0.91,-1.96,0.33,0.06,-1.19,
2.854,-0.30,-0.91,-1.96,0.35,0.06,-1.22,
2.856,-0.30,-0.91,-1.96,0.36,0.06,-1.24,
2.857,-0.32,-0.79,-2.12,0.36,0.06,-1.24,
2.858,-0.32,-0.79,-2.12,0.37,0.06,-1.26,
2.867,-0.32,-0.79,-2.12,0.38,0.05,-1.27,
2.868,-0.32,-0.79,-2.12,0.39,0.03,-1.28,
2.868,-0.42,-0.48,-2.10,0.39,0.03,-1.28,
2.869,-0.47,-0.10,-2.04,0.39,0.03,-1.28,
2.869,-0.47,-0.10,-2.04,0.39,0.03,-1.28,
2.869,-0.47,-0.10,-2.04,0.40,0.01,-1.28,
2.872,-0.47,-0.10,-2.04,0.40,-0.01,-1.27,
2.873,-0.36,0.21,-1.98,0.40,-0.01,-1.27,
2.874,-0.36,0.21,-1.98,0.40,-0.02,-1.26,
2.88,-0.23,0.57,-1.92,0.40,-0.02,-1.26,
2.88,-0.23,0.57,-1.92,0.41,-0.03,-1.25,
2.882,-0.23,0.57,-1.92,0.41,-0.03,-1.23,
2.882,-0.23,0.57,-1.92,0.42,-0.03,-1.18,
2.882,-0.11,1.00,-1.71,0.42,-0.03,-1.18,
2.884,-0.11,1.00,-1.71,0.43,-0.04,-1.10,
2.887,-0.11,1.00,-1.71,0.45,-0.04,-1.01,
2.888,0.33,1.20,-1.57,0.45,-0.04,-1.01,
2.888,0.33,1.20,-1.57,0.46,-0.06,-0.93,
2.891,0.33,1.20,-1.57,0.48,-0.08,-0.85,
2.891,0.94,1.46,-1.53,0.48,-0.08,-0.85,
2.893,0.94,1.46,-1.53,0.49,-0.09,-0.79,
2.896,0.94,1.46,-1.53,0.50,-0.08,-0.73,
2.896,1.10,1.62,-1.53,0.50,-0.08,-0.73,
2.9,1.10,1.62,-1.53,0.51,-0.06,-0.67,
2.901,1.10,1.62,-1.53,0.51,-0.03,-0.62,
2.901,1.09,1.67,-1.56,0.51,-0.03,-0.62,
2.903,1.09,1.67,-1.56,0.51,0.00,-0.57,
2.906,1.09,1.67,-1.56,0.50,0.03,-0.53,
2.906,0.99,1.56,-1.56,0.50,0.03,-0.53,
2.908,0.99,1.56,-1.56,0.48,0.06,-0.49,
2.911,0.99,1.56,-1.56,0.47,0.08,-0.46,
2.911,0.88,1.50,-1.66,0.47,0.08,-0.46,
2.914,0.88,1.50,-1.66,0.45,0.11,-0.43,
2.916,0.88,1.50,-1.66,0.43,0.13,-0.41,
2.916,0.70,1.31,-1.82,0.43,0.13,-0.41,
2.918,0.70,1.31,-1.82,0.40,0.15,-0.38,
2.92,0.70,1.31,-1.82,0.38,0.17,-0.36,
2.921,0.53,1.10,-1.93,0.38,0.17,-0.36,
2.923,0.53,1.10,-1.93,0.37,0.19,-0.34,
2.926,0.48,0.98,-2.04,0.37,0.19,-0.34,
2.926,0.48,0.98,-2.04,0.35,0.21,-0.33,
2.928,0.48,0.98,-2.04,0.34,0.22,-0.31,
2.931,0.48,0.98,-2.04,0.32,0.23,-0.30,
2.933,0.35,0.79,-2.24,0.32,0.23,-0.30,
2.933,0.35,0.79,-2.24,0.31,0.23,-0.28,
2.936,0.35,0.79,-2.24,0.29,0.23,-0.27,
2.936,0.12,0.63,-2.39,0.29,0.23,-0.27,
2.938,0.12,0.63,-2.39,0.28,0.23,-0.24,
2.94,0.12,0.63,-2.39,0.26,0.24,-0.23,
2.941,-0.03,0.49,-2.50,0.26,0.24,-0.23,
2.943,-0.03,0.49,-2.50,0.25,0.26,-0.20,
2.946,-0.03,0.49,-2.50,0.24,0.28,-0.18,
2.946,-0.07,0.30,-2.58,0.24,0.28,-0.18,
2.949,-0.07,0.30,-2.58,0.22,0.30,-0.16,
2.951,-0.13,0.01,-2.49,0.22,0.30,-0.16,
2.951,-0.13,0.01,-2.49,0.21,0.31,-0.14,
2.953,-0.13,0.01,-2.49,0.20,0.32,-0.12,
2.955,-0.13,0.01,-2.49,0.19,0.31,-0.11,
2.956,-0.14,-0.39,-2.46,0.19,0.31,-0.11,
2.958,-0.14,-0.39,-2.46,0.18,0.31,-0.10,
2.96,-0.14,-0.39,-2.46,0.17,0.30,-0.09,
2.961,-0.33,-0.72,-2.46,0.17,0.30,-0.09,
2.964,-0.33,-0.72,-2.46,0.16,0.29,-0.08,
2.993,-0.33,-0.72,-2.46,0.16,0.29,-0.07,
2.993,-0.44,-0.98,-2.49,0.16,0.29,-0.07,
2.994,-0.44,-0.98,-2.49,0.15,0.28,-0.07,
2.994,-0.44,-0.98,-2.49,0.15,0.28,-0.06,
2.995,-0.48,-1.10,-2.48,0.15,0.28,-0.06,
2.995,-0.48,-1.10,-2.48,0.15,0.28,-0.06,
2.995,-0.58,-1.17,-2.48,0.15,0.28,-0.06,
2.996,-0.58,-1.17,-2.48,0.14,0.28,-0.06,
2.996,-0.58,-1.17,-2.48,0.14,0.28,-0.05,
2.996,-0.58,-1.17,-2.48,0.14,0.28,-0.05,
2.997,-0.59,-1.24,-2.43,0.14,0.28,-0.05,
2.997,-0.59,-1.24,-2.43,0.13,0.27,-0.04,
2.997,-0.59,-1.24,-2.43,0.13,0.27,-0.04,
2.998,-0.59,-1.31,-2.41,0.13,0.27,-0.04,
2.998,-0.59,-1.31,-2.41,0.12,0.26,-0.04,
2.998,-0.59,-1.31,-2.41,0.12,0.26,-0.03,
2.999,-0.72,-1.41,-2.34,0.12,0.26,-0.03,
2.999,-0.72,-1.41,-2.34,0.11,0.26,-0.02,
2.999,-0.72,-1.41,-2.34,0.11,0.27,-0.01,
3.0,-0.63,-1.40,-2.08,0.11,0.27,-0.01,
3.0,-0.63,-1.40,-2.08,0.11,0.29,-0.01,
3.0,-0.48,-1.55,-2.10,0.11,0.29,-0.01,
3.001,-0.48,-1.55,-2.10,0.11,0.29,-0.02,
3.006,-0.48,-1.55,-2.10,0.11,0.30,-0.02,
3.007,-0.48,-1.55,-2.10,0.10,0.31,-0.02,
3.007,-0.37,-1.74,-2.16,0.10,0.31,-0.02,
3.008,-0.37,-1.74,-2.16,0.09,0.32,-0.02,
3.01,-0.37,-1.74,-2.16,0.08,0.33,-0.02,
3.021,-0.37,-1.74,-2.16,0.07,0.34,-0.02,
3.021,-0.26,-1.97,-2.20,0.07,0.34,-0.02,
3.023,-0.26,-1.97,-2.20,0.06,0.35,-0.02,
3.023,-0.12,-2.19,-2.21,0.06,0.35,-0.02,
3.023,-0.12,-2.19,-2.21,0.05,0.36,-0.03,
3.023,-0.12,-2.19,-2.21,0.05,0.37,-0.03,
3.024,0.01,-2.38,-2.37,0.05,0.37,-0.03,
3.024,0.01,-2.38,-2.37,0.03,0.38,-0.04,
3.025,0.17,-2.61,-2.57,0.03,0.38,-0.04,
3.025,0.17,-2.61,-2.57,0.02,0.39,-0.04,
3.028,0.17,-2.61,-2.57,0.01,0.39,-0.04,
3.03,0.17,-2.61,-2.57,-0.01,0.40,-0.05,
3.03,0.26,-2.84,-2.80,-0.01,0.40,-0.05,
3.032,0.26,-2.84,-2.80,-0.03,0.41,-0.05,
3.035,0.26,-2.84,-2.80,-0.05,0.41,-0.05,
3.035,0.34,-2.92,-3.01,-0.05,0.41,-0.05,
3.037,0.34,-2.92,-3.01,-0.06,0.41,-0.05,
3.04,0.34,-2.96,-3.29,-0.06,0.41,-0.05,
3.04,0.34,-2.96,-3.29,-0.07,0.41,-0.04,
3.042,0.34,-2.96,-3.29,-0.09,0.42,-0.03,
3.045,0.34,-2.96,-3.29,-0.10,0.43,-0.02,
3.046,0.40,-2.85,-3.27,-0.10,0.43,-0.02,
3.047,0.40,-2.85,-3.27,-0.11,0.44,-0.00,
3.05,0.39,-2.56,-2.97,-0.11,0.44,-0.00,
3.05,0.39,-2.56,-2.97,-0.10,0.44,0.01,
3.052,0.39,-2.56,-2.97,-0.09,0.43,0.04,
3.054,0.39,-2.56,-2.97,-0.07,0.42,0.05,
3.055,0.73,-2.32,-2.19,-0.07,0.42,0.05,
3.056,0.73,-2.32,-2.19,-0.04,0.38,0.07,
3.059,0.73,-2.32,-2.19,-0.00,0.32,0.08,
3.059,1.29,-2.19,-0.67,-0.00,0.32,0.08,
3.062,1.29,-2.19,-0.67,0.05,0.25,0.07,
3.064,1.29,-2.19,-0.67,0.11,0.18,0.05,
3.065,1.88,-2.47,0.17,0.11,0.18,0.05,
3.069,1.88,-2.47,0.17,0.16,0.14,0.04,
3.069,2.20,-2.79,-0.10,0.16,0.14,0.04,
3.07,2.20,-2.79,-0.10,0.19,0.13,0.02,
3.072,2.20,-2.79,-0.10,0.22,0.13,0.01,
3.074,2.20,-2.79,-0.10,0.25,0.13,-0.01,
3.075,2.68,-3.31,-0.40,0.25,0.13,-0.01,
3.077,2.68,-3.31,-0.40,0.27,0.13,-0.03,
3.079,2.68,-3.31,-0.40,0.30,0.12,-0.06,
3.08,3.32,-4.11,-0.36,0.30,0.12,-0.06,
3.082,3.32,-4.11,-0.36,0.32,0.10,-0.09,
3.084,3.32,-4.11,-0.36,0.36,0.05,-0.13,
3.085,3.82,-5.05,0.11,0.36,0.05,-0.13,
3.087,3.82,-5.05,0.11,0.41,-0.02,-0.18,
3.089,3.82,-5.05,0.11,0.46,-0.12,-0.21,
3.089,3.90,-5.45,0.94,0.46,-0.12,-0.21,
3.091,3.90,-5.45,0.94,0.52,-0.22,-0.25,
3.094,3.67,-5.02,1.82,0.52,-0.22,-0.25,
3.094,3.67,-5.02,1.82,0.59,-0.33,-0.28,
3.096,3.67,-5.02,1.82,0.65,-0.43,-0.30,
3.099,3.46,-4.22,2.51,0.65,-0.43,-0.30,
3.099,3.46,-4.22,2.51,0.72,-0.53,-0.32,
3.101,3.46,-4.22,2.51,0.78,-0.61,-0.32,
3.104,3.46,-4.22,2.51,0.84,-0.67,-0.32,
3.104,3.48,-3.22,2.98,0.84,-0.67,-0.32,
3.106,3.48,-3.22,2.98,0.89,-0.68,-0.32,
3.109,3.48,-3.22,2.98,0.91,-0.65,-0.32,
3.109,3.28,-2.30,2.59,0.91,-0.65,-0.32,
3.111,3.28,-2.30,2.59,0.92,-0.60,-0.30,
3.114,2.31,-1.41,2.24,0.92,-0.60,-0.30,
3.114,2.31,-1.41,2.24,0.91,-0.55,-0.26,
3.116,2.31,-1.41,2.24,0.88,-0.50,-0.20,
3.119,1.47,-1.18,1.80,0.88,-0.50,-0.20,
3.119,1.47,-1.18,1.80,0.83,-0.47,-0.15,
3.121,1.47,-1.18,1.80,0.76,-0.43,-0.11,
3.124,1.47,-1.18,1.80,0.70,-0.41,-0.07,
3.124,1.22,-0.97,1.82,0.70,-0.41,-0.07,
3.126,1.22,-0.97,1.82,0.65,-0.41,-0.06,
3.129,1.22,-0.97,1.82,0.60,-0.40,-0.06,
3.151,0.99,-0.70,2.36,0.60,-0.40,-0.06,
3.151,0.99,-0.70,2.36,0.57,-0.39,-0.05,
3.152,0.99,-0.70,2.36,0.55,-0.37,-0.04,
3.152,0.40,-0.29,2.85,0.55,-0.37,-0.04,
3.152,0.40,-0.29,2.85,0.54,-0.35,-0.01,
3.153,0.40,-0.29,2.85,0.54,-0.32,0.01,
3.153,0.24,0.03,3.39,0.54,-0.32,0.01,
3.153,0.24,0.03,3.39,0.55,-0.29,0.04,
3.153,0.24,0.03,3.39,0.57,-0.28,0.08,
3.154,0.30,0.50,4.13,0.57,-0.28,0.08,
3.154,0.30,0.50,4.13,0.59,-0.26,0.10,
3.154,0.42,0.80,4.65,0.59,-0.26,0.10,
3.154,0.42,0.80,4.65,0.63,-0.25,0.13,
3.155,0.42,0.80,4.65,0.67,-0.24,0.16,
3.155,0.42,0.80,4.65,0.71,-0.23,0.18,
3.155,0.51,0.89,5.07,0.71,-0.23,0.18,
3.157,0.51,0.89,5.07,0.75,-0.22,0.20,
3.159,0.64,0.96,5.36,0.75,-0.22,0.20,
3.16,0.64,0.96,5.36,0.79,-0.22,0.22,
3.162,0.64,0.96,5.36,0.83,-0.22,0.23,
3.165,0.84,1.03,5.47,0.83,-0.22,0.23,
3.165,0.84,1.03,5.47,0.87,-0.21,0.23,
3.168,0.84,1.03,5.47,0.91,-0.21,0.24,
3.169,0.84,1.03,5.47,0.95,-0.20,0.24,
3.169,0.98,1.05,5.54,0.95,-0.20,0.24,
3.171,0.98,1.05,5.54,0.98,-0.20,0.24,
3.174,0.98,1.05,5.54,1.02,-0.20,0.24,
3.174,0.99,1.08,5.56,1.02,-0.20,0.24,
3.176,0.99,1.08,5.56,1.05,-0.20,0.24,
3.179,1.02,1.07,5.48,1.05,-0.20,0.24,
3.179,1.02,1.07,5.48,1.08,-0.20,0.23,
3.183,1.02,1.07,5.48,1.10,-0.20,0.23,
3.186,1.02,1.07,5.48,1.12,-0.20,0.22,
3.187,1.05,1.05,5.24,1.12,-0.20,0.22,
3.189,1.05,1.05,5.24,1.14,-0.20,0.22,
3.19,1.05,1.05,5.24,1.15,-0.18,0.21,
3.191,0.99,1.00,4.86,1.15,-0.18,0.21,
3.194,0.99,1.00,4.86,1.16,-0.17,0.20,
3.194,1.01,0.90,4.38,1.16,-0.17,0.20,
3.195,1.01,0.90,4.38,1.16,-0.15,0.20,
3.2,1.01,0.90,4.38,1.15,-0.13,0.18,
3.201,1.03,0.76,3.82,1.15,-0.13,0.18,
3.201,1.03,0.76,3.82,1.14,-0.09,0.17,
3.202,1.03,0.76,3.82,1.13,-0.06,0.16,
3.203,0.93,0.59,3.35,1.13,-0.06,0.16,
3.203,0.93,0.59,3.35,1.11,-0.02,0.15,
3.205,0.93,0.59,3.35,1.09,0.02,0.14,
3.208,0.78,0.38,2.80,1.09,0.02,0.14,
3.208,0.78,0.38,2.80,1.07,0.06,0.13,
3.21,0.78,0.38,2.80,1.04,0.10,0.12,
3.213,0.78,0.38,2.80,1.00,0.15,0.11,
3.214,0.86,0.14,2.20,1.00,0.15,0.11,
3.216,0.86,0.14,2.20,0.97,0.19,0.09,
3.218,0.86,0.14,2.20,0.93,0.24,0.08,
3.218,0.78,-0.06,1.79,0.93,0.24,0.08,
3.22,0.78,-0.06,1.79,0.89,0.29,0.06,
3.223,0.78,-0.06,1.79,0.86,0.33,0.05,
3.223,0.63,-0.22,1.55,0.86,0.33,0.05,
3.225,0.63,-0.22,1.55,0.83,0.37,0.04,
3.228,0.63,-0.22,1.55,0.80,0.41,0.03,
3.228,0.44,-0.34,1.35,0.80,0.41,0.03,
3.231,0.44,-0.34,1.35,0.77,0.44,0.02,
3.233,0.44,-0.34,1.35,0.74,0.47,0.01,
3.233,0.28,-0.52,1.13,0.74,0.47,0.01,
3.235,0.28,-0.52,1.13,0.71,0.50,-0.00,
3.238,0.28,-0.52,1.13,0.69,0.52,-0.01,
3.238,0.05,-0.67,0.85,0.69,0.52,-0.01,
3.241,0.05,-0.67,0.85,0.67,0.55,-0.01,
3.243,0.05,-0.67,0.85,0.64,0.56,-0.01,
3.244,-0.11,-0.87,0.63,0.64,0.56,-0.01,
3.246,-0.11,-0.87,0.63,0.62,0.58,-0.02,
3.248,-0.11,-0.87,0.63,0.60,0.58,-0.01,
3.249,-0.38,-1.01,0.41,0.60,0.58,-0.01,
3.25,-0.38,-1.01,0.41,0.58,0.59,-0.01,
3.254,-0.38,-1.01,0.41,0.56,0.59,0.00,
3.254,-0.49,-1.11,0.25,0.56,0.59,0.00,
3.255,-0.49,-1.11,0.25,0.55,0.59,0.01,
3.258,-0.49,-1.11,0.25,0.54,0.59,0.02,
3.258,-0.74,-1.10,0.21,0.54,0.59,0.02,
3.26,-0.74,-1.10,0.21,0.54,0.59,0.04,
3.263,-0.74,-1.10,0.21,0.55,0.58,0.06,
3.263,-1.04,-0.95,0.28,0.55,0.58,0.06,
3.265,-1.04,-0.95,0.28,0.56,0.57,0.09,
3.269,-1.14,-0.77,0.31,0.56,0.57,0.09,
3.269,-1.14,-0.77,0.31,0.57,0.57,0.11,
3.27,-1.14,-0.77,0.31,0.59,0.56,0.14,
3.275,-1.14,-0.77,0.31,0.61,0.55,0.16,
3.275,-1.22,-0.62,0.28,0.61,0.55,0.16,
3.276,-1.22,-0.62,0.28,0.63,0.54,0.18,
3.278,-1.35,-0.53,0.12,0.63,0.54,0.18,
3.278,-1.35,-0.53,0.12,0.66,0.54,0.21,
3.28,-1.35,-0.53,0.12,0.68,0.53,0.24,
3.285,-1.35,-0.53,0.12,0.70,0.53,0.26,
3.285,-1.49,-0.48,-0.19,0.70,0.53,0.26,
3.285,-1.49,-0.48,-0.19,0.72,0.53,0.28,
3.288,-1.70,-0.35,-0.37,0.72,0.53,0.28,
3.288,-1.70,-0.35,-0.37,0.73,0.54,0.31,
3.29,-1.70,-0.35,-0.37,0.75,0.56,0.34,
3.292,-1.77,-0.22,-0.57,0.75,0.56,0.34,
3.293,-1.77,-0.22,-0.57,0.77,0.58,0.37,
3.314,-1.77,-0.22,-0.57,0.78,0.60,0.40,
3.314,-1.77,-0.22,-0.57,0.79,0.62,0.42,
3.315,-1.74,-0.21,-0.84,0.79,0.62,0.42,
3.315,-1.74,-0.21,-0.84,0.79,0.64,0.45,
3.316,-1.72,-0.28,-1.13,0.79,0.64,0.45,
3.316,-1.72,-0.28,-1.13,0.78,0.65,0.48,
3.317,-1.72,-0.28,-1.13,0.77,0.67,0.50,
3.317,-1.69,-0.31,-1.33,0.77,0.67,0.50,
3.318,-1.69,-0.31,-1.33,0.76,0.68,0.53,
3.318,-1.69,-0.31,-1.33,0.74,0.70,0.55,
3.318,-1.80,-0.30,-1.37,0.74,0.70,0.55,
3.319,-1.80,-0.30,-1.37,0.72,0.72,0.58,
3.319,-1.80,-0.30,-1.37,0.70,0.74,0.61,
3.32,-1.99,-0.17,-1.40,0.70,0.74,0.61,
3.32,-1.99,-0.17,-1.40,0.68,0.76,0.64,
3.32,-1.99,-0.17,-1.40,0.65,0.77,0.67,
3.323,-1.99,-0.17,-1.40,0.62,0.80,0.70,
3.324,-2.09,-0.03,-1.59,0.62,0.80,0.70,
3.326,-2.09,-0.03,-1.59,0.59,0.81,0.74,
3.327,-2.12,0.12,-1.75,0.59,0.81,0.74,
3.327,-2.12,0.12,-1.75,0.55,0.83,0.77,
3.329,-2.12,0.12,-1.75,0.51,0.84,0.80,
3.333,-2.23,0.20,-1.79,0.51,0.84,0.80,
3.333,-2.23,0.20,-1.79,0.47,0.84,0.84,
3.334,-2.23,0.20,-1.79,0.43,0.84,0.88,
3.338,-2.23,0.20,-1.79,0.38,0.82,0.91,
3.338,-2.21,0.30,-2.04,0.38,0.82,0.91,
3.34,-2.21,0.30,-2.04,0.32,0.79,0.95,
3.343,-2.21,0.30,-2.04,0.26,0.75,0.98,
3.343,-2.23,0.36,-2.42,0.26,0.75,0.98,
3.344,-2.23,0.36,-2.42,0.19,0.71,1.02,
3.348,-2.23,0.36,-2.42,0.12,0.67,1.05,
3.349,-2.09,0.46,-2.80,0.12,0.67,1.05,
3.35,-2.09,0.46,-2.80,0.05,0.64,1.09,
3.352,-2.09,0.46,-2.80,-0.02,0.62,1.11,
3.352,-1.93,0.52,-2.88,-0.02,0.62,1.11,
3.354,-1.93,0.52,-2.88,-0.09,0.61,1.14,
3.357,-1.93,0.52,-2.88,-0.15,0.60,1.17,
3.357,-1.83,0.55,-2.91,-0.15,0.60,1.17,
3.359,-1.83,0.55,-2.91,-0.20,0.59,1.20,
3.361,-1.83,0.55,-2.91,-0.26,0.57,1.22,
3.362,-1.75,0.53,-2.90,-0.26,0.57,1.22,
3.364,-1.75,0.53,-2.90,-0.31,0.54,1.25,
3.367,-1.75,0.53,-2.90,-0.37,0.50,1.28,
3.367,-1.60,0.44,-2.99,-0.37,0.50,1.28,
3.369,-1.60,0.44,-2.99,-0.42,0.44,1.30,
3.372,-1.60,0.44,-2.99,-0.46,0.38,1.33,
3.372,-1.54,0.39,-2.67,-0.46,0.38,1.33,
3.375,-1.54,0.39,-2.67,-0.50,0.32,1.36,
3.377,-1.32,0.38,-2.51,-0.50,0.32,1.36,
3.377,-1.32,0.38,-2.51,-0.53,0.25,1.39,
3.381,-1.32,0.38,-2.51,-0.56,0.19,1.41,
3.384,-1.32,0.38,-2.51,-0.59,0.13,1.42,
3.384,-0.92,0.41,-2.49,-0.59,0.13,1.42,
3.385,-0.92,0.41,-2.49,-0.62,0.06,1.44,
3.39,-0.92,0.41,-2.49,-0.65,-0.01,1.44,
3.391,-0.64,0.50,-2.38,-0.65,-0.01,1.44,
3.395,-0.27,0.59,-2.62,-0.65,-0.01,1.44,
3.395,-0.27,0.59,-2.62,-0.68,-0.08,1.45,
3.395,-0.27,0.59,-2.62,-0.73,-0.16,1.44,
3.396,-0.27,0.59,-2.62,-0.78,-0.23,1.44,
3.4,-0.27,0.59,-2.62,-0.84,-0.29,1.43,
3.401,-0.27,0.59,-2.62,-0.89,-0.34,1.42,
3.401,-0.12,0.55,-2.78,-0.89,-0.34,1.42,
3.406,-0.12,0.55,-2.78,-0.94,-0.39,1.41,
3.407,-0.12,0.55,-2.78,-0.98,-0.43,1.39,
3.407,0.17,0.58,-2.35,-0.98,-0.43,1.39,
3.407,0.17,0.58,-2.35,-1.00,-0.46,1.36,
3.408,0.62,0.58,-1.69,-1.00,-0.46,1.36,
3.409,0.62,0.58,-1.69,-1.02,-0.48,1.32,
3.412,0.62,0.58,-1.69,-1.02,-0.47,1.28,
3.414,0.62,0.58,-1.69,-1.01,-0.46,1.24,
3.415,1.06,0.55,-1.23,-1.01,-0.46,1.24,
3.418,1.06,0.55,-1.23,-0.98,-0.43,1.20,
3.418,1.16,0.59,-0.79,-0.98,-0.43,1.20,
3.419,1.16,0.59,-0.79,-0.95,-0.40,1.16,
3.421,1.16,0.59,-0.79,-0.90,-0.38,1.11,
3.421,1.36,0.75,-0.28,-0.90,-0.38,1.11,
3.423,1.36,0.75,-0.28,-0.84,-0.35,1.06,
3.426,1.36,0.75,-0.28,-0.78,-0.31,1.01,
3.427,1.40,1.15,-0.04,-0.78,-0.31,1.01,
3.428,1.40,1.15,-0.04,-0.71,-0.26,0.96,
3.433,1.27,1.65,-0.07,-0.71,-0.26,0.96,
3.433,1.27,1.65,-0.07,-0.64,-0.22,0.91,
3.434,1.27,1.65,-0.07,-0.57,-0.17,0.86,
3.437,1.27,1.65,-0.07,-0.51,-0.14,0.81,
3.437,1.33,2.11,-0.10,-0.51,-0.14,0.81,
3.438,1.33,2.11,-0.10,-0.44,-0.11,0.75,
3.441,1.33,2.11,-0.10,-0.37,-0.09,0.70,
3.441,1.24,2.51,0.02,-0.37,-0.09,0.70,
3.443,1.24,2.51,0.02,-0.30,-0.06,0.66,
3.446,1.24,2.51,0.02,-0.23,-0.04,0.62,
3.446,0.77,2.99,0.10,-0.23,-0.04,0.62,
3.449,0.77,2.99,0.10,-0.16,-0.03,0.59,
3.451,0.77,2.99,0.10,-0.08,-0.02,0.57,
3.451,0.34,3.39,0.11,-0.08,-0.02,0.57,
3.453,0.34,3.39,0.11,-0.01,-0.02,0.55,
3.456,0.34,3.39,0.11,0.06,-0.02,0.53,
3.456,-0.10,3.75,-0.04,0.06,-0.02,0.53,
3.458,-0.10,3.75,-0.04,0.12,-0.02,0.53,
3.472,-0.10,3.75,-0.04,0.19,-0.01,0.52,
3.472,-0.57,4.05,-0.16,0.19,-0.01,0.52,
3.472,-0.57,4.05,-0.16,0.26,-0.00,0.53,
3.472,-0.94,4.27,-0.17,0.26,-0.00,0.53,
3.473,-0.94,4.27,-0.17,0.33,0.01,0.54,
3.473,-0.94,4.27,-0.17,0.41,0.03,0.55,
3.473,-0.94,4.27,-0.17,0.48,0.05,0.57,
3.473,-1.29,4.46,-0.16,0.48,0.05,0.57,
3.473,-1.29,4.46,-0.16,0.54,0.07,0.59,
3.475,-1.29,4.46,-0.16,0.60,0.10,0.60,
3.476,-1.51,4.58,-0.29,0.60,0.10,0.60,
3.478,-1.51,4.58,-0.29,0.65,0.12,0.62,
3.482,-1.51,4.58,-0.29,0.68,0.15,0.63,
3.485,-1.66,4.59,-0.48,0.68,0.15,0.63,
3.486,-1.66,4.59,-0.48,0.71,0.16,0.64,
3.489,-1.87,4.43,-0.60,0.71,0.16,0.64,
3.49,-1.87,4.43,-0.60,0.73,0.18,0.65,
3.49,-1.87,4.43,-0.60,0.74,0.20,0.67,
3.492,-2.03,4.02,-0.58,0.74,0.20,0.67,
3.492,-2.03,4.02,-0.58,0.74,0.20,0.68,
3.493,-2.03,4.02,-0.58,0.74,0.19,0.70,
3.495,-2.28,3.40,-0.43,0.74,0.19,0.70,
3.496,-2.28,3.40,-0.43,0.74,0.17,0.72,
3.498,-2.28,3.40,-0.43,0.73,0.13,0.75,
3.501,-2.46,2.68,-0.27,0.73,0.13,0.75,
3.501,-2.46,2.68,-0.27,0.73,0.10,0.77,
3.503,-2.46,2.68,-0.27,0.72,0.06,0.80,
3.506,-2.46,2.68,-0.27,0.71,0.02,0.82,
3.506,-2.29,1.89,-0.36,0.71,0.02,0.82,
3.508,-2.29,1.89,-0.36,0.69,-0.02,0.84,
3.51,-2.29,1.89,-0.36,0.67,-0.05,0.85,
3.51,-1.94,1.10,-0.52,0.67,-0.05,0.85,
3.513,-1.94,1.10,-0.52,0.64,-0.09,0.85,
3.518,-1.73,0.39,-0.54,0.64,-0.09,0.85,
3.518,-1.73,0.39,-0.54,0.61,-0.14,0.85,
3.518,-1.73,0.39,-0.54,0.58,-0.18,0.85,
3.52,-1.64,-0.19,-0.54,0.58,-0.18,0.85,
3.52,-1.64,-0.19,-0.54,0.55,-0.22,0.85,
3.522,-1.64,-0.19,-0.54,0.52,-0.26,0.85,
3.525,-1.58,-0.66,-0.63,0.52,-0.26,0.85,
3.525,-1.58,-0.66,-0.63,0.50,-0.29,0.85,
3.527,-1.58,-0.66,-0.63,0.47,-0.32,0.84,
3.537,-1.58,-0.66,-0.63,0.44,-0.35,0.84,
3.537,-1.58,-0.66,-0.63,0.41,-0.38,0.82,
3.537,-1.58,-0.66,-0.63,0.39,-0.41,0.81,
3.537,-1.37,-1.08,-0.64,0.39,-0.41,0.81,
3.537,-1.05,-1.49,-0.70,0.39,-0.41,0.81,
3.537,-1.05,-1.49,-0.70,0.36,-0.44,0.78,
3.54,-1.05,-1.49,-0.70,0.34,-0.46,0.76,
3.54,-0.75,-1.90,-0.77,0.34,-0.46,0.76,
3.542,-0.75,-1.90,-0.77,0.31,-0.48,0.73,
3.545,-0.75,-1.90,-0.77,0.29,-0.51,0.70,
3.545,-0.49,-2.31,-0.86,0.29,-0.51,0.70,
3.547,-0.49,-2.31,-0.86,0.26,-0.52,0.67,
3.55,-0.26,-2.74,-0.94,0.26,-0.52,0.67,
3.55,-0.26,-2.74,-0.94,0.24,-0.53,0.64,
3.552,-0.26,-2.74,-0.94,0.22,-0.53,0.61,
3.555,0.02,-3.11,-1.05,0.22,-0.53,0.61,
3.555,0.02,-3.11,-1.05,0.21,-0.53,0.57,
3.557,0.02,-3.11,-1.05,0.19,-0.53,0.54,
3.56,0.24,-3.43,-1.16,0.19,-0.53,0.54,
3.56,0.24,-3.43,-1.16,0.17,-0.52,0.50,
3.563,0.24,-3.43,-1.16,0.16,-0.51,0.46,
3.565,0.37,-3.77,-1.21,0.16,-0.51,0.46,
3.566,0.37,-3.77,-1.21,0.14,-0.51,0.43,
3.567,0.37,-3.77,-1.21,0.14,-0.50,0.40,
3.57,0.37,-3.77,-1.21,0.13,-0.50,0.36,
3.57,0.55,-4.09,-1.35,0.13,-0.50,0.36,
3.574,0.55,-4.09,-1.35,0.13,-0.51,0.32,
3.575,0.55,-4.09,-1.35,0.12,-0.52,0.29,
3.575,0.52,-4.39,-1.58,0.12,-0.52,0.29,
3.577,0.52,-4.39,-1.58,0.11,-0.53,0.27,
3.581,0.52,-4.39,-1.58,0.11,-0.54,0.24,
3.581,0.34,-4.63,-1.73,0.11,-0.54,0.24,
3.583,0.34,-4.63,-1.73,0.11,-0.55,0.22,
3.585,0.34,-4.63,-1.73,0.12,-0.57,0.20,
3.587,0.12,-4.87,-1.73,0.12,-0.57,0.20,
3.59,0.12,-4.87,-1.73,0.14,-0.58,0.19,
3.591,0.12,-4.87,-1.73,0.16,-0.60,0.17,
3.591,-0.00,-5.04,-1.57,0.16,-0.60,0.17,
3.593,-0.00,-5.04,-1.57,0.18,-0.63,0.15,
3.595,-0.00,-5.04,-1.57,0.21,-0.65,0.14,
3.595,-0.08,-5.26,-1.42,0.21,-0.65,0.14,
3.598,-0.08,-5.26,-1.42,0.25,-0.69,0.11,
3.6,-0.08,-5.26,-1.42,0.29,-0.72,0.09,
3.6,0.01,-5.53,-1.28,0.29,-0.72,0.09,
3.602,0.01,-5.53,-1.28,0.34,-0.76,0.06,
3.605,0.01,-5.53,-1.28,0.39,-0.81,0.01,
3.605,0.09,-5.88,-1.07,0.39,-0.81,0.01,
3.607,0.09,-5.88,-1.07,0.44,-0.86,-0.04,
3.61,0.09,-5.88,-1.07,0.49,-0.91,-0.10,
3.61,0.38,-6.04,-0.91,0.49,-0.91,-0.10,
3.612,0.38,-6.04,-0.91,0.54,-0.96,-0.17,
3.615,0.38,-6.04,-0.91,0.58,-1.00,-0.25,
3.615,0.64,-6.03,-0.73,0.58,-1.00,-0.25,
3.617,0.64,-6.03,-0.73,0.63,-1.05,-0.34,
3.619,0.64,-6.03,-0.73,0.69,-1.11,-0.43,
3.62,0.83,-5.95,-0.17,0.69,-1.11,-0.43,
3.622,0.83,-5.95,-0.17,0.73,-1.20,-0.53,
3.624,0.83,-5.95,-0.17,0.77,-1.31,-0.64,
3.653,0.94,-6.00,-0.05,0.77,-1.31,-0.64,
3.654,0.94,-6.00,-0.05,0.79,-1.44,-0.75,
3.655,0.94,-6.00,-0.05,0.81,-1.58,-0.85,
3.656,0.94,-6.00,-0.05,0.82,-1.69,-0.96,
3.656,0.94,-6.00,-0.05,0.83,-1.76,-1.06,
3.657,0.94,-6.00,-0.05,0.84,-1.78,-1.16,
3.657,0.99,-6.16,-0.19,0.84,-1.78,-1.16,
3.658,0.98,-6.40,-0.45,0.84,-1.78,-1.16,
3.658,0.44,-6.87,-0.47,0.84,-1.78,-1.16,
3.659,0.44,-6.87,-0.47,0.86,-1.74,-1.24,
3.66,0.44,-6.87,-0.47,0.89,-1.66,-1.30,
3.66,0.44,-6.87,-0.47,0.94,-1.55,-1.33,
3.661,-0.45,-6.65,0.57,0.94,-1.55,-1.33,
3.661,-0.45,-6.65,0.57,1.02,-1.40,-1.33,
3.662,-0.45,-6.65,0.57,1.12,-1.24,-1.30,
3.662,-0.45,-6.65,0.57,1.23,-1.10,-1.26,
3.663,-0.45,-6.65,0.57,1.36,-0.95,-1.21,
3.664,-1.74,-5.83,2.33,1.36,-0.95,-1.21,
3.665,-2.30,-4.90,3.51,1.36,-0.95,-1.21,
3.666,-2.30,-4.90,3.51,1.49,-0.81,-1.16,
3.666,-2.30,-4.90,3.51,1.61,-0.65,-1.12,
3.667,-2.48,-3.51,3.86,1.61,-0.65,-1.12,
3.667,-2.48,-3.51,3.86,1.72,-0.47,-1.10,
3.667,-2.36,-2.07,4.27,1.72,-0.47,-1.10,
3.668,-2.36,-2.07,4.27,1.82,-0.30,-1.09,
3.671,-2.27,-1.14,4.84,1.82,-0.30,-1.09,
3.672,-2.27,-1.14,4.84,1.90,-0.14,-1.09,
3.672,-2.27,-1.14,4.84,1.97,0.00,-1.10,
3.672,-2.27,-1.14,4.84,2.03,0.12,-1.12,
3.674,-2.27,-1.14,4.84,2.07,0.22,-1.14,
3.674,-2.31,-0.50,5.50,2.07,0.22,-1.14,
3.676,-2.31,-0.50,5.50,2.09,0.29,-1.15,
3.679,-2.31,-0.50,5.50,2.08,0.32,-1.16,
3.679,-2.37,-0.06,5.80,2.08,0.32,-1.16,
3.682,-2.37,-0.06,5.80,2.04,0.30,-1.16,
3.684,-2.37,-0.06,5.80,1.96,0.24,-1.15,
3.684,-2.22,0.05,5.65,1.96,0.24,-1.15,
3.686,-2.22,0.05,5.65,1.84,0.11,-1.14,
3.689,-2.22,0.05,5.65,1.67,-0.07,-1.12,
3.689,-1.83,0.13,5.37,1.67,-0.07,-1.12,
3.691,-1.83,0.13,5.37,1.47,-0.27,-1.10,
3.695,-1.83,0.13,5.37,1.27,-0.49,-1.07,
3.695,-1.18,0.31,5.22,1.27,-0.49,-1.07,
3.698,-1.18,0.31,5.22,1.05,-0.69,-1.04,
3.7,-1.18,0.31,5.22,0.83,-0.88,-1.01,
3.7,-0.49,0.45,5.05,0.83,-0.88,-1.01,
3.701,-0.49,0.45,5.05,0.62,-1.04,-0.98,
3.708,0.11,0.43,4.84,0.62,-1.04,-0.98,
3.709,0.11,0.43,4.84,0.42,-1.18,-0.95,
3.709,0.11,0.43,4.84,0.23,-1.29,-0.91,
3.709,0.11,0.43,4.84,0.06,-1.36,-0.88,
3.709,0.59,0.47,4.45,0.06,-1.36,-0.88,
3.712,0.59,0.47,4.45,-0.08,-1.40,-0.84,
3.714,0.59,0.47,4.45,-0.20,-1.41,-0.81,
3.715,0.89,0.65,3.89,-0.20,-1.41,-0.81,
3.716,0.89,0.65,3.89,-0.30,-1.39,-0.77,
3.718,0.89,0.65,3.89,-0.38,-1.35,-0.74,
3.719,1.16,0.91,3.17,-0.38,-1.35,-0.74,
3.721,1.16,0.91,3.17,-0.44,-1.29,-0.72,
3.723,1.16,0.91,3.17,-0.48,-1.21,-0.71,
3.724,1.52,1.12,2.42,-0.48,-1.21,-0.71,
3.726,1.52,1.12,2.42,-0.51,-1.11,-0.70,
3.728,1.52,1.12,2.42,-0.52,-1.00,-0.70,
3.729,1.69,1.27,1.78,-0.52,-1.00,-0.70,
3.731,1.69,1.27,1.78,-0.52,-0.90,-0.71,
3.734,1.69,1.27,1.78,-0.52,-0.79,-0.72,
3.734,1.61,1.46,1.36,-0.52,-0.79,-0.72,
3.736,1.61,1.46,1.36,-0.50,-0.69,-0.73,
3.739,1.61,1.46,1.36,-0.48,-0.58,-0.73,
3.739,1.42,1.66,1.06,-0.48,-0.58,-0.73,
3.741,1.42,1.66,1.06,-0.45,-0.47,-0.74,
3.743,1.42,1.66,1.06,-0.41,-0.37,-0.74,
3.744,1.16,1.84,1.00,-0.41,-0.37,-0.74,
3.746,1.16,1.84,1.00,-0.36,-0.27,-0.74,
3.749,0.89,1.96,0.97,-0.36,-0.27,-0.74,
3.749,0.89,1.96,0.97,-0.32,-0.17,-0.74,
3.751,0.89,1.96,0.97,-0.26,-0.07,-0.73,
3.753,0.89,1.96,0.97,-0.21,0.03,-0.72,
3.754,0.73,2.11,0.89,-0.21,0.03,-0.72,
3.756,0.73,2.11,0.89,-0.15,0.12,-0.72,
3.758,0.73,2.11,0.89,-0.10,0.21,-0.71,
3.759,0.74,2.20,0.79,-0.10,0.21,-0.71,
3.761,0.74,2.20,0.79,-0.06,0.29,-0.71,
3.763,0.74,2.20,0.79,-0.02,0.37,-0.70,
3.763,0.75,2.25,0.64,-0.02,0.37,-0.70,
3.766,0.75,2.25,0.64,0.02,0.43,-0.70,
3.769,0.75,2.25,0.64,0.04,0.49,-0.69,
3.769,0.60,2.09,0.55,0.04,0.49,-0.69,
3.771,0.60,2.09,0.55,0.07,0.54,-0.68,
3.773,0.60,2.09,0.55,0.09,0.58,-0.67,
3.773,0.45,1.85,0.63,0.09,0.58,-0.67,
3.775,0.45,1.85,0.63,0.11,0.60,-0.66,
3.778,0.45,1.85,0.63,0.12,0.62,-0.64,
3.779,0.42,1.54,0.81,0.12,0.62,-0.64,
3.782,0.42,1.54,0.81,0.14,0.62,-0.62,
3.784,0.42,1.54,0.81,0.15,0.61,-0.61,
3.785,0.44,1.28,0.93,0.15,0.61,-0.61,
3.786,0.44,1.28,0.93,0.16,0.60,-0.59,
3.788,0.51,1.02,1.16,0.16,0.60,-0.59,
3.791,0.51,1.02,1.16,0.18,0.57,-0.58,
3.808,0.51,1.02,1.16,0.19,0.55,-0.57,
3.808,0.51,1.02,1.16,0.20,0.53,-0.56,
3.809,0.50,0.81,1.39,0.20,0.53,-0.56,
3.809,0.50,0.81,1.39,0.22,0.51,-0.55,
3.809,0.54,0.55,1.66,0.22,0.51,-0.55,
3.81,0.54,0.55,1.66,0.23,0.48,-0.54,
3.81,0.54,0.55,1.66,0.25,0.46,-0.54,
3.81,0.66,0.24,1.79,0.25,0.46,-0.54,
3.811,0.66,0.24,1.79,0.26,0.44,-0.53,
3.811,0.66,0.24,1.79,0.27,0.41,-0.53,
3.811,0.66,0.24,1.79,0.28,0.39,-0.54,
3.812,0.91,-0.14,1.85,0.28,0.39,-0.54,
3.812,0.91,-0.14,1.85,0.28,0.38,-0.55,
3.816,0.91,-0.14,1.85,0.29,0.37,-0.57,
3.816,1.07,-0.50,1.87,0.29,0.37,-0.57,
3.832,1.07,-0.50,1.87,0.29,0.36,-0.59,
3.832,1.07,-0.50,1.87,0.30,0.36,-0.61,
3.833,1.14,-0.86,1.88,0.30,0.36,-0.61,
3.833,1.14,-0.86,1.88,0.30,0.36,-0.63,
3.833,1.14,-0.86,1.88,0.30,0.38,-0.65,
3.834,1.25,-1.16,1.52,0.30,0.38,-0.65,
3.834,1.25,-1.16,1.52,0.30,0.45,-0.68,
3.834,1.25,-1.16,1.52,0.30,0.50,-0.70,
3.834,1.22,-1.51,1.39,0.30,0.50,-0.70,
3.835,1.22,-1.51,1.39,0.30,0.51,-0.73,
3.835,1.22,-1.51,1.39,0.31,0.48,-0.76,
3.835,1.24,-1.71,1.78,0.31,0.48,-0.76,
3.835,1.24,-1.71,1.78,0.32,0.45,-0.79,
3.84,1.24,-1.71,1.78,0.31,0.46,-0.82,
3.84,1.06,-1.90,0.75,0.31,0.46,-0.82,
3.841,1.06,-1.90,0.75,0.31,0.62,-0.86,
3.843,1.06,-1.90,0.75,0.29,0.69,-0.89,
3.844,0.87,-2.25,0.14,0.29,0.69,-0.89,
3.846,0.87,-2.25,0.14,0.26,0.64,-0.92,
3.848,0.87,-2.25,0.14,0.23,0.66,-0.94,
3.85,0.60,-2.66,-0.41,0.23,0.66,-0.94,
3.85,0.60,-2.66,-0.41,0.19,0.69,-0.98,
3.853,0.60,-2.66,-0.41,0.14,0.69,-1.01,
3.853,0.10,-3.36,-1.22,0.14,0.69,-1.01,
3.856,0.10,-3.36,-1.22,0.10,0.71,-1.04,
3.858,0.10,-3.36,-1.22,0.05,0.76,-1.07,
3.858,-0.10,-3.99,-1.91,0.05,0.76,-1.07,
3.86,-0.10,-3.99,-1.91,0.01,0.77,-1.12,
3.862,-0.10,-3.99,-1.91,-0.03,0.77,-1.16,
3.863,-0.33,-4.55,-2.23,-0.03,0.77,-1.16,
3.868,-0.33,-4.55,-2.23,-0.06,0.78,-1.22,
3.868,-0.33,-4.55,-2.23,-0.10,0.77,-1.27,
3.87,-0.79,-4.99,-2.55,-0.10,0.77,-1.27,
3.87,-0.79,-4.99,-2.55,-0.12,0.74,-1.33,
3.872,-0.79,-4.99,-2.55,-0.14,0.69,-1.38,
3.872,-1.29,-5.20,-2.69,-0.14,0.69,-1.38,
3.874,-1.29,-5.20,-2.69,-0.16,0.63,-1.45,
3.877,-1.67,-5.17,-2.82,-0.16,0.63,-1.45,
3.877,-1.67,-5.17,-2.82,-0.17,0.55,-1.50,
3.88,-1.67,-5.17,-2.82,-0.18,0.47,-1.56,
3.882,-1.67,-5.17,-2.82,-0.17,0.39,-1.62,
3.883,-2.02,-5.17,-2.72,-0.17,0.39,-1.62,
3.885,-2.02,-5.17,-2.72,-0.17,0.31,-1.68,
3.887,-2.02,-5.17,-2.72,-0.16,0.22,-1.74,
3.888,-2.38,-4.71,-2.74,-0.16,0.22,-1.74,
3.89,-2.38,-4.71,-2.74,-0.15,0.14,-1.79,
3.892,-2.38,-4.71,-2.74,-0.14,0.06,-1.84,
3.892,-2.25,-3.81,-2.66,-0.14,0.06,-1.84,
3.894,-2.25,-3.81,-2.66,-0.13,-0.01,-1.90,
3.897,-2.11,-3.12,-2.30,-0.13,-0.01,-1.90,
3.897,-2.11,-3.12,-2.30,-0.12,-0.07,-1.94,
3.9,-2.11,-3.12,-2.30,-0.10,-0.15,-1.98,
3.902,-2.11,-3.12,-2.30,-0.09,-0.24,-2.01,
3.902,-2.30,-2.48,-1.95,-0.09,-0.24,-2.01,
3.905,-2.30,-2.48,-1.95,-0.08,-0.32,-2.03,
3.907,-2.30,-2.48,-1.95,-0.07,-0.41,-2.05,
3.907,-2.21,-1.77,-1.70,-0.07,-0.41,-2.05,
3.909,-2.21,-1.77,-1.70,-0.07,-0.49,-2.07,
3.912,-2.21,-1.77,-1.70,-0.06,-0.58,-2.09,
3.912,-1.96,-1.23,-1.30,-0.06,-0.58,-2.09,
3.915,-1.96,-1.23,-1.30,-0.05,-0.67,-2.11,
3.917,-1.96,-1.23,-1.30,-0.05,-0.75,-2.13,
3.918,-1.72,-0.80,-0.94,-0.05,-0.75,-2.13,
3.919,-1.72,-0.80,-0.94,-0.04,-0.82,-2.15,
3.922,-1.62,-0.48,-0.83,-0.04,-0.82,-2.15,
3.922,-1.62,-0.48,-0.83,-0.04,-0.89,-2.17,
3.924,-1.62,-0.48,-0.83,-0.04,-0.94,-2.18,
3.927,-1.62,-0.48,-0.83,-0.05,-1.00,-2.19,
3.927,-1.54,0.04,-0.83,-0.05,-1.00,-2.19,
3.929,-1.54,0.04,-0.83,-0.06,-1.06,-2.19,
3.932,-1.54,0.04,-0.83,-0.08,-1.11,-2.19,
3.933,-1.31,0.72,-1.01,-0.08,-1.11,-2.19,
3.934,-1.31,0.72,-1.01,-0.10,-1.14,-2.18,
3.937,-0.99,1.47,-1.16,-0.10,-1.14,-2.18,
3.937,-0.99,1.47,-1.16,-0.12,-1.15,-2.17,
3.94,-0.99,1.47,-1.16,-0.15,-1.15,-2.16,
3.942,-0.76,2.33,-1.30,-0.15,-1.15,-2.16,
3.942,-0.76,2.33,-1.30,-0.17,-1.13,-2.13,
3.944,-0.76,2.33,-1.30,-0.20,-1.11,-2.10,
3.947,-0.76,2.33,-1.30,-0.24,-1.07,-2.06,
3.947,-0.47,3.30,-1.55,-0.24,-1.07,-2.06,
3.95,-0.47,3.30,-1.55,-0.27,-1.02,-2.01,
3.952,-0.17,4.24,-1.85,-0.27,-1.02,-2.01,
3.952,-0.17,4.24,-1.85,-0.31,-0.96,-1.96,
3.954,-0.17,4.24,-1.85,-0.34,-0.88,-1.90,
3.974,-0.17,4.24,-1.85,-0.38,-0.81,-1.84,
3.975,0.35,5.05,-2.18,-0.38,-0.81,-1.84,
3.975,0.35,5.05,-2.18,-0.42,-0.73,-1.79,
3.975,0.33,5.85,-2.45,-0.42,-0.73,-1.79,
3.976,0.33,5.85,-2.45,-0.47,-0.66,-1.72,
3.976,0.33,5.85,-2.45,-0.51,-0.60,-1.65,
3.976,0.36,6.45,-2.64,-0.51,-0.60,-1.65,
3.977,0.36,6.45,-2.64,-0.56,-0.56,-1.57,
3.977,0.36,6.45,-2.64,-0.59,-0.51,-1.50,
3.977,0.36,6.45,-2.64,-0.62,-0.48,-1.42,
3.977,0.50,6.83,-2.72,-0.62,-0.48,-1.42,
3.978,0.50,6.83,-2.72,-0.64,-0.46,-1.34,
3.978,0.50,6.83,-2.72,-0.64,-0.45,-1.25,
3.978,0.42,6.88,-2.75,-0.64,-0.45,-1.25,
3.979,0.42,6.88,-2.75,-0.64,-0.43,-1.16,
3.983,0.13,6.67,-2.97,-0.64,-0.43,-1.16,
3.984,0.13,6.67,-2.97,-0.63,-0.40,-1.07,
3.984,0.13,6.67,-2.97,-0.62,-0.38,-0.98,
3.987,0.13,6.67,-2.97,-0.61,-0.36,-0.89,
3.987,-0.10,6.26,-3.29,-0.61,-0.36,-0.89,
3.989,-0.10,6.26,-3.29,-0.59,-0.36,-0.79,
3.991,-0.10,6.26,-3.29,-0.56,-0.37,-0.71,
3.991,-0.30,5.77,-3.18,-0.56,-0.37,-0.71,
3.993,-0.30,5.77,-3.18,-0.53,-0.37,-0.63,
3.996,-0.30,5.77,-3.18,-0.48,-0.37,-0.55,
3.997,-0.59,5.13,-3.00,-0.48,-0.37,-0.55,
4.003,-0.59,5.13,-3.00,-0.43,-0.35,-0.49,
4.004,-0.53,4.40,-3.02,-0.43,-0.35,-0.49,
4.004,-0.53,4.40,-3.02,-0.38,-0.34,-0.43,
4.005,-0.53,4.40,-3.02,-0.33,-0.32,-0.39,
4.007,-0.53,4.40,-3.02,-0.29,-0.32,-0.37,
4.007,-0.47,3.68,-3.28,-0.29,-0.32,-0.37,
4.009,-0.47,3.68,-3.28,-0.26,-0.31,-0.36,
4.011,-0.47,3.68,-3.28,-0.23,-0.29,-0.36,
4.011,-0.49,3.19,-3.52,-0.23,-0.29,-0.36,
4.014,-0.49,3.19,-3.52,-0.20,-0.27,-0.36,
4.019,-0.49,3.19,-3.52,-0.18,-0.26,-0.37,
4.02,-0.76,2.86,-3.73,-0.18,-0.26,-0.37,
4.02,-0.76,2.86,-3.73,-0.17,-0.24,-0.36,
4.022,-0.76,2.86,-3.73,-0.18,-0.24,-0.35,
4.022,-1.47,2.88,-3.98,-0.18,-0.24,-0.35,
4.025,-1.47,2.88,-3.98,-0.18,-0.25,-0.33,
4.027,-1.47,2.88,-3.98,-0.19,-0.26,-0.31,
4.028,-1.60,3.23,-3.81,-0.19,-0.26,-0.31,
4.028,-1.60,3.23,-3.81,-0.20,-0.29,-0.30,
4.032,-1.60,3.23,-3.81,-0.20,-0.32,-0.27,
4.033,-1.93,3.53,-3.55,-0.20,-0.32,-0.27,
4.036,-1.93,3.53,-3.55,-0.21,-0.36,-0.24,
4.036,-1.85,3.70,-3.39,-0.21,-0.36,-0.24,
4.036,-1.85,3.70,-3.39,-0.21,-0.38,-0.21,
4.038,-1.85,3.70,-3.39,-0.20,-0.39,-0.19,
4.041,-1.52,3.60,-3.36,-0.20,-0.39,-0.19,
4.041,-1.52,3.60,-3.36,-0.20,-0.40,-0.18,
4.043,-1.52,3.60,-3.36,-0.20,-0.41,-0.16,
4.046,-1.73,3.58,-3.46,-0.20,-0.41,-0.16,
4.047,-1.73,3.58,-3.46,-0.20,-0.41,-0.14,
4.049,-1.73,3.58,-3.46,-0.20,-0.40,-0.12,
4.051,-1.94,3.46,-3.46,-0.20,-0.40,-0.12,
4.052,-1.94,3.46,-3.46,-0.20,-0.38,-0.10,
4.056,-1.94,3.46,-3.46,-0.19,-0.34,-0.07,
4.057,-1.94,3.46,-3.46,-0.18,-0.31,-0.04,
4.057,-2.15,3.16,-3.24,-0.18,-0.31,-0.04,
4.058,-2.15,3.16,-3.24,-0.17,-0.27,-0.01,
4.061,-2.23,2.78,-3.05,-0.17,-0.27,-0.01,
4.061,-2.23,2.78,-3.05,-0.16,-0.22,0.02,
4.063,-2.23,2.78,-3.05,-0.15,-0.17,0.04,
4.068,-2.26,2.18,-2.87,-0.15,-0.17,0.04,
4.069,-2.26,2.18,-2.87,-0.14,-0.12,0.06,
4.07,-2.26,2.18,-2.87,-0.13,-0.08,0.06,
4.071,-2.27,1.34,-2.68,-0.13,-0.08,0.06,
4.071,-2.27,1.34,-2.68,-0.12,-0.04,0.06,
4.073,-2.27,1.34,-2.68,-0.11,0.00,0.06,
4.075,-2.27,1.34,-2.68,-0.11,0.03,0.06,
4.076,-2.13,0.38,-2.60,-0.11,0.03,0.06,
4.078,-2.13,0.38,-2.60,-0.11,0.05,0.04,
4.08,-2.13,0.38,-2.60,-0.11,0.07,0.03,
4.081,-2.02,-0.40,-2.51,-0.11,0.07,0.03,
4.083,-2.02,-0.40,-2.51,-0.11,0.10,0.01,
4.085,-1.96,-1.06,-2.44,-0.11,0.10,0.01,
4.086,-1.96,-1.06,-2.44,-0.11,0.12,-0.01,
4.088,-1.96,-1.06,-2.44,-0.12,0.15,-0.04,
4.09,-1.96,-1.06,-2.44,-0.13,0.18,-0.05,
4.09,-2.00,-1.62,-2.50,-0.13,0.18,-0.05,
4.093,-2.00,-1.62,-2.50,-0.13,0.21,-0.07,
4.095,-2.00,-1.62,-2.50,-0.15,0.24,-0.09,
4.096,-2.10,-1.97,-2.56,-0.15,0.24,-0.09,
4.098,-2.10,-1.97,-2.56,-0.17,0.27,-0.11,
4.102,-2.02,-2.13,-2.70,-0.17,0.27,-0.11,
4.103,-2.02,-2.13,-2.70,-0.20,0.29,-0.13,
4.103,-2.02,-2.13,-2.70,-0.23,0.30,-0.15,
4.106,-2.02,-2.30,-2.79,-0.23,0.30,-0.15,
4.106,-2.02,-2.30,-2.79,-0.27,0.31,-0.17,
4.108,-2.02,-2.30,-2.79,-0.31,0.30,-0.19,
4.111,-2.02,-2.30,-2.79,-0.36,0.29,-0.21,
4.111,-2.10,-2.43,-2.62,-0.36,0.29,-0.21,
4.113,-2.10,-2.43,-2.62,-0.40,0.28,-0.23,
4.117,-2.20,-2.55,-2.20,-0.40,0.28,-0.23,
4.118,-2.20,-2.55,-2.20,-0.44,0.26,-0.24,
4.118,-2.20,-2.55,-2.20,-0.47,0.24,-0.26,
4.121,-2.20,-2.55,-2.20,-0.50,0.21,-0.26,
4.148,-2.51,-2.81,-1.45,-0.50,0.21,-0.26,
4.148,-2.51,-2.81,-1.45,-0.50,0.19,-0.27,
4.148,-2.51,-2.81,-1.45,-0.50,0.18,-0.26,
4.148,-3.08,-3.02,-0.58,-0.50,0.18,-0.26,
4.149,-3.08,-3.02,-0.58,-0.50,0.14,-0.24,
4.149,-3.08,-3.02,-0.58,-0.50,0.10,-0.23,
4.149,-3.28,-3.31,-0.18,-0.50,0.10,-0.23,
4.149,-3.28,-3.31,-0.18,-0.49,0.07,-0.21,
4.15,-3.44,-3.22,0.34,-0.49,0.07,-0.21,
4.15,-3.44,-3.22,0.34,-0.48,0.04,-0.19,
4.15,-3.44,-3.22,0.34,-0.46,0.03,-0.15,
4.15,-3.44,-3.22,0.34,-0.45,0.04,-0.11,
4.151,-3.67,-2.49,0.45,-0.45,0.04,-0.11,
4.151,-3.67,-2.49,0.45,-0.45,0.08,-0.06,
4.151,-3.67,-2.49,0.45,-0.46,0.12,0.00,
4.151,-3.73,-1.36,0.15,-0.46,0.12,0.00,
4.151,-3.73,-1.36,0.15,-0.48,0.19,0.08,
4.152,-3.73,-0.36,-0.57,-0.48,0.19,0.08,
4.152,-3.73,-0.36,-0.57,-0.54,0.28,0.16,
4.153,-3.73,-0.36,-0.57,-0.61,0.36,0.25,
4.156,-3.73,-0.36,-0.57,-0.69,0.44,0.35,
4.156,-3.70,0.91,-1.24,-0.69,0.44,0.35,
4.158,-3.70,0.91,-1.24,-0.78,0.54,0.45,
4.16,-3.70,0.91,-1.24,-0.85,0.61,0.55,
4.161,-3.29,2.09,-0.78,-0.85,0.61,0.55,
4.162,-3.29,2.09,-0.78,-0.89,0.64,0.65,
4.167,-3.29,2.09,-0.78,-0.89,0.62,0.74,
4.17,-2.79,2.40,1.75,-0.89,0.62,0.74,
4.171,-2.79,2.40,1.75,-0.83,0.59,0.83,
4.171,-2.37,0.60,5.26,-0.83,0.59,0.83,
4.172,-2.37,0.60,5.26,-0.69,0.55,0.90,
4.172,-2.37,0.60,5.26,-0.46,0.52,0.94,
4.175,-2.37,0.60,5.26,-0.14,0.50,0.92,
4.175,-0.90,-3.10,9.63,-0.14,0.50,0.92,
4.177,-0.90,-3.10,9.63,0.24,0.47,0.85,
4.18,-0.90,-3.10,9.63,0.64,0.51,0.74,
4.18,1.56,-6.62,10.68,0.64,0.51,0.74,
4.185,1.56,-6.62,10.68,1.01,0.63,0.59,
4.191,4.35,-6.85,9.05,1.01,0.63,0.59,
4.191,8.93,-6.59,7.49,1.01,0.63,0.59,
4.192,8.93,-6.59,7.49,1.35,0.77,0.44,
4.193,8.93,-6.59,7.49,1.66,0.84,0.25,
4.193,8.93,-6.59,7.49,1.92,0.80,0.02,
4.193,8.93,-6.59,7.49,2.07,0.69,-0.23,
4.194,8.93,-6.59,7.49,2.10,0.59,-0.44,
4.195,11.77,-2.96,2.83,2.10,0.59,-0.44,
4.197,11.77,-2.96,2.83,2.04,0.50,-0.56,
4.2,11.18,2.35,-0.34,2.04,0.50,-0.56,
4.201,11.18,2.35,-0.34,1.92,0.42,-0.55,
4.202,11.18,2.35,-0.34,1.81,0.34,-0.47,
4.204,11.18,2.35,-0.34,1.76,0.29,-0.39,
4.205,11.58,3.40,0.86,1.76,0.29,-0.39,
4.207,11.58,3.40,0.86,1.76,0.28,-0.32,
4.209,11.58,3.40,0.86,1.80,0.31,-0.27,
4.21,11.61,2.64,2.26,1.80,0.31,-0.27,
4.212,11.61,2.64,2.26,1.87,0.34,-0.25,
4.215,11.61,2.64,2.26,1.96,0.34,-0.27,
4.215,10.75,1.13,3.59,1.96,0.34,-0.27,
4.218,10.75,1.13,3.59,2.03,0.32,-0.30,
4.219,9.04,0.40,3.12,2.03,0.32,-0.30,
4.22,9.04,0.40,3.12,2.07,0.29,-0.33,
4.222,9.04,0.40,3.12,2.08,0.26,-0.34,
4.225,9.04,0.40,3.12,2.08,0.25,-0.32,
4.226,6.43,0.62,2.84,2.08,0.25,-0.32,
4.228,6.43,0.62,2.84,2.06,0.26,-0.28,
4.229,6.43,0.62,2.84,2.02,0.30,-0.21,
4.229,3.99,0.81,2.05,2.02,0.30,-0.21,
4.235,3.99,0.81,2.05,1.96,0.35,-0.14,
4.235,2.73,1.21,1.17,1.96,0.35,-0.14,
4.235,2.73,1.21,1.17,1.89,0.42,-0.06,
4.236,2.73,1.21,1.17,1.80,0.46,0.01,
4.239,2.73,1.21,1.17,1.71,0.50,0.07,
4.239,2.27,1.35,1.14,1.71,0.50,0.07,
4.242,2.27,1.35,1.14,1.61,0.50,0.12,
4.244,2.27,1.35,1.14,1.53,0.50,0.16,
4.244,2.01,0.90,1.32,1.53,0.50,0.16,
4.247,2.01,0.90,1.32,1.44,0.48,0.20,
4.25,1.60,0.70,1.21,1.44,0.48,0.20,
4.25,1.60,0.70,1.21,1.35,0.45,0.23,
4.252,1.60,0.70,1.21,1.25,0.40,0.25,
4.254,1.60,0.70,1.21,1.15,0.35,0.27,
4.254,1.61,0.63,1.16,1.15,0.35,0.27,
4.256,1.61,0.63,1.16,1.06,0.29,0.28,
4.259,1.61,0.63,1.16,0.96,0.23,0.28,
4.259,1.90,0.76,1.02,0.96,0.23,0.28,
4.261,1.90,0.76,1.02,0.86,0.18,0.29,
4.264,1.90,0.76,1.02,0.78,0.13,0.29,
4.264,2.22,1.04,0.79,0.78,0.13,0.29,
4.267,2.22,1.04,0.79,0.69,0.09,0.28,
4.269,2.54,1.40,0.59,0.69,0.09,0.28,
4.269,2.54,1.40,0.59,0.60,0.06,0.27,
4.271,2.54,1.40,0.59,0.52,0.03,0.25,
4.274,2.54,1.40,0.59,0.45,-0.00,0.24,
4.274,2.71,1.74,0.43,0.45,-0.00,0.24,
4.276,2.71,1.74,0.43,0.38,-0.03,0.23,
4.279,2.71,1.74,0.43,0.31,-0.03,0.23,
4.279,2.43,1.97,-0.12,0.31,-0.03,0.23,
4.281,2.43,1.97,-0.12,0.24,-0.04,0.23,
4.284,2.53,2.10,0.11,0.24,-0.04,0.23,
4.285,2.53,2.10,0.11,0.19,-0.05,0.24,
4.299,2.53,2.10,0.11,0.15,-0.07,0.24,
4.3,2.53,2.10,0.11,0.11,-0.08,0.25,
4.3,2.55,2.05,0.25,0.11,-0.08,0.25,
4.3,2.55,2.05,0.25,0.08,-0.09,0.25,
4.3,2.55,2.05,0.25,0.06,-0.11,0.25,
4.3,2.49,1.91,0.42,0.06,-0.11,0.25,
4.301,2.49,1.91,0.42,0.05,-0.13,0.25,
4.301,2.27,1.79,0.62,0.05,-0.13,0.25,
4.301,2.27,1.79,0.62,0.04,-0.15,0.26,
4.304,1.94,1.65,0.72,0.04,-0.15,0.26,
4.311,1.94,1.65,0.72,0.03,-0.17,0.26,
4.311,1.94,1.65,0.72,0.03,-0.17,0.27,
4.311,1.94,1.65,0.72,0.03,-0.18,0.27,
4.311,1.94,1.65,0.72,0.03,-0.18,0.26,
4.312,1.73,1.51,0.76,0.03,-0.18,0.26,
4.312,1.73,1.51,0.76,0.02,-0.19,0.26,
4.314,1.73,1.51,0.76,0.02,-0.21,0.26,
4.314,1.40,1.31,0.86,0.02,-0.21,0.26,
4.316,1.40,1.31,0.86,0.02,-0.21,0.25,
4.319,1.40,1.31,0.86,0.02,-0.20,0.26,
4.32,1.06,1.04,0.70,0.02,-0.20,0.26,
4.321,1.06,1.04,0.70,0.01,-0.19,0.26,
4.323,1.06,1.04,0.70,-0.00,-0.17,0.26,
4.324,0.82,0.86,0.69,-0.00,-0.17,0.26,
4.326,0.82,0.86,0.69,-0.01,-0.16,0.27,
4.328,0.82,0.86,0.69,-0.03,-0.15,0.27,
4.329,0.67,0.63,0.65,-0.03,-0.15,0.27,
4.331,0.67,0.63,0.65,-0.04,-0.14,0.28,
4.333,0.67,0.63,0.65,-0.06,-0.12,0.28,
4.334,0.47,0.37,0.56,-0.06,-0.12,0.28,
4.336,0.47,0.37,0.56,-0.09,-0.11,0.28,
4.339,0.47,0.37,0.56,-0.11,-0.08,0.28,
4.339,0.32,0.12,0.59,-0.11,-0.08,0.28,
4.341,0.32,0.12,0.59,-0.14,-0.05,0.28,
4.344,0.32,0.12,0.59,-0.17,0.01,0.28,
4.344,0.10,-0.06,0.48,-0.17,0.01,0.28,
4.346,0.10,-0.06,0.48,-0.21,0.07,0.28,
4.349,0.10,-0.06,0.48,-0.25,0.14,0.28,
4.349,-0.14,-0.26,0.55,-0.25,0.14,0.28,
4.353,-0.14,-0.26,0.55,-0.28,0.20,0.28,
4.353,-0.14,-0.26,0.55,-0.32,0.26,0.29,
4.353,-0.46,-0.39,0.75,-0.32,0.26,0.29,
4.356,-0.46,-0.39,0.75,-0.36,0.30,0.30,
4.358,-0.46,-0.39,0.75,-0.40,0.32,0.31,
4.358,-0.75,-0.49,1.08,-0.40,0.32,0.31,
4.36,-0.75,-0.49,1.08,-0.44,0.34,0.33,
4.363,-0.75,-0.49,1.08,-0.47,0.37,0.35,
4.363,-0.94,-0.62,1.13,-0.47,0.37,0.35,
4.367,-0.94,-0.62,1.13,-0.50,0.40,0.37,
4.369,-1.10,-0.69,1.31,-0.50,0.40,0.37,
4.369,-1.10,-0.69,1.31,-0.53,0.44,0.40,
4.373,-1.10,-0.69,1.31,-0.56,0.48,0.42,
4.373,-1.10,-0.69,1.31,-0.58,0.52,0.44,
4.373,-1.25,-0.70,1.45,-0.58,0.52,0.44,
4.376,-1.25,-0.70,1.45,-0.59,0.57,0.47,
4.379,-1.25,-0.70,1.45,-0.60,0.61,0.49,
4.38,-1.42,-0.61,1.67,-0.60,0.61,0.49,
4.38,-1.42,-0.61,1.67,-0.60,0.66,0.51,
4.385,-1.61,-0.49,1.90,-0.60,0.66,0.51,
4.385,-1.61,-0.49,1.90,-0.60,0.71,0.54,
4.389,-1.71,-0.41,2.07,-0.60,0.71,0.54,
4.389,-1.71,-0.41,2.07,-0.59,0.75,0.56,
4.389,-1.71,-0.41,2.07,-0.57,0.78,0.58,
4.39,-1.71,-0.41,2.07,-0.55,0.82,0.60,
4.394,-1.71,-0.41,2.07,-0.53,0.85,0.61,
4.395,-1.78,-0.43,2.01,-0.53,0.85,0.61,
4.395,-1.78,-0.43,2.01,-0.51,0.88,0.62,
4.401,-1.78,-0.43,2.01,-0.49,0.93,0.64,
4.404,-2.06,-0.33,1.81,-0.49,0.93,0.64,
4.405,-2.06,-0.33,1.81,-0.47,0.97,0.66,
4.405,-2.06,-0.33,1.81,-0.45,1.02,0.69,
4.405,-2.29,-0.18,1.59,-0.45,1.02,0.69,
4.405,-2.29,-0.18,1.59,-0.43,1.07,0.71,
4.408,-2.29,-0.18,1.59,-0.41,1.12,0.74,
4.408,-2.44,-0.01,1.42,-0.41,1.12,0.74,
4.41,-2.44,-0.01,1.42,-0.39,1.17,0.77,
4.413,-2.57,0.17,1.21,-0.39,1.17,0.77,
4.413,-2.57,0.17,1.21,-0.37,1.22,0.80,
4.416,-2.57,0.17,1.21,-0.36,1.26,0.83,
4.419,-2.61,0.30,0.98,-0.36,1.26,0.83,
4.419,-2.61,0.30,0.98,-0.34,1.30,0.85,
4.422,-2.61,0.30,0.98,-0.33,1.34,0.88,
4.423,-2.64,0.38,0.72,-0.33,1.34,0.88,
4.423,-2.64,0.38,0.72,-0.32,1.38,0.91,
4.426,-2.64,0.38,0.72,-0.31,1.42,0.94,
4.429,-2.64,0.38,0.72,-0.31,1.44,0.97,
4.429,-2.76,0.39,0.31,-0.31,1.44,0.97,
4.43,-2.76,0.39,0.31,-0.31,1.45,1.00,
4.434,-2.82,0.40,0.20,-0.31,1.45,1.00,
4.434,-2.82,0.40,0.20,-0.30,1.46,1.03,
4.436,-2.82,0.40,0.20,-0.29,1.46,1.06,
4.44,-2.82,0.40,0.20,-0.28,1.45,1.08,
4.44,-2.82,0.40,0.20,-0.27,1.44,1.09,
4.44,-2.56,0.27,0.10,-0.27,1.44,1.09,
4.442,-2.56,0.27,0.10,-0.26,1.41,1.11,
4.444,-2.41,0.08,-0.11,-0.26,1.41,1.11,
4.444,-2.41,0.08,-0.11,-0.24,1.38,1.12,
4.447,-2.41,0.08,-0.11,-0.23,1.34,1.14,
4.448,-2.27,-0.19,-0.68,-0.23,1.34,1.14,
4.451,-2.27,-0.19,-0.68,-0.23,1.31,1.15,
4.468,-2.27,-0.19,-0.68,-0.24,1.27,1.16,
4.468,-2.20,-0.46,-1.26,-0.24,1.27,1.16,
4.469,-2.20,-0.46,-1.26,-0.24,1.22,1.18,
4.469,-2.20,-0.46,-1.26,-0.26,1.17,1.19,
4.469,-2.14,-0.65,-1.85,-0.26,1.17,1.19,
4.469,-2.14,-0.65,-1.85,-0.27,1.10,1.20,
4.47,-2.14,-0.65,-1.85,-0.29,1.04,1.22,
4.47,-1.99,-0.89,-2.42,-0.29,1.04,1.22,
4.47,-1.99,-0.89,-2.42,-0.32,0.97,1.22,
4.47,-1.99,-0.89,-2.42,-0.35,0.89,1.23,
4.471,-1.80,-1.12,-3.03,-0.35,0.89,1.23,
4.471,-1.80,-1.12,-3.03,-0.38,0.81,1.23,
4.472,-1.80,-1.12,-3.03,-0.42,0.74,1.23,
4.472,-1.61,-1.28,-3.46,-0.42,0.74,1.23,
4.474,-1.61,-1.28,-3.46,-0.46,0.66,1.23,
4.478,-1.61,-1.28,-3.46,-0.50,0.57,1.22,
4.478,-1.45,-1.35,-3.84,-0.50,0.57,1.22,
4.479,-1.45,-1.35,-3.84,-0.54,0.49,1.21,
4.483,-1.45,-1.35,-3.84,-0.58,0.42,1.21,
4.483,-1.32,-1.37,-3.99,-0.58,0.42,1.21,
4.484,-1.32,-1.37,-3.99,-0.62,0.35,1.20,
4.487,-1.32,-1.37,-3.99,-0.66,0.28,1.20,
4.487,-1.20,-1.36,-4.13,-0.66,0.28,1.20,
4.489,-1.20,-1.36,-4.13,-0.69,0.23,1.19,
4.492,-1.20,-1.36,-4.13,-0.73,0.18,1.18,
4.492,-0.89,-1.34,-4.32,-0.73,0.18,1.18,
4.494,-0.89,-1.34,-4.32,-0.76,0.14,1.17,
4.497,-0.70,-1.18,-4.36,-0.76,0.14,1.17,
4.497,-0.70,-1.18,-4.36,-0.79,0.11,1.16,
4.501,-0.70,-1.18,-4.36,-0.82,0.09,1.15,
4.502,-0.70,-1.18,-4.36,-0.84,0.09,1.14,
4.502,-0.65,-0.90,-4.27,-0.84,0.09,1.14,
4.504,-0.65,-0.90,-4.27,-0.85,0.10,1.13,
4.507,-0.60,-0.53,-3.92,-0.85,0.10,1.13,
4.507,-0.60,-0.53,-3.92,-0.86,0.13,1.13,
4.512,-0.52,-0.18,-3.60,-0.86,0.13,1.13,
4.512,-0.52,-0.18,-3.60,-0.86,0.16,1.13,
4.512,-0.52,-0.18,-3.60,-0.86,0.20,1.12,
4.514,-0.52,-0.18,-3.60,-0.86,0.23,1.12,
4.519,-0.50,0.22,-3.27,-0.86,0.23,1.12,
4.519,-0.50,0.22,-3.27,-0.85,0.26,1.12,
4.519,-0.50,0.22,-3.27,-0.85,0.29,1.13,
4.522,-0.20,0.70,-2.80,-0.85,0.29,1.13,
4.522,-0.20,0.70,-2.80,-0.84,0.32,1.12,
4.524,-0.20,0.70,-2.80,-0.82,0.36,1.10,
4.53,0.20,1.26,-1.98,-0.82,0.36,1.10,
4.53,0.20,1.26,-1.98,-0.78,0.40,1.08,
4.53,0.20,1.26,-1.98,-0.75,0.44,1.06,
4.532,0.01,1.90,-1.56,-0.75,0.44,1.06,
4.532,0.01,1.90,-1.56,-0.71,0.48,1.04,
4.535,0.01,1.90,-1.56,-0.67,0.53,1.03,
4.536,-0.42,2.55,-1.23,-0.67,0.53,1.03,
4.537,-0.42,2.55,-1.23,-0.62,0.58,1.03,
4.539,-0.42,2.55,-1.23,-0.58,0.63,1.03,
4.542,-0.77,3.12,-1.13,-0.58,0.63,1.03,
4.542,-0.77,3.12,-1.13,-0.54,0.69,1.04,
4.544,-0.77,3.12,-1.13,-0.51,0.75,1.05,
4.546,-1.05,3.53,-0.99,-0.51,0.75,1.05,
4.547,-1.05,3.53,-0.99,-0.48,0.80,1.07,
4.55,-1.05,3.53,-0.99,-0.45,0.86,1.09,
4.551,-1.05,3.53,-0.99,-0.43,0.90,1.11,
4.552,-1.29,3.89,-0.87,-0.43,0.90,1.11,
4.553,-1.29,3.89,-0.87,-0.41,0.94,1.14,
4.556,-1.29,3.89,-0.87,-0.39,0.98,1.17,
4.556,-1.61,4.17,-0.79,-0.39,0.98,1.17,
4.559,-1.61,4.17,-0.79,-0.38,1.02,1.20,
4.561,-1.61,4.17,-0.79,-0.37,1.04,1.25,
4.561,-2.08,4.36,-0.68,-0.37,1.04,1.25,
4.563,-2.08,4.36,-0.68,-0.36,1.05,1.29,
4.567,-2.41,4.33,-0.54,-0.36,1.05,1.29,
4.567,-2.41,4.33,-0.54,-0.34,1.06,1.34,
4.569,-2.41,4.33,-0.54,-0.33,1.06,1.40,
4.571,-2.41,4.33,-0.54,-0.32,1.05,1.45,
4.571,-2.63,4.14,-0.30,-0.32,1.05,1.45,
4.573,-2.63,4.14,-0.30,-0.31,1.03,1.51,
4.576,-2.63,4.14,-0.30,-0.29,1.01,1.57,
4.576,-2.78,3.81,-0.04,-0.29,1.01,1.57,
4.578,-2.78,3.81,-0.04,-0.27,0.97,1.63,
4.581,-2.78,3.81,-0.04,-0.25,0.92,1.68,
4.581,-2.74,3.30,0.15,-0.25,0.92,1.68,
4.585,-2.74,3.30,0.15,-0.23,0.87,1.73,
4.586,-2.43,2.57,0.08,-0.23,0.87,1.73,
4.586,-2.43,2.57,0.08,-0.21,0.80,1.77,
4.588,-2.43,2.57,0.08,-0.20,0.74,1.81,
4.591,-2.43,2.57,0.08,-0.19,0.66,1.83,
4.591,-1.94,1.59,-0.26,-0.19,0.66,1.83,
4.593,-1.94,1.59,-0.26,-0.19,0.58,1.84,
4.596,-1.94,1.59,-0.26,-0.20,0.48,1.85,
4.596,-1.55,0.57,-0.55,-0.20,0.48,1.85,
4.598,-1.55,0.57,-0.55,-0.21,0.39,1.85,
4.604,-1.55,0.57,-0.55,-0.23,0.30,1.85,
4.605,-1.05,-0.39,-1.03,-0.23,0.30,1.85,
4.605,-1.05,-0.39,-1.03,-0.26,0.21,1.84,
4.608,-1.05,-0.39,-1.03,-0.30,0.13,1.82,
4.609,-0.52,-1.24,-1.56,-0.30,0.13,1.82,
4.609,-0.52,-1.24,-1.56,-0.35,0.06,1.79,
4.611,-0.52,-1.24,-1.56,-0.41,-0.01,1.76,
4.611,0.14,-2.08,-2.09,-0.41,-0.01,1.76,
4.613,0.14,-2.08,-2.09,-0.48,-0.06,1.71,
4.617,0.14,-2.08,-2.09,-0.55,-0.09,1.66,
4.632,0.72,-2.91,-2.53,-0.55,-0.09,1.66,
4.632,0.72,-2.91,-2.53,-0.63,-0.12,1.60,
4.632,1.19,-3.67,-2.86,-0.63,-0.12,1.60,
4.632,1.19,-3.67,-2.86,-0.72,-0.15,1.54,
4.632,1.19,-3.67,-2.86,-0.79,-0.17,1.47,
4.633,1.19,-3.67,-2.86,-0.87,-0.18,1.40,
4.633,1.55,-4.30,-2.95,-0.87,-0.18,1.40,
4.633,1.55,-4.30,-2.95,-0.94,-0.18,1.33,
4.633,1.55,-4.30,-2.95,-1.00,-0.18,1.26,
4.634,1.83,-4.82,-2.85,-1.00,-0.18,1.26,
4.635,1.83,-4.82,-2.85,-1.05,-0.17,1.19,
4.637,1.83,-4.82,-2.85,-1.09,-0.17,1.11,
4.638,2.13,-5.15,-2.62,-1.09,-0.17,1.11,
4.638,2.13,-5.15,-2.62,-1.11,-0.16,1.03,
4.641,2.13,-5.15,-2.62,-1.12,-0.15,0.95,
4.641,2.40,-5.21,-2.22,-1.12,-0.15,0.95,
4.643,2.40,-5.21,-2.22,-1.12,-0.13,0.87,
4.646,2.40,-5.21,-2.22,-1.11,-0.11,0.78,
4.646,2.46,-4.99,-1.71,-1.11,-0.11,0.78,
4.648,2.46,-4.99,-1.71,-1.07,-0.09,0.71,
4.651,2.46,-4.99,-1.71,-1.02,-0.08,0.64,
4.651,2.26,-4.55,-0.86,-1.02,-0.08,0.64,
4.653,2.26,-4.55,-0.86,-0.94,-0.09,0.57,
4.655,2.26,-4.55,-0.86,-0.85,-0.10,0.52,
4.656,1.88,-4.14,-0.04,-0.85,-0.10,0.52,
4.658,1.88,-4.14,-0.04,-0.74,-0.13,0.47,
4.661,1.29,-3.67,0.60,-0.74,-0.13,0.47,
4.661,1.29,-3.67,0.60,-0.63,-0.18,0.43,
4.663,1.29,-3.67,0.60,-0.51,-0.23,0.40,
4.667,1.29,-3.67,0.60,-0.39,-0.28,0.39,
4.669,0.58,-3.21,0.84,-0.39,-0.28,0.39,
4.67,0.58,-3.21,0.84,-0.28,-0.36,0.38,
4.67,0.58,-3.21,0.84,-0.18,-0.44,0.38,
4.671,0.05,-2.99,0.61,-0.18,-0.44,0.38,
4.673,0.05,-2.99,0.61,-0.10,-0.52,0.38,
4.675,0.05,-2.99,0.61,-0.02,-0.59,0.38,
4.675,-0.24,-3.05,0.11,-0.02,-0.59,0.38,
4.678,-0.24,-3.05,0.11,0.04,-0.65,0.38,
4.681,-0.24,-3.05,0.11,0.08,-0.69,0.36,
4.681,-0.14,-2.90,-0.31,0.08,-0.69,0.36,
4.689,-0.34,-3.08,-0.49,0.08,-0.69,0.36,
4.689,-0.34,-3.08,-0.49,0.12,-0.72,0.34,
4.689,-0.34,-3.08,-0.49,0.14,-0.75,0.33,
4.69,-0.34,-3.08,-0.49,0.16,-0.78,0.31,
4.691,-0.34,-3.08,-0.49,0.17,-0.82,0.27,
4.691,-0.10,-3.20,-0.56,0.17,-0.82,0.27,
4.693,-0.10,-3.20,-0.56,0.16,-0.86,0.23,
4.695,-0.10,-3.20,-0.56,0.15,-0.92,0.16,
4.696,0.38,-3.33,-0.65,0.15,-0.92,0.16,
4.697,0.38,-3.33,-0.65,0.12,-1.00,0.09,
4.714,0.73,-3.48,-0.59,0.12,-1.00,0.09,
4.715,0.73,-3.48,-0.59,0.09,-1.09,-0.00,
4.715,0.73,-3.48,-0.59,0.05,-1.19,-0.10,
4.715,0.73,-3.48,-0.59,0.02,-1.28,-0.21,
4.716,0.86,-3.57,-0.32,0.02,-1.28,-0.21,
4.716,0.86,-3.57,-0.32,-0.01,-1.38,-0.32,
4.716,0.92,-3.62,-0.01,-0.01,-1.38,-0.32,
4.718,0.92,-3.62,-0.01,-0.04,-1.47,-0.44,
4.719,0.92,-3.62,-0.01,-0.06,-1.56,-0.56,
4.719,0.92,-3.62,-0.01,-0.08,-1.63,-0.68,
4.719,0.89,-3.42,0.13,-0.08,-1.63,-0.68,
4.72,0.89,-3.42,0.13,-0.09,-1.69,-0.80,
4.72,0.89,-3.42,0.13,-0.11,-1.74,-0.93,
4.72,0.76,-2.96,0.01,-0.11,-1.74,-0.93,
4.723,0.76,-2.96,0.01,-0.13,-1.79,-1.04,
4.726,0.76,-2.96,0.01,-0.16,-1.82,-1.15,
4.726,0.29,-2.37,-0.38,-0.16,-1.82,-1.15,
4.727,0.29,-2.37,-0.38,-0.19,-1.85,-1.24,
4.73,0.29,-2.37,-0.38,-0.23,-1.88,-1.31,
4.73,-0.54,-1.87,-0.83,-0.23,-1.88,-1.31,
4.732,-0.54,-1.87,-0.83,-0.28,-1.90,-1.35,
4.735,-0.69,-1.55,-1.27,-0.28,-1.90,-1.35,
4.736,-0.69,-1.55,-1.27,-0.33,-1.91,-1.39,
4.738,-0.69,-1.55,-1.27,-0.39,-1.92,-1.43,
4.74,-0.69,-1.55,-1.27,-0.42,-1.89,-1.44,
4.74,-0.80,-1.13,-0.56,-0.42,-1.89,-1.44,
4.742,-0.80,-1.13,-0.56,-0.42,-1.84,-1.43,
4.745,-0.80,-1.13,-0.56,-0.38,-1.77,-1.39,
4.745,-1.96,-0.65,1.24,-0.38,-1.77,-1.39,
4.75,-1.96,-0.65,1.24,-0.30,-1.69,-1.32,
4.751,-2.94,-0.19,2.89,-0.30,-1.69,-1.32,
4.752,-2.94,-0.19,2.89,-0.19,-1.58,-1.23,
4.753,-2.94,-0.19,2.89,-0.06,-1.43,-1.14,
4.755,-2.94,-0.19,2.89,0.10,-1.26,-1.05,
4.755,-3.41,0.32,4.15,0.10,-1.26,-1.05,
4.758,-3.41,0.32,4.15,0.27,-1.08,-0.96,
4.76,-3.41,0.32,4.15,0.44,-0.92,-0.88,
4.76,-3.28,0.64,4.70,0.44,-0.92,-0.88,
4.762,-3.28,0.64,4.70,0.59,-0.77,-0.82,
4.765,-3.28,0.64,4.70,0.72,-0.63,-0.78,
4.765,-2.69,0.87,4.69,0.72,-0.63,-0.78,
4.77,-2.69,0.87,4.69,0.82,-0.52,-0.76,
4.771,-2.69,0.87,4.69,0.91,-0.43,-0.75,
4.771,-2.14,0.96,4.93,0.91,-0.43,-0.75,
4.772,-2.14,0.96,4.93,0.98,-0.36,-0.75,
4.777,-2.14,0.96,4.93,1.04,-0.31,-0.76,
4.778,-2.14,0.96,4.93,1.07,-0.28,-0.78,
4.778,-1.59,1.19,5.47,1.07,-0.28,-0.78,
4.78,-1.59,1.19,5.47,1.08,-0.28,-0.81,
4.78,-0.74,1.61,5.94,1.08,-0.28,-0.81,
4.797,-0.74,1.61,5.94,1.07,-0.30,-0.85,
4.797,-0.37,1.89,5.84,1.07,-0.30,-0.85,
4.797,-0.37,1.89,5.84,1.03,-0.34,-0.87,
4.798,-0.37,1.89,5.84,0.95,-0.38,-0.88,
4.798,-0.37,1.89,5.84,0.85,-0.43,-0.88,
4.798,-0.07,1.86,5.44,0.85,-0.43,-0.88,
4.798,-0.07,1.86,5.44,0.72,-0.47,-0.87,
4.798,0.58,1.43,4.94,0.72,-0.47,-0.87,
4.799,0.58,1.43,4.94,0.58,-0.50,-0.85,
4.799,0.58,1.43,4.94,0.42,-0.54,-0.83,
4.805,1.43,0.93,4.60,0.42,-0.54,-0.83,
4.806,2.31,0.72,4.42,0.42,-0.54,-0.83,
4.806,2.31,0.72,4.42,0.25,-0.57,-0.81,
4.806,2.31,0.72,4.42,0.09,-0.61,-0.79,
4.806,2.31,0.72,4.42,-0.06,-0.64,-0.77,
4.807,2.31,0.72,4.42,-0.20,-0.67,-0.77,
4.809,2.31,0.72,4.42,-0.31,-0.69,-0.77,
4.809,2.92,0.74,4.11,-0.31,-0.69,-0.77,
4.811,2.92,0.74,4.11,-0.42,-0.71,-0.77,
4.814,2.92,0.74,4.11,-0.50,-0.71,-0.77,
4.814,3.16,0.71,3.57,-0.50,-0.71,-0.77,
4.819,3.16,0.71,3.57,-0.57,-0.71,-0.77,
4.822,3.16,0.71,3.57,-0.63,-0.69,-0.77,
4.822,3.26,0.85,2.89,-0.63,-0.69,-0.77,
4.822,3.26,0.85,2.89,-0.67,-0.65,-0.79,
4.824,3.26,0.85,2.89,-0.70,-0.60,-0.81,
4.825,3.52,1.02,2.20,-0.70,-0.60,-0.81,
4.826,3.52,1.02,2.20,-0.72,-0.54,-0.84,
4.829,3.62,1.27,1.58,-0.72,-0.54,-0.84,
4.829,3.62,1.27,1.58,-0.73,-0.47,-0.87,
4.831,3.62,1.27,1.58,-0.73,-0.39,-0.91,
4.835,3.62,1.27,1.58,-0.72,-0.29,-0.94,
4.836,3.53,1.57,1.01,-0.72,-0.29,-0.94,
4.837,3.53,1.57,1.01,-0.71,-0.20,-0.98,
4.839,3.27,1.87,0.63,-0.71,-0.20,-0.98,
4.839,3.27,1.87,0.63,-0.69,-0.09,-1.03,
4.841,3.27,1.87,0.63,-0.66,0.01,-1.07,
4.844,3.27,1.87,0.63,-0.64,0.11,-1.10,
4.844,2.97,2.07,0.31,-0.64,0.11,-1.10,
4.846,2.97,2.07,0.31,-0.61,0.21,-1.14,
4.849,2.97,2.07,0.31,-0.57,0.30,-1.17,
4.849,2.71,2.24,0.08,-0.57,0.30,-1.17,
4.852,2.71,2.24,0.08,-0.54,0.39,-1.20,
4.854,2.54,2.29,-0.10,-0.54,0.39,-1.20,
4.854,2.54,2.29,-0.10,-0.51,0.47,-1.23,
4.857,2.54,2.29,-0.10,-0.47,0.56,-1.26,
4.861,2.41,2.27,-0.17,-0.47,0.56,-1.26,
4.861,2.41,2.27,-0.17,-0.44,0.63,-1.28,
4.867,2.41,2.27,-0.17,-0.41,0.70,-1.30,
4.867,2.41,2.27,-0.17,-0.37,0.77,-1.32,
4.867,2.31,2.14,-0.07,-0.37,0.77,-1.32,
4.867,2.31,2.14,-0.07,-0.34,0.83,-1.33,
4.871,2.31,2.14,-0.07,-0.31,0.88,-1.35,
4.871,2.29,2.00,0.09,-0.31,0.88,-1.35,
4.872,2.29,2.00,0.09,-0.28,0.92,-1.35,
4.874,2.29,2.00,0.09,-0.25,0.96,-1.36,
4.874,2.38,1.82,0.20,-0.25,0.96,-1.36,
4.876,2.38,1.82,0.20,-0.23,0.99,-1.37,
4.879,2.38,1.82,0.20,-0.21,1.02,-1.37,
4.879,2.50,1.61,0.32,-0.21,1.02,-1.37,
4.881,2.50,1.61,0.32,-0.20,1.05,-1.37,
4.884,2.48,1.46,0.47,-0.20,1.05,-1.37,
4.884,2.48,1.46,0.47,-0.19,1.07,-1.37,
4.886,2.48,1.46,0.47,-0.18,1.07,-1.36,
4.888,2.34,1.34,0.62,-0.18,1.07,-1.36,
4.889,2.34,1.34,0.62,-0.18,1.06,-1.35,
4.891,2.34,1.34,0.62,-0.18,1.05,-1.33,
4.893,2.34,1.34,0.62,-0.19,1.03,-1.31,
4.894,2.25,1.17,0.78,-0.19,1.03,-1.31,
4.896,2.25,1.17,0.78,-0.20,1.00,-1.28,
4.898,2.25,1.17,0.78,-0.21,0.96,-1.25,
4.898,2.15,0.94,0.97,-0.21,0.96,-1.25,
4.902,2.15,0.94,0.97,-0.23,0.92,-1.22,
4.903,2.15,0.94,0.97,-0.24,0.89,-1.18,
4.903,1.97,0.76,1.13,-0.24,0.89,-1.18,
4.906,1.97,0.76,1.13,-0.25,0.86,-1.13,
4.908,1.97,0.76,1.13,-0.27,0.82,-1.07,
4.909,1.73,0.58,1.27,-0.27,0.82,-1.07,
4.911,1.73,0.58,1.27,-0.28,0.79,-1.00,
4.913,1.73,0.58,1.27,-0.30,0.76,-0.90,
4.913,1.73,0.43,1.45,-0.30,0.76,-0.90,
4.916,1.73,0.43,1.45,-0.31,0.72,-0.80,
4.92,1.73,0.43,1.45,-0.31,0.66,-0.70,
4.921,1.73,0.43,1.45,-0.32,0.59,-0.61,
4.921,1.94,0.20,1.77,-0.32,0.59,-0.61,
4.923,1.94,0.20,1.77,-0.32,0.52,-0.53,
4.923,2.02,-0.17,1.95,-0.32,0.52,-0.53,
4.925,2.02,-0.17,1.95,-0.32,0.45,-0.47,
4.928,2.02,-0.17,1.95,-0.31,0.39,-0.43,
4.929,1.88,-0.52,1.94,-0.31,0.39,-0.43,
4.93,1.88,-0.52,1.94,-0.30,0.36,-0.40,
