
time,ax,ay,az,wx,wy,wz,
0.003,1.01,0.37,-1.59,0.15,0.05,-0.08,
0.003,1.01,0.37,-1.59,0.09,0.03,-0.08,
0.003,0.84,0.38,-1.45,0.09,0.03,-0.08,
0.003,0.84,0.38,-1.45,0.04,-0.00,-0.08,
0.003,0.84,0.38,-1.45,-0.01,-0.04,-0.07,
0.004,0.67,0.35,-1.29,-0.01,-0.04,-0.07,
0.004,0.67,0.35,-1.29,-0.06,-0.08,-0.07,
0.004,0.67,0.35,-1.29,-0.11,-0.11,-0.06,
0.004,0.52,0.32,-1.17,-0.11,-0.11,-0.06,
0.004,0.52,0.32,-1.17,-0.15,-0.15,-0.05,
0.007,0.52,0.32,-1.17,-0.19,-0.18,-0.04,
0.007,0.45,0.34,-1.03,-0.19,-0.18,-0.04,
0.008,0.45,0.34,-1.03,-0.23,-0.21,-0.03,
0.011,0.45,0.34,-1.03,-0.25,-0.24,-0.02,
0.011,0.45,0.34,-0.83,-0.25,-0.24,-0.02,
0.014,0.45,0.34,-0.83,-0.27,-0.26,-0.01,
0.016,0.45,0.34,-0.83,-0.29,-0.28,-0.00,
0.016,0.55,0.31,-0.61,-0.29,-0.28,-0.00,
0.018,0.55,0.31,-0.61,-0.30,-0.30,0.00,
0.021,0.55,0.31,-0.61,-0.30,-0.31,0.01,
0.021,0.64,0.27,-0.37,-0.30,-0.31,0.01,
0.024,0.64,0.27,-0.37,-0.30,-0.32,0.01,
0.026,0.64,0.27,-0.37,-0.29,-0.32,0.01,
0.026,0.71,0.22,-0.14,-0.29,-0.32,0.01,
0.028,0.71,0.22,-0.14,-0.28,-0.32,0.01,
0.031,0.71,0.22,-0.14,-0.26,-0.31,0.01,
0.031,0.80,0.17,0.05,-0.26,-0.31,0.01,
0.034,0.80,0.17,0.05,-0.24,-0.30,0.01,
0.036,0.80,0.17,0.05,-0.21,-0.29,0.01,
0.036,0.89,0.13,0.20,-0.21,-0.29,0.01,
0.039,0.89,0.13,0.20,-0.19,-0.27,0.00,
0.041,0.89,0.13,0.20,-0.16,-0.26,-0.00,
0.041,0.92,0.10,0.30,-0.16,-0.26,-0.00,
0.043,0.92,0.10,0.30,-0.13,-0.24,-0.00,
0.047,0.92,0.10,0.30,-0.10,-0.23,-0.01,
0.047,0.96,0.11,0.40,-0.10,-0.23,-0.01,
0.049,0.96,0.11,0.40,-0.07,-0.21,-0.02,
0.051,0.96,0.11,0.40,-0.04,-0.20,-0.02,
0.051,0.96,0.10,0.45,-0.04,-0.20,-0.02,
0.053,0.96,0.10,0.45,-0.01,-0.18,-0.03,
0.056,0.96,0.10,0.45,0.02,-0.17,-0.04,
0.057,0.96,0.08,0.43,0.02,-0.17,-0.04,
0.058,0.96,0.08,0.43,0.04,-0.15,-0.04,
0.061,0.96,0.08,0.43,0.06,-0.14,-0.05,
0.061,0.88,0.08,0.33,0.06,-0.14,-0.05,
0.063,0.88,0.08,0.33,0.08,-0.13,-0.05,
0.066,0.83,0.07,0.20,0.08,-0.13,-0.05,
0.066,0.83,0.07,0.20,0.10,-0.12,-0.06,
0.068,0.83,0.07,0.20,0.11,-0.11,-0.06,
0.071,0.81,0.08,0.04,0.11,-0.11,-0.06,
0.071,0.81,0.08,0.04,0.12,-0.10,-0.06,
0.073,0.81,0.08,0.04,0.12,-0.09,-0.07,
0.076,0.84,0.09,-0.11,0.12,-0.09,-0.07,
0.076,0.84,0.09,-0.11,0.12,-0.09,-0.07,
0.078,0.84,0.09,-0.11,0.12,-0.08,-0.07,
0.08,0.84,0.09,-0.11,0.11,-0.08,-0.07,
0.081,0.80,0.11,-0.25,0.11,-0.08,-0.07,
0.083,0.80,0.11,-0.25,0.10,-0.07,-0.08,
0.085,0.80,0.11,-0.25,0.09,-0.06,-0.08,
0.086,0.78,0.14,-0.34,0.09,-0.06,-0.08,
0.088,0.78,0.14,-0.34,0.08,-0.06,-0.08,
0.091,0.78,0.14,-0.34,0.06,-0.05,-0.08,
0.091,0.74,0.17,-0.36,0.06,-0.05,-0.08,
0.093,0.74,0.17,-0.36,0.05,-0.05,-0.08,
0.095,0.74,0.17,-0.36,0.03,-0.05,-0.08,
0.096,0.71,0.19,-0.34,0.03,-0.05,-0.08,
0.098,0.71,0.19,-0.34,0.02,-0.05,-0.08,
0.1,0.71,0.19,-0.34,0.00,-0.06,-0.08,
0.101,0.62,0.18,-0.29,0.00,-0.06,-0.08,
0.111,0.62,0.18,-0.29,-0.01,-0.06,-0.08,
0.111,0.62,0.18,-0.29,-0.03,-0.07,-0.08,
0.111,0.55,0.17,-0.23,-0.03,-0.07,-0.08,
0.112,0.55,0.17,-0.23,-0.04,-0.08,-0.08,
0.112,0.55,0.17,-0.23,-0.05,-0.09,-0.08,
0.112,0.45,0.19,-0.16,-0.05,-0.09,-0.08,
0.112,0.45,0.19,-0.16,-0.06,-0.10,-0.08,
0.115,0.45,0.19,-0.16,-0.07,-0.11,-0.08,
0.115,0.36,0.23,-0.06,-0.07,-0.11,-0.08,
0.117,0.36,0.23,-0.06,-0.08,-0.12,-0.07,
0.12,0.36,0.23,-0.06,-0.08,-0.13,-0.07,
0.12,0.29,0.29,-0.01,-0.08,-0.13,-0.07,
0.124,0.29,0.29,-0.01,-0.08,-0.14,-0.07,
0.126,0.26,0.33,0.04,-0.08,-0.14,-0.07,
0.126,0.26,0.33,0.04,-0.08,-0.15,-0.06,
0.129,0.26,0.33,0.04,-0.09,-0.15,-0.06,
0.13,0.27,0.37,0.07,-0.09,-0.15,-0.06,
0.13,0.27,0.37,0.07,-0.08,-0.16,-0.06,
0.132,0.27,0.37,0.07,-0.09,-0.16,-0.06,
0.137,0.30,0.41,0.10,-0.09,-0.16,-0.06,
0.137,0.30,0.41,0.10,-0.08,-0.16,-0.05,
0.138,0.30,0.41,0.10,-0.08,-0.16,-0.05,
0.143,0.33,0.41,0.12,-0.08,-0.16,-0.05,
0.143,0.33,0.41,0.12,-0.08,-0.16,-0.05,
0.143,0.33,0.41,0.12,-0.07,-0.15,-0.05,
0.146,0.34,0.42,0.12,-0.07,-0.15,-0.05,
0.146,0.34,0.42,0.12,-0.07,-0.15,-0.06,
0.147,0.34,0.42,0.12,-0.06,-0.14,-0.05,
0.152,0.34,0.42,0.12,-0.05,-0.13,-0.05,
0.153,0.36,0.42,0.12,-0.05,-0.13,-0.05,
0.153,0.36,0.42,0.12,-0.04,-0.12,-0.05,
0.156,0.35,0.43,0.16,-0.04,-0.12,-0.05,
0.156,0.35,0.43,0.16,-0.03,-0.10,-0.05,
0.158,0.35,0.43,0.16,-0.01,-0.09,-0.04,
0.16,0.35,0.43,0.16,0.00,-0.07,-0.04,
0.161,0.33,0.43,0.19,0.00,-0.07,-0.04,
0.164,0.33,0.43,0.19,0.02,-0.05,-0.04,
0.165,0.33,0.43,0.19,0.03,-0.04,-0.03,
0.165,0.34,0.44,0.20,0.03,-0.04,-0.03,
0.168,0.34,0.44,0.20,0.05,-0.02,-0.03,
0.17,0.34,0.44,0.20,0.06,-0.00,-0.03,
0.17,0.35,0.44,0.19,0.06,-0.00,-0.03,
0.173,0.35,0.44,0.19,0.07,0.01,-0.02,
0.175,0.35,0.44,0.19,0.08,0.02,-0.02,
0.175,0.37,0.46,0.17,0.08,0.02,-0.02,
0.177,0.37,0.46,0.17,0.09,0.03,-0.02,
0.18,0.37,0.46,0.17,0.10,0.04,-0.02,
0.18,0.37,0.45,0.14,0.10,0.04,-0.02,
0.182,0.37,0.45,0.14,0.11,0.04,-0.02,
0.185,0.37,0.45,0.14,0.11,0.04,-0.02,
0.185,0.36,0.42,0.09,0.11,0.04,-0.02,
0.187,0.36,0.42,0.09,0.11,0.04,-0.02,
0.19,0.34,0.38,0.04,0.11,0.04,-0.02,
0.19,0.34,0.38,0.04,0.12,0.04,-0.02,
0.193,0.34,0.38,0.04,0.12,0.04,-0.01,
0.195,0.34,0.38,0.04,0.12,0.03,-0.01,
0.203,0.34,0.36,0.03,0.12,0.03,-0.01,
0.204,0.34,0.36,0.03,0.12,0.02,-0.01,
0.205,0.34,0.36,0.03,0.11,0.01,-0.01,
0.205,0.34,0.34,0.01,0.11,0.01,-0.01,
0.205,0.34,0.34,0.01,0.11,-0.00,-0.00,
0.209,0.34,0.34,0.01,0.10,-0.01,-0.00,
0.21,0.34,0.33,0.04,0.10,-0.01,-0.00,
0.21,0.34,0.32,0.03,0.10,-0.01,-0.00,
0.21,0.34,0.32,0.03,0.10,-0.03,0.00,
0.211,0.34,0.32,0.03,0.09,-0.04,0.01,
0.212,0.34,0.32,0.03,0.08,-0.05,0.01,
0.216,0.34,0.32,0.03,0.07,-0.06,0.01,
0.216,0.35,0.32,0.04,0.07,-0.06,0.01,
0.218,0.35,0.32,0.04,0.06,-0.07,0.01,
0.22,0.38,0.32,0.07,0.06,-0.07,0.01,
0.23,0.38,0.32,0.07,0.05,-0.08,0.01,
0.23,0.38,0.32,0.07,0.05,-0.09,0.01,
0.231,0.40,0.31,0.09,0.05,-0.09,0.01,
0.231,0.40,0.31,0.09,0.04,-0.10,0.01,
0.231,0.40,0.31,0.09,0.03,-0.11,0.01,
0.232,0.43,0.29,0.10,0.03,-0.11,0.01,
0.232,0.43,0.29,0.10,0.02,-0.12,0.01,
0.232,0.43,0.29,0.10,0.01,-0.13,0.01,
0.234,0.44,0.28,0.10,0.01,-0.13,0.01,
0.235,0.44,0.28,0.10,0.01,-0.13,0.01,
0.237,0.44,0.28,0.10,0.01,-0.14,0.01,
0.239,0.44,0.28,0.10,0.01,-0.14,0.00,
0.24,0.44,0.27,0.11,0.01,-0.14,0.00,
0.243,0.44,0.27,0.11,0.01,-0.14,0.00,
0.245,0.44,0.27,0.11,0.01,-0.14,0.00,
0.245,0.48,0.23,0.10,0.01,-0.14,0.00,
0.248,0.48,0.23,0.10,0.01,-0.14,-0.00,
0.25,0.48,0.23,0.10,0.01,-0.14,-0.00,
0.25,0.52,0.21,0.10,0.01,-0.14,-0.00,
0.252,0.52,0.21,0.10,0.02,-0.13,-0.00,
0.258,0.55,0.18,0.08,0.02,-0.13,-0.00,
0.258,0.55,0.18,0.08,0.02,-0.13,-0.01,
0.259,0.55,0.18,0.08,0.03,-0.12,-0.01,
0.259,0.55,0.18,0.08,0.04,-0.11,-0.01,
0.259,0.56,0.15,0.07,0.04,-0.11,-0.01,
0.262,0.56,0.15,0.07,0.05,-0.11,-0.01,
0.264,0.56,0.15,0.07,0.05,-0.10,-0.01,
0.264,0.58,0.14,0.05,0.05,-0.10,-0.01,
0.268,0.58,0.14,0.05,0.06,-0.10,-0.01,
0.282,0.58,0.14,0.05,0.07,-0.09,-0.02,
0.282,0.55,0.12,0.05,0.07,-0.09,-0.02,
0.282,0.50,0.10,0.01,0.07,-0.09,-0.02,
0.283,0.50,0.10,0.01,0.07,-0.09,-0.02,
0.283,0.50,0.10,0.01,0.08,-0.09,-0.02,
0.283,0.50,0.10,0.01,0.09,-0.09,-0.02,
0.283,0.50,0.10,0.01,0.10,-0.09,-0.02,
0.283,0.45,0.11,-0.01,0.10,-0.09,-0.02,
0.283,0.45,0.11,-0.01,0.10,-0.09,-0.02,
0.284,0.42,0.13,-0.07,0.10,-0.09,-0.02,
0.284,0.42,0.13,-0.07,0.10,-0.08,-0.01,
0.287,0.42,0.13,-0.07,0.11,-0.08,-0.01,
0.29,0.40,0.14,-0.09,0.11,-0.08,-0.01,
0.29,0.40,0.14,-0.09,0.11,-0.08,-0.01,
0.293,0.40,0.14,-0.09,0.11,-0.07,-0.00,
0.294,0.40,0.14,-0.09,0.11,-0.07,0.00,
0.294,0.41,0.14,-0.10,0.11,-0.07,0.00,
0.296,0.41,0.14,-0.10,0.11,-0.07,0.00,
0.299,0.41,0.14,-0.10,0.10,-0.07,0.01,
0.299,0.38,0.12,-0.10,0.10,-0.07,0.01,
0.301,0.38,0.12,-0.10,0.10,-0.07,0.01,
0.304,0.38,0.12,-0.10,0.10,-0.08,0.01,
0.304,0.38,0.09,-0.10,0.10,-0.08,0.01,
0.308,0.38,0.09,-0.10,0.10,-0.08,0.02,
0.308,0.40,0.07,-0.09,0.10,-0.08,0.02,
0.309,0.40,0.07,-0.09,0.09,-0.08,0.02,
0.312,0.40,0.07,-0.09,0.09,-0.09,0.02,
0.313,0.40,0.07,-0.09,0.08,-0.10,0.02,
0.316,0.41,0.02,-0.11,0.08,-0.10,0.02,
0.316,0.41,0.02,-0.11,0.08,-0.10,0.02,
0.318,0.41,0.02,-0.11,0.07,-0.10,0.02,
0.319,0.47,0.01,-0.15,0.07,-0.10,0.02,
0.321,0.47,0.01,-0.15,0.06,-0.10,0.02,
0.324,0.47,0.01,-0.15,0.05,-0.10,0.02,
0.324,0.48,0.06,-0.19,0.05,-0.10,0.02,
0.326,0.48,0.06,-0.19,0.05,-0.10,0.01,
0.329,0.48,0.06,-0.19,0.04,-0.09,0.01,
0.329,0.51,0.14,-0.24,0.04,-0.09,0.01,
0.331,0.51,0.14,-0.24,0.03,-0.09,0.01,
0.333,0.46,0.17,-0.22,0.03,-0.09,0.01,
0.334,0.46,0.17,-0.22,0.02,-0.10,0.00,
0.336,0.46,0.17,-0.22,0.01,-0.10,0.00,
0.339,0.46,0.17,-0.22,0.01,-0.12,-0.00,
0.34,0.38,0.14,-0.21,0.01,-0.12,-0.00,
0.341,0.38,0.14,-0.21,0.00,-0.13,-0.01,
0.343,0.31,0.12,-0.25,0.00,-0.13,-0.01,
0.343,0.31,0.12,-0.25,0.00,-0.16,-0.00,
0.346,0.31,0.12,-0.25,-0.00,-0.18,-0.00,
0.348,0.31,0.12,-0.25,-0.01,-0.21,-0.00,
0.348,0.26,0.09,-0.28,-0.01,-0.21,-0.00,
0.35,0.26,0.09,-0.28,-0.02,-0.24,0.00,
0.353,0.26,0.09,-0.28,-0.02,-0.27,0.01,
0.353,0.21,0.10,-0.34,-0.02,-0.27,0.01,
0.356,0.21,0.10,-0.34,-0.03,-0.29,0.01,
0.358,0.21,0.10,-0.34,-0.04,-0.31,0.01,
0.358,0.16,0.14,-0.38,-0.04,-0.31,0.01,
0.361,0.16,0.14,-0.38,-0.04,-0.32,0.01,
0.363,0.16,0.14,-0.38,-0.05,-0.33,0.01,
0.363,0.16,0.19,-0.40,-0.05,-0.33,0.01,
0.366,0.16,0.19,-0.40,-0.05,-0.33,0.02,
0.368,0.16,0.19,-0.40,-0.06,-0.34,0.02,
0.368,0.17,0.23,-0.34,-0.06,-0.34,0.02,
0.37,0.17,0.23,-0.34,-0.06,-0.34,0.03,
0.373,0.17,0.23,-0.34,-0.06,-0.33,0.03,
0.374,0.20,0.25,-0.25,-0.06,-0.33,0.03,
0.375,0.20,0.25,-0.25,-0.06,-0.33,0.03,
0.379,0.20,0.25,-0.25,-0.06,-0.32,0.03,
0.379,0.22,0.25,-0.17,-0.06,-0.32,0.03,
0.381,0.22,0.25,-0.17,-0.06,-0.32,0.03,
0.384,0.22,0.25,-0.17,-0.06,-0.31,0.04,
0.384,0.27,0.24,-0.11,-0.06,-0.31,0.04,
0.385,0.27,0.24,-0.11,-0.06,-0.29,0.04,
0.389,0.26,0.24,-0.06,-0.06,-0.29,0.04,
0.39,0.26,0.24,-0.06,-0.06,-0.28,0.04,
0.392,0.26,0.24,-0.06,-0.05,-0.26,0.04,
0.393,0.26,0.24,-0.06,-0.05,-0.25,0.05,
0.393,0.28,0.23,-0.01,-0.05,-0.25,0.05,
0.395,0.28,0.23,-0.01,-0.05,-0.23,0.05,
0.398,0.28,0.23,-0.01,-0.05,-0.22,0.04,
0.398,0.31,0.18,0.03,-0.05,-0.22,0.04,
0.4,0.31,0.18,0.03,-0.05,-0.20,0.04,
0.403,0.31,0.18,0.03,-0.04,-0.19,0.04,
0.403,0.29,0.12,0.00,-0.04,-0.19,0.04,
0.406,0.29,0.12,0.00,-0.04,-0.18,0.04,
0.408,0.29,0.12,0.00,-0.04,-0.16,0.03,
0.408,0.30,0.12,-0.06,-0.04,-0.16,0.03,
0.41,0.30,0.12,-0.06,-0.05,-0.15,0.03,
0.413,0.30,0.12,-0.06,-0.05,-0.14,0.03,
0.413,0.28,0.16,-0.12,-0.05,-0.14,0.03,
0.415,0.28,0.16,-0.12,-0.06,-0.13,0.03,
0.417,0.28,0.16,-0.12,-0.07,-0.12,0.03,
0.418,0.24,0.22,-0.10,-0.07,-0.12,0.03,
0.42,0.24,0.22,-0.10,-0.08,-0.11,0.03,
0.423,0.21,0.25,-0.06,-0.08,-0.11,0.03,
0.423,0.21,0.25,-0.06,-0.09,-0.10,0.02,
0.425,0.21,0.25,-0.06,-0.10,-0.10,0.02,
0.428,0.21,0.25,-0.06,-0.11,-0.09,0.02,
0.428,0.18,0.26,-0.04,-0.11,-0.09,0.02,
0.43,0.18,0.26,-0.04,-0.12,-0.09,0.02,
0.433,0.18,0.26,-0.04,-0.13,-0.07,0.01,
0.452,0.23,0.37,-0.06,-0.13,-0.07,0.01,
0.452,0.23,0.37,-0.06,-0.14,-0.06,0.00,
0.452,0.23,0.37,-0.06,-0.15,-0.05,-0.00,
0.453,0.23,0.34,-0.05,-0.15,-0.05,-0.00,
0.453,0.23,0.34,-0.05,-0.16,-0.04,-0.00,
0.453,0.23,0.34,-0.05,-0.16,-0.04,0.00,
0.453,0.21,0.27,-0.06,-0.16,-0.04,0.00,
0.454,0.21,0.27,-0.06,-0.16,-0.04,0.01,
0.454,0.21,0.27,-0.06,-0.17,-0.04,0.01,
0.454,0.16,0.23,-0.00,-0.17,-0.04,0.01,
0.454,0.16,0.23,-0.00,-0.17,-0.05,0.02,
0.455,0.16,0.23,-0.00,-0.17,-0.05,0.03,
0.455,0.19,0.20,0.10,-0.17,-0.05,0.03,
0.455,0.19,0.20,0.10,-0.17,-0.06,0.03,
0.461,0.30,0.14,0.19,-0.17,-0.06,0.03,
0.461,0.30,0.14,0.19,-0.17,-0.06,0.03,
0.462,0.30,0.14,0.19,-0.18,-0.06,0.04,
0.462,0.30,0.14,0.19,-0.18,-0.04,0.04,
0.462,0.15,-0.73,0.03,-0.18,-0.04,0.04,
0.465,0.15,-0.73,0.03,-0.20,0.01,0.04,
0.467,0.15,-0.73,0.03,-0.23,0.07,0.05,
0.468,0.34,-0.72,-0.17,-0.23,0.07,0.05,
0.47,0.34,-0.72,-0.17,-0.26,0.11,0.05,
0.474,0.66,-0.07,0.04,-0.26,0.11,0.05,
0.474,0.66,-0.07,0.04,-0.27,0.12,0.05,
0.474,0.66,-0.07,0.04,-0.28,0.09,0.04,
0.477,0.66,-0.07,0.04,-0.29,0.06,0.03,
0.477,0.94,0.28,0.25,-0.29,0.06,0.03,
0.48,0.94,0.28,0.25,-0.28,0.02,0.00,
0.483,0.91,0.37,0.34,-0.28,0.02,0.00,
0.483,0.91,0.37,0.34,-0.28,-0.02,-0.02,
0.485,0.91,0.37,0.34,-0.28,-0.06,-0.04,
0.488,0.73,0.29,0.24,-0.28,-0.06,-0.04,
0.488,0.73,0.29,0.24,-0.28,-0.11,-0.06,
0.492,0.73,0.29,0.24,-0.29,-0.15,-0.08,
0.493,0.73,0.29,0.24,-0.30,-0.19,-0.11,
0.493,0.69,-0.53,-0.05,-0.30,-0.19,-0.11,
0.495,0.69,-0.53,-0.05,-0.33,-0.22,-0.16,
0.497,0.69,-0.53,-0.05,-0.36,-0.26,-0.19,
0.497,0.44,-0.73,-0.26,-0.36,-0.26,-0.19,
0.499,0.44,-0.73,-0.26,-0.41,-0.31,-0.20,
0.502,0.44,-0.73,-0.26,-0.43,-0.32,-0.24,
0.502,0.42,-0.32,-0.21,-0.43,-0.32,-0.24,
0.504,0.42,-0.32,-0.21,-0.46,-0.34,-0.26,
0.507,0.13,0.40,-0.13,-0.46,-0.34,-0.26,
0.507,0.13,0.40,-0.13,-0.48,-0.36,-0.27,
0.509,0.13,0.40,-0.13,-0.50,-0.39,-0.28,
0.512,-0.34,0.19,-0.20,-0.50,-0.39,-0.28,
0.512,-0.34,0.19,-0.20,-0.52,-0.41,-0.29,
0.514,-0.34,0.19,-0.20,-0.52,-0.43,-0.29,
0.517,-0.34,0.19,-0.20,-0.52,-0.45,-0.29,
0.517,-0.36,0.14,-0.18,-0.52,-0.45,-0.29,
0.519,-0.36,0.14,-0.18,-0.52,-0.48,-0.29,
0.524,-0.17,0.16,-0.20,-0.52,-0.48,-0.29,
0.525,-0.17,0.16,-0.20,-0.52,-0.52,-0.29,
0.525,-0.17,0.16,-0.20,-0.53,-0.55,-0.29,
0.527,-0.17,0.16,-0.20,-0.54,-0.57,-0.30,
0.527,0.16,0.12,-0.18,-0.54,-0.57,-0.30,
0.529,0.16,0.12,-0.18,-0.54,-0.58,-0.32,
0.533,0.16,0.12,-0.18,-0.56,-0.59,-0.33,
0.533,0.34,0.13,-0.22,-0.56,-0.59,-0.33,
0.534,0.34,0.13,-0.22,-0.58,-0.58,-0.35,
0.537,0.34,0.13,-0.22,-0.60,-0.57,-0.37,
0.537,0.47,-0.02,-0.30,-0.60,-0.57,-0.37,
0.54,0.47,-0.02,-0.30,-0.62,-0.55,-0.40,
0.543,0.55,-0.22,-0.31,-0.62,-0.55,-0.40,
0.543,0.55,-0.22,-0.31,-0.65,-0.53,-0.43,
0.544,0.55,-0.22,-0.31,-0.68,-0.50,-0.46,
0.547,0.67,-0.43,-0.20,-0.68,-0.50,-0.46,
0.547,0.67,-0.43,-0.20,-0.70,-0.49,-0.50,
0.549,0.67,-0.43,-0.20,-0.73,-0.48,-0.54,
0.551,0.67,-0.43,-0.20,-0.75,-0.48,-0.59,
0.552,0.89,-0.59,-0.02,-0.75,-0.48,-0.59,
0.554,0.89,-0.59,-0.02,-0.77,-0.49,-0.63,
0.557,1.05,-0.67,0.13,-0.77,-0.49,-0.63,
0.557,1.05,-0.67,0.13,-0.78,-0.51,-0.68,
0.559,1.05,-0.67,0.13,-0.80,-0.53,-0.73,
0.561,1.10,-0.70,0.19,-0.80,-0.53,-0.73,
0.562,1.10,-0.70,0.19,-0.81,-0.57,-0.77,
0.564,1.10,-0.70,0.19,-0.83,-0.61,-0.82,
0.566,1.12,-0.68,0.21,-0.83,-0.61,-0.82,
0.566,1.12,-0.68,0.21,-0.84,-0.65,-0.87,
0.568,1.12,-0.68,0.21,-0.86,-0.70,-0.91,
0.574,1.07,-0.60,0.16,-0.86,-0.70,-0.91,
0.574,1.07,-0.60,0.16,-0.89,-0.75,-0.96,
0.574,1.07,-0.60,0.16,-0.92,-0.80,-1.00,
0.578,0.97,-0.49,0.05,-0.92,-0.80,-1.00,
0.578,0.97,-0.49,0.05,-0.95,-0.86,-1.04,
0.58,0.97,-0.49,0.05,-0.98,-0.93,-1.08,
0.582,0.97,-0.49,0.05,-1.01,-1.01,-1.11,
0.582,0.67,-0.37,-0.08,-1.01,-1.01,-1.11,
0.584,0.67,-0.37,-0.08,-1.05,-1.11,-1.13,
0.586,0.67,-0.37,-0.08,-1.08,-1.21,-1.15,
0.587,0.34,-0.25,-0.32,-1.08,-1.21,-1.15,
0.592,0.34,-0.25,-0.32,-1.13,-1.31,-1.17,
0.593,-0.09,-0.07,-0.60,-1.13,-1.31,-1.17,
0.593,-0.09,-0.07,-0.60,-1.16,-1.41,-1.18,
0.595,-0.09,-0.07,-0.60,-1.21,-1.51,-1.18,
0.596,-0.09,-0.07,-0.60,-1.24,-1.62,-1.18,
0.596,-0.48,0.16,-0.84,-1.24,-1.62,-1.18,
0.616,-0.48,0.16,-0.84,-1.28,-1.71,-1.18,
0.616,-0.48,0.16,-0.84,-1.31,-1.81,-1.16,
0.616,-0.84,0.38,-0.98,-1.31,-1.81,-1.16,
0.617,-0.84,0.38,-0.98,-1.33,-1.89,-1.15,
0.617,-1.21,0.65,-1.14,-1.33,-1.89,-1.15,
0.617,-1.21,0.65,-1.14,-1.35,-1.97,-1.13,
0.617,-1.21,0.65,-1.14,-1.36,-2.03,-1.10,
0.617,-1.23,0.92,-1.30,-1.36,-2.03,-1.10,
0.618,-1.23,0.92,-1.30,-1.37,-2.07,-1.07,
0.618,-1.23,0.92,-1.30,-1.37,-2.08,-1.05,
0.618,-1.22,1.15,-1.39,-1.37,-2.08,-1.05,
0.618,-1.22,1.15,-1.39,-1.37,-2.06,-1.01,
0.618,-1.22,1.15,-1.39,-1.36,-2.02,-0.98,
0.621,-1.22,1.15,-1.39,-1.35,-1.96,-0.94,
0.624,-1.25,1.24,-1.49,-1.35,-1.96,-0.94,
0.625,-1.25,1.24,-1.49,-1.34,-1.89,-0.91,
0.631,-1.24,1.04,-1.64,-1.34,-1.89,-0.91,
0.631,-1.24,1.04,-1.64,-1.32,-1.81,-0.87,
0.631,-1.24,1.04,-1.64,-1.31,-1.70,-0.83,
0.64,-1.24,1.04,-1.64,-1.29,-1.58,-0.79,
0.641,-1.27,0.71,-1.71,-1.29,-1.58,-0.79,
0.641,-0.79,0.23,-1.62,-1.29,-1.58,-0.79,
0.641,-0.79,0.23,-1.62,-1.28,-1.44,-0.75,
0.641,-0.79,0.23,-1.62,-1.26,-1.30,-0.73,
0.642,-0.79,0.23,-1.62,-1.24,-1.16,-0.71,
0.642,-0.33,-0.44,-1.59,-1.24,-1.16,-0.71,
0.642,-0.33,-0.44,-1.59,-1.21,-1.01,-0.71,
0.645,-0.33,-0.44,-1.59,-1.18,-0.86,-0.73,
0.647,-0.33,-0.44,-1.59,-1.16,-0.75,-0.77,
0.647,0.73,-1.92,-1.40,-1.16,-0.75,-0.77,
0.648,0.73,-1.92,-1.40,-1.15,-0.65,-0.84,
0.65,0.73,-1.92,-1.40,-1.11,-0.52,-0.93,
0.651,1.46,-2.36,-1.26,-1.11,-0.52,-0.93,
0.653,1.46,-2.36,-1.26,-1.07,-0.43,-1.03,
0.656,1.21,-1.85,-0.63,-1.07,-0.43,-1.03,
0.656,1.21,-1.85,-0.63,-1.04,-0.38,-1.14,
0.658,1.21,-1.85,-0.63,-1.01,-0.34,-1.24,
0.66,1.21,-1.85,-0.63,-0.99,-0.29,-1.33,
0.661,0.57,-1.49,-0.67,-0.99,-0.29,-1.33,
0.663,0.57,-1.49,-0.67,-0.96,-0.19,-1.41,
0.665,0.23,-1.52,-1.34,-0.96,-0.19,-1.41,
0.666,0.23,-1.52,-1.34,-0.91,-0.07,-1.49,
0.669,0.23,-1.52,-1.34,-0.87,0.05,-1.57,
0.671,0.23,-1.52,-1.34,-0.82,0.17,-1.64,
0.671,0.26,-1.46,-1.49,-0.82,0.17,-1.64,
0.673,0.26,-1.46,-1.49,-0.77,0.28,-1.71,
0.675,0.26,-1.46,-1.49,-0.73,0.38,-1.77,
0.675,0.33,-1.21,-1.42,-0.73,0.38,-1.77,
0.677,0.33,-1.21,-1.42,-0.68,0.49,-1.83,
0.68,0.33,-1.21,-1.42,-0.63,0.61,-1.89,
0.68,0.23,-1.02,-1.34,-0.63,0.61,-1.89,
0.682,0.23,-1.02,-1.34,-0.58,0.72,-1.93,
0.685,0.23,-1.02,-1.34,-0.53,0.84,-1.96,
0.685,-0.11,-0.79,-1.23,-0.53,0.84,-1.96,
0.687,-0.11,-0.79,-1.23,-0.48,0.94,-1.97,
0.692,-0.75,-0.42,-0.93,-0.48,0.94,-1.97,
0.692,-0.75,-0.42,-0.93,-0.43,1.02,-1.95,
0.693,-0.75,-0.42,-0.93,-0.38,1.09,-1.92,
0.695,-1.69,0.17,-0.14,-0.38,1.09,-1.92,
0.695,-1.69,0.17,-0.14,-0.33,1.12,-1.85,
0.697,-1.69,0.17,-0.14,-0.28,1.13,-1.76,
0.7,-1.69,0.17,-0.14,-0.22,1.12,-1.64,
0.7,-2.50,0.49,0.49,-0.22,1.12,-1.64,
0.702,-2.50,0.49,0.49,-0.16,1.10,-1.50,
0.706,-2.50,0.49,0.49,-0.09,1.11,-1.36,
0.707,-2.87,0.40,0.18,-0.09,1.11,-1.36,
0.707,-2.87,0.40,0.18,-0.02,1.14,-1.20,
0.712,-2.87,0.40,0.18,0.05,1.19,-1.04,
0.712,-3.05,0.24,-0.61,0.05,1.19,-1.04,
0.713,-3.05,0.24,-0.61,0.13,1.24,-0.88,
0.716,-3.05,0.24,-0.61,0.20,1.31,-0.72,
0.716,-3.05,0.26,-1.33,0.20,1.31,-0.72,
0.718,-3.05,0.26,-1.33,0.28,1.40,-0.57,
0.72,-3.05,0.26,-1.33,0.36,1.51,-0.45,
0.72,-2.70,0.31,-1.96,0.36,1.51,-0.45,
0.723,-2.70,0.31,-1.96,0.42,1.65,-0.34,
0.725,-2.70,0.31,-1.96,0.47,1.83,-0.25,
0.726,-2.10,0.12,-2.62,0.47,1.83,-0.25,
0.727,-2.10,0.12,-2.62,0.51,2.04,-0.19,
0.73,-2.10,0.12,-2.62,0.52,2.28,-0.14,
0.731,-1.48,-0.40,-3.16,0.52,2.28,-0.14,
0.732,-1.48,-0.40,-3.16,0.52,2.52,-0.12,
0.735,-1.48,-0.40,-3.16,0.51,2.77,-0.11,
0.735,-1.09,-1.03,-3.35,0.51,2.77,-0.11,
0.737,-1.09,-1.03,-3.35,0.50,3.00,-0.12,
0.745,-0.92,-1.61,-3.02,0.50,3.00,-0.12,
0.745,-0.92,-1.61,-3.02,0.49,3.20,-0.13,
0.746,-0.92,-1.61,-3.02,0.48,3.38,-0.16,
0.746,-0.92,-1.61,-3.02,0.48,3.52,-0.20,
0.746,-0.86,-2.13,-2.45,0.48,3.52,-0.20,
0.747,-0.86,-2.13,-2.45,0.49,3.63,-0.23,
0.75,-0.86,-2.13,-2.45,0.50,3.71,-0.28,
0.751,-0.83,-2.60,-2.00,0.50,3.71,-0.28,
0.752,-0.83,-2.60,-2.00,0.52,3.77,-0.32,
0.767,-0.79,-2.92,-1.81,0.52,3.77,-0.32,
0.767,-0.79,-2.92,-1.81,0.54,3.82,-0.36,
0.768,-0.79,-2.92,-1.81,0.56,3.87,-0.40,
0.768,-0.79,-2.92,-1.81,0.59,3.90,-0.44,
0.768,-0.68,-3.16,-1.82,0.59,3.90,-0.44,
0.769,-0.68,-3.16,-1.82,0.61,3.92,-0.49,
0.792,-0.68,-3.16,-1.82,0.64,3.94,-0.53,
0.793,-0.46,-3.33,-1.91,0.64,3.94,-0.53,
0.793,-0.46,-3.33,-1.91,0.67,3.94,-0.58,
0.793,-0.13,-3.43,-2.03,0.67,3.94,-0.58,
0.793,-0.13,-3.43,-2.03,0.69,3.95,-0.63,
0.794,-0.13,-3.43,-2.03,0.72,3.95,-0.69,
0.794,0.13,-3.56,-2.28,0.72,3.95,-0.69,
0.794,0.13,-3.56,-2.28,0.73,3.97,-0.75,
0.794,0.13,-3.56,-2.28,0.74,3.99,-0.82,
0.795,0.13,-3.56,-2.28,0.74,4.02,-0.90,
0.795,0.31,-3.67,-2.55,0.74,4.02,-0.90,
0.795,0.31,-3.67,-2.55,0.74,4.06,-0.97,
0.795,0.31,-3.67,-2.55,0.74,4.10,-1.06,
0.796,0.43,-3.74,-2.75,0.74,4.10,-1.06,
0.796,0.43,-3.74,-2.75,0.73,4.14,-1.15,
0.796,0.43,-3.74,-2.75,0.72,4.18,-1.23,
0.796,0.39,-3.86,-2.84,0.72,4.18,-1.23,
0.796,0.39,-3.86,-2.84,0.71,4.21,-1.32,
0.797,0.25,-4.01,-2.87,0.71,4.21,-1.32,
0.797,0.25,-4.01,-2.87,0.71,4.24,-1.40,
0.797,0.25,-4.01,-2.87,0.69,4.26,-1.48,
0.799,0.13,-4.15,-2.76,0.69,4.26,-1.48,
0.8,0.13,-4.15,-2.76,0.68,4.28,-1.56,
0.801,0.13,-4.15,-2.76,0.67,4.30,-1.63,
0.804,0.13,-4.15,-2.76,0.66,4.32,-1.70,
0.804,0.00,-4.27,-2.46,0.66,4.32,-1.70,
0.807,0.00,-4.27,-2.46,0.66,4.36,-1.77,
0.81,0.00,-4.27,-2.46,0.66,4.38,-1.84,
0.81,-0.17,-4.20,-1.89,0.66,4.38,-1.84,
0.811,-0.17,-4.20,-1.89,0.67,4.39,-1.91,
0.814,-0.17,-4.20,-1.89,0.68,4.38,-1.97,
0.814,-0.43,-4.03,-1.26,0.68,4.38,-1.97,
0.816,-0.43,-4.03,-1.26,0.71,4.37,-2.04,
0.82,-0.43,-4.03,-1.26,0.74,4.34,-2.09,
0.82,-0.74,-4.01,-0.81,0.74,4.34,-2.09,
0.823,-0.74,-4.01,-0.81,0.78,4.33,-2.14,
0.826,-0.99,-4.13,-0.74,0.78,4.33,-2.14,
0.826,-0.99,-4.13,-0.74,0.83,4.35,-2.18,
0.827,-0.99,-4.13,-0.74,0.89,4.41,-2.21,
0.829,-0.99,-4.13,-0.74,0.96,4.51,-2.24,
0.83,-1.07,-4.21,-0.68,0.96,4.51,-2.24,
0.832,-1.07,-4.21,-0.68,1.04,4.65,-2.27,
0.834,-1.07,-4.21,-0.68,1.13,4.81,-2.29,
0.835,-1.06,-4.19,-0.39,1.13,4.81,-2.29,
0.838,-1.06,-4.19,-0.39,1.24,4.98,-2.31,
0.839,-1.06,-4.19,-0.39,1.36,5.17,-2.34,
0.84,-0.90,-4.23,0.03,1.36,5.17,-2.34,
0.841,-0.90,-4.23,0.03,1.48,5.35,-2.36,
0.844,-0.51,-4.47,0.53,1.48,5.35,-2.36,
0.844,-0.51,-4.47,0.53,1.61,5.52,-2.39,
0.846,-0.51,-4.47,0.53,1.75,5.68,-2.42,
0.849,-0.51,-4.47,0.53,1.90,5.84,-2.46,
0.849,0.15,-4.84,0.77,1.90,5.84,-2.46,
0.851,0.15,-4.84,0.77,2.04,5.97,-2.51,
0.854,0.15,-4.84,0.77,2.19,6.08,-2.56,
0.854,0.99,-5.12,0.88,2.19,6.08,-2.56,
0.858,0.99,-5.12,0.88,2.34,6.17,-2.63,
0.859,0.99,-5.12,0.88,2.49,6.25,-2.70,
0.859,1.67,-5.31,0.81,2.49,6.25,-2.70,
0.861,1.67,-5.31,0.81,2.64,6.30,-2.78,
0.864,1.67,-5.31,0.81,2.77,6.32,-2.87,
0.864,2.13,-5.42,0.65,2.77,6.32,-2.87,
0.866,2.13,-5.42,0.65,2.89,6.32,-2.97,
0.869,2.13,-5.42,0.65,3.00,6.29,-3.07,
0.869,2.38,-5.51,0.19,3.00,6.29,-3.07,
0.872,2.38,-5.51,0.19,3.07,6.24,-3.18,
0.874,2.38,-5.51,0.19,3.13,6.17,-3.29,
0.876,2.51,-5.46,-0.51,3.13,6.17,-3.29,
0.877,2.51,-5.46,-0.51,3.15,6.09,-3.39,
0.879,2.51,-5.46,-0.51,3.16,6.00,-3.50,
0.879,2.60,-5.34,-1.12,3.16,6.00,-3.50,
0.884,2.55,-5.37,-1.55,3.16,6.00,-3.50,
0.884,2.55,-5.37,-1.55,3.14,5.90,-3.61,
0.884,2.55,-5.37,-1.55,3.11,5.80,-3.71,
0.886,2.55,-5.37,-1.55,3.06,5.69,-3.82,
0.889,2.55,-5.37,-1.55,3.01,5.58,-3.92,
0.889,2.40,-5.41,-1.67,3.01,5.58,-3.92,
0.891,2.40,-5.41,-1.67,2.95,5.46,-4.02,
0.894,2.10,-5.44,-1.54,2.95,5.46,-4.02,
0.895,2.10,-5.44,-1.54,2.89,5.34,-4.11,
0.896,2.10,-5.44,-1.54,2.83,5.21,-4.20,
0.898,2.10,-5.44,-1.54,2.77,5.08,-4.29,
0.899,1.69,-5.33,-1.23,2.77,5.08,-4.29,
0.901,1.69,-5.33,-1.23,2.72,4.94,-4.37,
0.903,1.69,-5.33,-1.23,2.66,4.79,-4.44,
0.904,1.27,-5.08,-0.72,2.66,4.79,-4.44,
0.908,1.27,-5.08,-0.72,2.61,4.63,-4.51,
0.909,1.27,-5.08,-0.72,2.57,4.47,-4.57,
0.909,0.91,-4.79,-0.24,2.57,4.47,-4.57,
0.911,0.91,-4.79,-0.24,2.54,4.32,-4.63,
0.913,0.91,-4.79,-0.24,2.51,4.19,-4.68,
0.914,0.54,-4.60,0.15,2.51,4.19,-4.68,
0.916,0.54,-4.60,0.15,2.48,4.08,-4.73,
0.918,0.22,-4.48,0.56,2.48,4.08,-4.73,
0.919,0.22,-4.48,0.56,2.46,4.00,-4.77,
0.921,0.22,-4.48,0.56,2.45,3.94,-4.80,
0.929,-0.09,-4.44,1.19,2.45,3.94,-4.80,
0.929,-0.09,-4.44,1.19,2.45,3.89,-4.83,
0.93,-0.09,-4.44,1.19,2.46,3.85,-4.87,
0.93,-0.09,-4.44,1.19,2.47,3.81,-4.90,
0.951,-0.27,-4.41,1.90,2.47,3.81,-4.90,
0.951,-0.41,-4.42,2.48,2.47,3.81,-4.90,
0.952,-0.41,-4.42,2.48,2.51,3.77,-4.93,
0.952,-0.41,-4.42,2.48,2.54,3.74,-4.96,
0.952,-0.59,-4.58,2.90,2.54,3.74,-4.96,
0.952,-0.59,-4.58,2.90,2.59,3.71,-4.99,
0.952,-0.59,-4.58,2.90,2.65,3.69,-5.02,
0.952,-0.59,-4.58,2.90,2.72,3.65,-5.06,
0.953,-0.63,-4.62,3.31,2.72,3.65,-5.06,
0.953,-0.63,-4.62,3.31,2.79,3.61,-5.09,
0.953,-0.63,-4.62,3.31,2.86,3.56,-5.13,
0.953,-0.63,-4.62,3.31,2.94,3.49,-5.17,
0.953,-0.74,-4.69,3.59,2.94,3.49,-5.17,
0.953,-0.74,-4.69,3.59,3.02,3.41,-5.22,
0.954,-1.08,-4.66,3.79,3.02,3.41,-5.22,
0.954,-1.08,-4.66,3.79,3.09,3.32,-5.26,
0.959,-1.08,-4.66,3.79,3.15,3.22,-5.30,
0.959,-1.08,-4.66,3.79,3.21,3.11,-5.34,
0.959,-1.54,-4.35,3.79,3.21,3.11,-5.34,
0.96,-1.54,-4.35,3.79,3.26,2.98,-5.37,
0.963,-1.54,-4.35,3.79,3.31,2.83,-5.39,
0.963,-2.07,-3.84,3.61,3.31,2.83,-5.39,
0.966,-2.07,-3.84,3.61,3.34,2.68,-5.41,
0.968,-2.07,-3.84,3.61,3.38,2.53,-5.42,
0.968,-2.64,-3.27,3.41,3.38,2.53,-5.42,
0.97,-2.64,-3.27,3.41,3.41,2.37,-5.43,
0.976,-2.64,-3.27,3.41,3.43,2.21,-5.42,
0.976,-3.60,-3.23,3.01,3.43,2.21,-5.42,
0.976,-3.60,-3.23,3.01,3.44,2.05,-5.40,
0.978,-3.60,-3.23,3.01,3.44,1.88,-5.37,
0.978,-4.46,-2.86,2.64,3.44,1.88,-5.37,
0.98,-4.46,-2.86,2.64,3.42,1.69,-5.34,
0.983,-4.46,-2.86,2.64,3.39,1.48,-5.31,
0.984,-5.04,-2.06,2.09,3.39,1.48,-5.31,
0.985,-5.04,-2.06,2.09,3.34,1.25,-5.27,
0.988,-5.36,-1.15,1.43,3.34,1.25,-5.27,
0.992,-5.36,-1.15,1.43,3.28,1.02,-5.22,
0.993,-5.36,-1.15,1.43,3.21,0.78,-5.18,
0.993,-5.36,-1.15,1.43,3.12,0.53,-5.13,
0.993,-5.50,-0.32,0.92,3.12,0.53,-5.13,
0.997,-5.50,-0.32,0.92,3.02,0.29,-5.07,
0.998,-5.50,-0.32,0.92,2.91,0.05,-5.00,
0.998,-5.67,0.23,0.49,2.91,0.05,-5.00,
1.0,-5.67,0.23,0.49,2.80,-0.20,-4.93,
1.003,-5.67,0.23,0.49,2.68,-0.44,-4.86,
1.003,-5.89,0.61,0.10,2.68,-0.44,-4.86,
1.006,-5.89,0.61,0.10,2.55,-0.69,-4.79,
1.008,-5.94,1.05,-0.32,2.55,-0.69,-4.79,
1.009,-5.94,1.05,-0.32,2.43,-0.91,-4.72,
1.01,-5.94,1.05,-0.32,2.30,-1.11,-4.64,
1.012,-5.79,1.65,-0.79,2.30,-1.11,-4.64,
1.013,-5.79,1.65,-0.79,2.17,-1.27,-4.58,
1.015,-5.79,1.65,-0.79,2.05,-1.39,-4.51,
1.017,-5.79,1.65,-0.79,1.93,-1.49,-4.44,
1.017,-5.62,2.25,-1.09,1.93,-1.49,-4.44,
1.02,-5.62,2.25,-1.09,1.82,-1.56,-4.37,
1.022,-5.62,2.25,-1.09,1.72,-1.61,-4.29,
1.022,-5.63,2.62,-1.06,1.72,-1.61,-4.29,
1.026,-5.63,2.62,-1.06,1.64,-1.64,-4.23,
1.027,-5.63,2.62,-1.06,1.57,-1.67,-4.15,
1.028,-5.84,2.96,-0.87,1.57,-1.67,-4.15,
1.03,-5.84,2.96,-0.87,1.52,-1.68,-4.08,
1.032,-5.84,2.96,-0.87,1.47,-1.66,-4.01,
1.033,-6.07,3.28,-0.69,1.47,-1.66,-4.01,
1.035,-6.07,3.28,-0.69,1.44,-1.64,-3.93,
1.037,-6.07,3.28,-0.69,1.42,-1.61,-3.85,
1.038,-6.13,3.54,-0.47,1.42,-1.61,-3.85,
1.047,-6.13,3.54,-0.47,1.40,-1.56,-3.77,
1.048,-6.13,3.54,-0.47,1.39,-1.49,-3.70,
1.048,-6.14,3.65,-0.35,1.39,-1.49,-3.70,
1.049,-6.14,3.65,-0.35,1.39,-1.40,-3.62,
1.049,-6.14,3.65,-0.35,1.39,-1.30,-3.56,
1.049,-6.21,3.67,-0.26,1.39,-1.30,-3.56,
1.05,-6.21,3.67,-0.26,1.38,-1.18,-3.49,
1.052,-6.21,3.67,-0.26,1.39,-1.06,-3.44,
1.052,-6.33,3.97,0.08,1.39,-1.06,-3.44,
1.054,-6.33,3.97,0.08,1.39,-0.93,-3.39,
1.057,-6.33,3.97,0.08,1.41,-0.81,-3.33,
1.057,-6.60,4.31,0.49,1.41,-0.81,-3.33,
1.061,-6.60,4.31,0.49,1.44,-0.69,-3.27,
1.062,-6.60,4.31,0.49,1.48,-0.55,-3.21,
1.062,-7.00,4.61,0.46,1.48,-0.55,-3.21,
1.064,-7.00,4.61,0.46,1.49,-0.39,-3.14,
1.067,-7.00,4.61,0.46,1.48,-0.18,-3.04,
1.067,-7.91,5.35,-1.53,1.48,-0.18,-3.04,
1.069,-7.91,5.35,-1.53,1.48,-0.02,-2.95,
1.072,-7.91,5.35,-1.53,1.50,0.08,-2.89,
1.072,-7.45,5.60,-0.72,1.50,0.08,-2.89,
1.074,-7.45,5.60,-0.72,1.55,0.15,-2.84,
1.077,-7.14,5.36,0.52,1.55,0.15,-2.84,
1.077,-7.14,5.36,0.52,1.62,0.18,-2.81,
1.079,-7.14,5.36,0.52,1.70,0.21,-2.77,
1.082,-7.14,5.36,0.52,1.76,0.26,-2.72,
1.082,-7.62,5.49,0.19,1.76,0.26,-2.72,
1.084,-7.62,5.49,0.19,1.79,0.32,-2.65,
1.087,-7.62,5.49,0.19,1.81,0.39,-2.58,
1.087,-8.19,5.87,-1.12,1.81,0.39,-2.58,
1.09,-8.19,5.87,-1.12,1.80,0.47,-2.49,
1.094,-8.52,6.40,-1.69,1.80,0.47,-2.49,
1.094,-8.52,6.40,-1.69,1.79,0.54,-2.40,
1.115,-8.52,6.40,-1.69,1.78,0.61,-2.30,
1.115,-8.91,6.62,-1.96,1.78,0.61,-2.30,
1.115,-8.91,6.62,-1.96,1.76,0.66,-2.20,
1.115,-8.91,6.62,-1.96,1.74,0.69,-2.10,
1.116,-8.91,6.62,-1.96,1.72,0.71,-2.00,
1.116,-9.28,6.85,-2.34,1.72,0.71,-2.00,
1.116,-9.28,6.85,-2.34,1.69,0.69,-1.89,
1.116,-9.28,6.85,-2.34,1.65,0.66,-1.78,
1.117,-9.54,7.27,-2.96,1.65,0.66,-1.78,
1.117,-9.54,7.27,-2.96,1.62,0.63,-1.66,
1.117,-9.54,7.27,-2.96,1.58,0.58,-1.54,
1.117,-9.67,7.72,-3.52,1.58,0.58,-1.54,
1.118,-9.67,7.72,-3.52,1.53,0.52,-1.42,
1.118,-9.67,7.72,-3.52,1.50,0.49,-1.30,
1.118,-9.49,8.05,-3.80,1.50,0.49,-1.30,
1.12,-9.49,8.05,-3.80,1.47,0.47,-1.17,
1.122,-9.44,8.36,-4.30,1.47,0.47,-1.17,
1.123,-9.44,8.36,-4.30,1.45,0.48,-1.04,
1.125,-9.44,8.36,-4.30,1.40,0.49,-0.90,
1.127,-9.46,8.55,-5.31,1.40,0.49,-0.90,
1.127,-9.46,8.55,-5.31,1.36,0.51,-0.76,
1.129,-9.46,8.55,-5.31,1.29,0.55,-0.62,
1.131,-9.46,8.55,-5.31,1.21,0.59,-0.48,
1.131,-9.09,8.61,-6.39,1.21,0.59,-0.48,
1.134,-9.09,8.61,-6.39,1.12,0.62,-0.36,
1.136,-9.09,8.61,-6.39,1.01,0.63,-0.24,
1.136,-8.65,8.68,-7.23,1.01,0.63,-0.24,
1.139,-8.65,8.68,-7.23,0.90,0.64,-0.12,
1.144,-8.65,8.68,-7.23,0.78,0.64,-0.00,
1.144,-8.18,8.75,-7.88,0.78,0.64,-0.00,
1.144,-8.18,8.75,-7.88,0.66,0.62,0.11,
1.148,-7.68,8.58,-7.93,0.66,0.62,0.11,
1.149,-7.68,8.58,-7.93,0.54,0.60,0.21,
1.149,-7.68,8.58,-7.93,0.43,0.57,0.31,
1.156,-7.68,8.58,-7.93,0.31,0.55,0.40,
1.156,-7.02,7.94,-7.86,0.31,0.55,0.40,
1.157,-7.02,7.94,-7.86,0.20,0.55,0.47,
1.157,-6.43,7.55,-7.68,0.20,0.55,0.47,
1.157,-6.43,7.55,-7.68,0.08,0.53,0.54,
1.161,-6.43,7.55,-7.68,-0.03,0.52,0.62,
1.162,-6.43,7.55,-7.68,-0.12,0.51,0.70,
1.162,-5.93,7.00,-6.73,-0.12,0.51,0.70,
1.163,-5.93,7.00,-6.73,-0.20,0.50,0.77,
1.166,-5.93,7.00,-6.73,-0.27,0.49,0.84,
1.166,-5.25,6.11,-5.71,-0.27,0.49,0.84,
1.169,-5.25,6.11,-5.71,-0.33,0.49,0.90,
1.171,-5.25,6.11,-5.71,-0.38,0.51,0.95,
1.171,-4.21,5.21,-4.94,-0.38,0.51,0.95,
1.173,-4.21,5.21,-4.94,-0.42,0.53,0.98,
1.176,-4.21,5.21,-4.94,-0.45,0.56,1.00,
1.177,-3.06,4.29,-3.98,-0.45,0.56,1.00,
1.178,-3.06,4.29,-3.98,-0.46,0.61,1.02,
1.181,-3.06,4.29,-3.98,-0.45,0.66,1.03,
1.181,-2.08,3.27,-3.08,-0.45,0.66,1.03,
1.183,-2.08,3.27,-3.08,-0.45,0.72,1.04,
1.186,-2.08,3.27,-3.08,-0.43,0.78,1.04,
1.186,-1.17,2.51,-2.67,-0.43,0.78,1.04,
1.188,-1.17,2.51,-2.67,-0.42,0.84,1.04,
1.191,-1.17,2.51,-2.67,-0.41,0.91,1.04,
1.191,-0.31,1.82,-2.71,-0.41,0.91,1.04,
1.193,-0.31,1.82,-2.71,-0.40,0.98,1.03,
1.196,-0.31,1.82,-2.71,-0.39,1.06,1.02,
1.196,0.60,1.10,-2.95,-0.39,1.06,1.02,
1.198,0.60,1.10,-2.95,-0.38,1.13,1.00,
1.201,0.60,1.10,-2.95,-0.38,1.20,0.98,
1.201,1.52,0.46,-3.64,-0.38,1.20,0.98,
1.203,1.52,0.46,-3.64,-0.40,1.27,0.94,
1.206,1.52,0.46,-3.64,-0.43,1.33,0.90,
1.206,2.47,-0.34,-4.92,-0.43,1.33,0.90,
1.209,2.47,-0.34,-4.92,-0.48,1.40,0.86,
1.212,2.47,-0.34,-4.92,-0.55,1.46,0.81,
1.212,3.30,-0.89,-6.32,-0.55,1.46,0.81,
1.213,3.30,-0.89,-6.32,-0.63,1.52,0.75,
1.216,3.30,-0.89,-6.32,-0.72,1.58,0.70,
1.216,3.61,-1.26,-7.21,-0.72,1.58,0.70,
1.218,3.61,-1.26,-7.21,-0.80,1.62,0.65,
1.221,3.61,-1.26,-7.21,-0.87,1.66,0.62,
1.221,3.51,-0.94,-7.34,-0.87,1.66,0.62,
1.226,3.51,-0.94,-7.34,-0.93,1.70,0.60,
1.228,3.34,-0.43,-6.99,-0.93,1.70,0.60,
1.229,3.34,-0.43,-6.99,-0.97,1.78,0.59,
1.229,3.34,-0.43,-6.99,-0.98,1.86,0.58,
1.231,3.36,-0.46,-5.71,-0.98,1.86,0.58,
1.231,3.36,-0.46,-5.71,-0.95,1.95,0.58,
1.234,3.36,-0.46,-5.71,-0.92,2.06,0.57,
1.236,3.20,-0.12,-5.35,-0.92,2.06,0.57,
1.237,3.20,-0.12,-5.35,-0.88,2.17,0.56,
1.241,3.20,-0.12,-5.35,-0.84,2.27,0.56,
1.242,2.90,0.42,-4.98,-0.84,2.27,0.56,
1.243,2.90,0.42,-4.98,-0.80,2.31,0.57,
1.257,2.90,0.42,-4.98,-0.78,2.33,0.56,
1.258,2.90,0.42,-4.98,-0.80,2.32,0.54,
1.258,2.86,0.47,-5.66,-0.80,2.32,0.54,
1.259,2.86,0.47,-5.66,-0.87,2.25,0.50,
1.26,2.86,0.47,-5.66,-1.00,2.10,0.45,
1.26,3.26,0.91,-6.44,-1.00,2.10,0.45,
1.261,3.26,0.91,-6.44,-1.19,1.84,0.37,
1.261,2.95,2.31,-8.40,-1.19,1.84,0.37,
1.262,2.95,2.31,-8.40,-1.45,1.49,0.26,
1.262,2.95,2.31,-8.40,-1.80,1.09,0.14,
1.299,2.95,2.31,-8.40,-2.13,0.68,0.02,
1.3,1.26,4.13,-7.91,-2.13,0.68,0.02,
1.3,1.26,4.13,-7.91,-2.42,0.29,-0.07,
1.301,1.26,4.13,-7.91,-2.71,-0.12,-0.11,
1.301,-0.52,0.30,-5.23,-2.71,-0.12,-0.11,
1.302,-0.52,0.30,-5.23,-2.97,-0.49,-0.14,
1.302,-0.52,0.30,-5.23,-3.20,-0.83,-0.18,
1.303,-0.07,-0.16,-2.64,-3.20,-0.83,-0.18,
1.303,-0.07,-0.16,-2.64,-3.36,-1.16,-0.25,
1.304,-0.07,-0.16,-2.64,-3.45,-1.47,-0.34,
1.304,0.38,-1.12,3.53,-3.45,-1.47,-0.34,
1.305,0.38,-1.12,3.53,-3.47,-1.79,-0.41,
1.305,-2.40,-3.58,8.87,-3.47,-1.79,-0.41,
1.305,-2.40,-3.58,8.87,-3.33,-1.93,-0.43,
1.306,-2.40,-3.58,8.87,-3.26,-1.86,-0.36,
1.306,-2.40,-3.58,8.87,-3.02,-1.86,-0.25,
1.307,-5.28,-3.80,15.77,-3.02,-1.86,-0.25,
1.308,-5.28,-3.80,15.77,-2.61,-1.84,-0.09,
1.308,-7.04,-5.00,19.00,-2.61,-1.84,-0.09,
1.309,-7.04,-5.00,19.00,-2.23,-1.64,0.08,
1.309,-7.04,-5.00,19.00,-1.87,-1.33,0.20,
1.309,-7.04,-5.00,19.00,-1.50,-0.96,0.30,
1.31,-4.88,-3.45,18.47,-1.50,-0.96,0.30,
1.31,-4.88,-3.45,18.47,-1.12,-0.58,0.34,
1.31,-4.88,-3.45,18.47,-0.72,-0.21,0.39,
1.31,-2.92,-3.75,17.72,-0.72,-0.21,0.39,
1.311,-2.92,-3.75,17.72,-0.34,0.12,0.41,
1.311,-2.92,-3.75,17.72,-0.01,0.41,0.43,
1.311,-1.44,-4.59,13.98,-0.01,0.41,0.43,
1.312,-1.44,-4.59,13.98,0.26,0.64,0.43,
1.312,-1.44,-4.59,13.98,0.46,0.84,0.41,
1.312,0.36,-4.33,8.34,0.46,0.84,0.41,
1.313,0.36,-4.33,8.34,0.58,1.03,0.40,
1.316,0.36,-4.33,8.34,0.63,1.19,0.36,
1.316,1.27,-3.96,2.07,0.63,1.19,0.36,
1.317,1.27,-3.96,2.07,0.58,1.35,0.31,
1.321,1.58,-5.05,-5.62,0.58,1.35,0.31,
1.322,1.58,-5.05,-5.62,0.43,1.51,0.25,
1.324,1.58,-5.05,-5.62,0.19,1.66,0.19,
1.325,1.58,-5.05,-5.62,-0.09,1.77,0.12,
1.326,1.29,-6.21,-10.42,-0.09,1.77,0.12,
1.327,1.29,-6.21,-10.42,-0.35,1.76,0.08,
1.331,1.29,-6.21,-10.42,-0.55,1.62,0.07,
1.331,0.44,-4.66,-8.66,-0.55,1.62,0.07,
1.332,0.44,-4.66,-8.66,-0.73,1.48,0.09,
1.336,0.44,-4.66,-8.66,-0.95,1.46,0.16,
1.336,-3.82,-7.92,-7.55,-0.95,1.46,0.16,
1.337,-3.82,-7.92,-7.55,-1.10,1.31,0.26,
1.347,-3.82,-7.92,-7.55,-1.19,1.09,0.36,
1.358,-1.39,-4.04,-5.19,-1.19,1.09,0.36,
1.358,-1.39,-4.04,-5.19,-1.23,0.87,0.47,
1.359,0.14,-2.19,-3.33,-1.23,0.87,0.47,
1.359,0.14,-2.19,-3.33,-1.24,0.65,0.59,
1.359,0.14,-2.19,-3.33,-1.24,0.45,0.62,
1.359,0.14,-2.19,-3.33,-1.20,0.32,0.59,
1.36,2.34,-5.19,-1.45,-1.20,0.32,0.59,
1.36,2.34,-5.19,-1.45,-1.18,0.06,0.45,
1.36,2.52,-6.26,-0.24,-1.18,0.06,0.45,
1.36,2.52,-6.26,-0.24,-1.12,-0.14,0.32,
1.36,2.52,-6.26,-0.24,-1.10,-0.36,0.23,
1.37,-0.81,-1.86,-1.75,-1.10,-0.36,0.23,
1.371,-0.81,-1.86,-1.75,-1.10,-0.41,0.15,
1.371,-0.81,-1.86,-1.75,-1.11,-0.31,0.10,
1.371,0.84,1.92,-0.68,-1.11,-0.31,0.10,
1.372,0.84,1.92,-0.68,-1.13,-0.26,0.09,
1.372,0.84,1.92,-0.68,-1.16,-0.34,0.13,
1.372,0.84,1.92,-0.68,-1.16,-0.43,0.17,
1.372,1.43,3.73,0.49,-1.16,-0.43,0.17,
1.373,1.43,3.73,0.49,-1.16,-0.49,0.22,
1.377,1.03,2.80,0.94,-1.16,-0.49,0.22,
1.378,1.03,2.80,0.94,-1.14,-0.51,0.24,
1.378,1.03,2.80,0.94,-1.12,-0.52,0.22,
1.384,1.03,2.80,0.94,-1.13,-0.50,0.15,
1.384,1.15,-0.21,1.39,-1.13,-0.50,0.15,
1.385,1.15,-0.21,1.39,-1.16,-0.49,0.07,
1.385,1.15,-0.21,1.39,-1.19,-0.48,-0.02,
1.385,0.59,-1.62,2.01,-1.19,-0.48,-0.02,
1.388,0.59,-1.62,2.01,-1.21,-0.47,-0.12,
1.39,0.59,-1.62,2.01,-1.22,-0.43,-0.19,
1.391,-0.81,-1.45,2.52,-1.22,-0.43,-0.19,
1.393,-0.81,-1.45,2.52,-1.22,-0.37,-0.26,
1.394,-0.81,-1.45,2.52,-1.21,-0.29,-0.31,
1.395,-2.05,-0.59,2.66,-1.21,-0.29,-0.31,
1.396,-2.05,-0.59,2.66,-1.19,-0.20,-0.35,
1.4,-2.05,-0.59,2.66,-1.16,-0.12,-0.39,
1.4,-1.95,0.78,2.37,-1.16,-0.12,-0.39,
1.401,-1.95,0.78,2.37,-1.12,-0.05,-0.44,
1.404,-1.95,0.78,2.37,-1.08,0.01,-0.47,
1.404,-2.55,0.59,1.65,-1.08,0.01,-0.47,
1.406,-2.55,0.59,1.65,-1.05,0.04,-0.46,
1.41,-2.55,0.59,1.65,-1.02,0.04,-0.42,
1.411,-2.55,0.59,1.65,-0.99,0.02,-0.36,
1.414,-2.55,0.59,1.65,-0.98,-0.01,-0.29,
1.414,-3.61,-0.42,0.38,-0.98,-0.01,-0.29,
1.414,-3.48,0.42,-0.77,-0.98,-0.01,-0.29,
1.416,-3.48,0.42,-0.77,-0.96,-0.06,-0.21,
1.419,-3.48,0.42,-0.77,-0.95,-0.10,-0.12,
1.419,-3.66,1.35,-1.17,-0.95,-0.10,-0.12,
1.421,-3.66,1.35,-1.17,-0.93,-0.13,-0.01,
1.426,-3.66,1.35,-1.17,-0.91,-0.16,0.13,
1.452,-4.76,2.23,-1.00,-0.91,-0.16,0.13,
1.453,-4.76,2.23,-1.00,-0.88,-0.20,0.26,
1.453,-4.76,2.23,-1.00,-0.84,-0.25,0.41,
1.453,-5.01,2.46,-0.81,-0.84,-0.25,0.41,
1.454,-5.01,2.46,-0.81,-0.81,-0.30,0.58,
1.454,-5.01,2.46,-0.81,-0.78,-0.32,0.83,
1.454,-8.91,3.67,-1.41,-0.78,-0.32,0.83,
1.455,-8.91,3.67,-1.41,-0.81,-0.27,1.11,
1.455,-8.91,3.67,-1.41,-0.88,-0.16,1.36,
1.456,-8.91,3.67,-1.41,-1.01,-0.02,1.67,
1.456,-9.96,5.95,-4.18,-1.01,-0.02,1.67,
1.457,-9.96,5.95,-4.18,-1.18,0.16,1.90,
1.458,-7.56,7.58,-7.12,-1.18,0.16,1.90,
1.458,-7.56,7.58,-7.12,-1.35,0.31,1.96,
1.459,-7.56,7.58,-7.12,-1.54,0.43,1.86,
1.46,-0.56,3.01,-6.73,-1.54,0.43,1.86,
1.46,-0.56,3.01,-6.73,-1.63,0.40,1.76,
1.461,-0.56,3.01,-6.73,-1.62,0.27,1.74,
1.461,-3.61,-1.00,-1.35,-1.62,0.27,1.74,
1.462,-3.61,-1.00,-1.35,-1.56,0.09,1.75,
1.462,-3.61,-1.00,-1.35,-1.42,-0.08,1.79,
1.462,-3.41,-1.97,2.77,-1.42,-0.08,1.79,
1.463,-3.41,-1.97,2.77,-1.24,-0.28,1.81,
1.465,-3.41,-1.97,2.77,-1.04,-0.45,1.81,
1.466,-1.72,-1.58,5.18,-1.04,-0.45,1.81,
1.466,-1.72,-1.58,5.18,-0.84,-0.59,1.77,
1.469,-1.72,-1.58,5.18,-0.65,-0.68,1.72,
1.469,-1.00,-1.21,5.56,-0.65,-0.68,1.72,
1.471,-1.00,-1.21,5.56,-0.50,-0.73,1.67,
1.475,-1.00,-1.21,5.56,-0.37,-0.75,1.63,
1.476,-0.84,-1.37,4.98,-0.37,-0.75,1.63,
1.476,-0.84,-1.37,4.98,-0.25,-0.75,1.59,
1.481,-0.84,-1.37,4.98,-0.14,-0.76,1.57,
1.481,-0.72,-1.41,4.33,-0.14,-0.76,1.57,
1.481,-0.72,-1.41,4.33,-0.04,-0.75,1.54,
1.483,-0.72,-1.41,4.33,0.06,-0.73,1.52,
1.484,-0.26,-1.04,3.94,0.06,-0.73,1.52,
1.486,-0.26,-1.04,3.94,0.16,-0.71,1.48,
1.488,-0.26,-1.04,3.94,0.26,-0.66,1.44,
1.488,0.46,-0.62,3.51,0.26,-0.66,1.44,
1.491,0.46,-0.62,3.51,0.34,-0.60,1.39,
1.495,0.57,-0.35,3.01,0.34,-0.60,1.39,
1.495,0.57,-0.35,3.01,0.43,-0.53,1.36,
1.497,0.57,-0.35,3.01,0.51,-0.44,1.34,
1.498,0.57,-0.35,3.01,0.60,-0.34,1.33,
1.499,0.23,0.16,2.85,0.60,-0.34,1.33,
1.5,0.23,0.16,2.85,0.68,-0.25,1.34,
1.504,0.23,0.16,2.85,0.75,-0.17,1.35,
1.504,0.36,0.39,2.35,0.75,-0.17,1.35,
1.506,0.36,0.39,2.35,0.82,-0.09,1.36,
1.509,0.36,0.39,2.35,0.85,-0.04,1.37,
1.509,0.94,0.43,1.29,0.85,-0.04,1.37,
1.511,0.94,0.43,1.29,0.87,0.01,1.36,
1.513,0.94,0.43,1.29,0.88,0.05,1.34,
1.513,2.05,0.27,0.23,0.88,0.05,1.34,
1.516,2.05,0.27,0.23,0.87,0.09,1.31,
1.518,3.11,0.20,-0.48,0.87,0.09,1.31,
1.518,3.11,0.20,-0.48,0.86,0.13,1.27,
1.52,3.11,0.20,-0.48,0.83,0.15,1.22,
1.523,3.11,0.20,-0.48,0.79,0.17,1.17,
1.523,4.09,0.00,-1.49,0.79,0.17,1.17,
1.527,4.09,0.00,-1.49,0.73,0.19,1.11,
1.528,4.09,0.00,-1.49,0.67,0.21,1.04,
1.529,5.17,-0.10,-2.40,0.67,0.21,1.04,
1.531,5.17,-0.10,-2.40,0.59,0.22,0.97,
1.533,5.90,0.09,-3.49,0.59,0.22,0.97,
1.533,5.90,0.09,-3.49,0.50,0.25,0.89,
1.536,5.90,0.09,-3.49,0.40,0.28,0.81,
1.538,7.05,0.19,-4.49,0.40,0.28,0.81,
1.538,7.05,0.19,-4.49,0.30,0.30,0.73,
1.55,7.05,0.19,-4.49,0.17,0.33,0.63,
1.551,7.69,0.17,-5.31,0.17,0.33,0.63,
1.551,7.69,0.17,-5.31,0.05,0.36,0.53,
1.552,7.69,0.17,-5.31,-0.08,0.39,0.44,
1.552,7.41,0.31,-5.55,-0.08,0.39,0.44,
1.552,7.41,0.31,-5.55,-0.21,0.43,0.34,
1.553,7.41,0.31,-5.55,-0.33,0.46,0.25,
1.553,7.41,0.31,-5.55,-0.45,0.49,0.16,
1.554,6.54,0.11,-4.98,-0.45,0.49,0.16,
1.555,6.54,0.11,-4.98,-0.54,0.50,0.08,
1.558,5.68,0.40,-3.97,-0.54,0.50,0.08,
1.558,5.68,0.40,-3.97,-0.62,0.51,0.01,
1.561,5.68,0.40,-3.97,-0.67,0.49,-0.06,
1.563,5.68,0.40,-3.97,-0.72,0.46,-0.13,
1.563,5.48,0.81,-3.15,-0.72,0.46,-0.13,
1.565,5.48,0.81,-3.15,-0.74,0.43,-0.19,
1.568,5.48,0.81,-3.15,-0.76,0.39,-0.27,
1.568,5.52,0.75,-2.65,-0.76,0.39,-0.27,
1.571,5.52,0.75,-2.65,-0.77,0.34,-0.35,
1.573,5.52,0.75,-2.65,-0.78,0.27,-0.45,
1.573,6.12,0.35,-2.52,-0.78,0.27,-0.45,
1.577,6.12,0.35,-2.52,-0.78,0.18,-0.56,
1.578,6.12,0.35,-2.52,-0.78,0.09,-0.69,
1.581,7.28,-0.04,-2.76,-0.78,0.09,-0.69,
1.582,7.28,-0.04,-2.76,-0.80,0.02,-0.84,
1.583,7.76,-0.60,-3.35,-0.80,0.02,-0.84,
1.583,7.76,-0.60,-3.35,-0.83,0.01,-1.01,
1.585,7.76,-0.60,-3.35,-0.88,0.05,-1.17,
1.587,7.76,-0.60,-3.35,-0.94,0.09,-1.34,
1.588,7.29,-1.43,-3.54,-0.94,0.09,-1.34,
1.621,7.29,-1.43,-3.54,-0.98,0.11,-1.47,
1.621,7.07,-1.67,-3.76,-0.98,0.11,-1.47,
1.622,7.07,-1.67,-3.76,-1.02,0.05,-1.63,
1.622,7.07,-1.67,-3.76,-1.08,0.13,-1.79,
1.623,6.81,-1.72,-3.89,-1.08,0.13,-1.79,
1.623,6.81,-1.72,-3.89,-1.13,0.06,-1.93,
1.624,6.81,-1.72,-3.89,-1.21,0.07,-2.11,
1.624,5.82,-2.33,-4.27,-1.21,0.07,-2.11,
1.625,5.82,-2.33,-4.27,-1.30,0.04,-2.22,
1.625,5.82,-2.33,-4.27,-1.40,-0.04,-2.34,
1.626,5.82,-2.33,-4.27,-1.52,-0.10,-2.46,
1.626,5.15,-1.83,-4.67,-1.52,-0.10,-2.46,
1.627,5.15,-1.83,-4.67,-1.65,-0.11,-2.56,
1.627,4.03,-1.78,-4.45,-1.65,-0.11,-2.56,
1.628,4.03,-1.78,-4.45,-1.79,-0.14,-2.65,
1.628,4.03,-1.78,-4.45,-1.94,-0.16,-2.72,
1.629,2.45,-1.99,-3.99,-1.94,-0.16,-2.72,
1.629,2.45,-1.99,-3.99,-2.08,-0.17,-2.78,
1.629,2.45,-1.99,-3.99,-2.21,-0.17,-2.82,
1.63,0.67,-1.61,-2.61,-2.21,-0.17,-2.82,
1.63,0.67,-1.61,-2.61,-2.31,-0.16,-2.84,
1.63,0.67,-1.61,-2.61,-2.39,-0.12,-2.84,
1.63,0.67,-1.61,-2.61,-2.44,-0.01,-2.84,
1.631,-0.32,-0.26,-1.16,-2.44,-0.01,-2.84,
1.631,-0.32,-0.26,-1.16,-2.47,0.12,-2.85,
1.633,-0.32,-0.26,-1.16,-2.47,0.21,-2.86,
1.634,-0.37,1.07,1.20,-2.47,0.21,-2.86,
1.635,-0.37,1.07,1.20,-2.45,0.24,-2.90,
1.637,-0.37,1.07,1.20,-2.40,0.28,-2.91,
1.637,-0.77,1.72,3.83,-2.40,0.28,-2.91,
1.641,-0.77,1.72,3.83,-2.32,0.33,-2.92,
1.643,-0.77,1.72,3.83,-2.21,0.40,-2.93,
1.644,-0.94,2.36,5.04,-2.21,0.40,-2.93,
1.644,-0.94,2.36,5.04,-2.10,0.48,-2.93,
1.648,-0.94,2.36,5.04,-1.96,0.60,-2.94,
1.648,-0.75,2.45,5.55,-1.96,0.60,-2.94,
1.649,-0.75,2.45,5.55,-1.80,0.73,-2.97,
1.652,-0.75,2.45,5.55,-1.65,0.88,-2.99,
1.652,-1.15,1.52,5.66,-1.65,0.88,-2.99,
1.654,-1.15,1.52,5.66,-1.51,1.02,-3.02,
1.657,-1.15,1.52,5.66,-1.35,1.14,-3.08,
1.657,0.29,0.83,6.00,-1.35,1.14,-3.08,
1.661,0.29,0.83,6.00,-1.19,1.26,-3.16,
1.662,0.29,0.83,6.00,-1.04,1.38,-3.25,
1.662,1.04,0.46,5.56,-1.04,1.38,-3.25,
1.667,1.04,0.46,5.56,-0.90,1.50,-3.35,
1.667,1.04,0.46,5.56,-0.76,1.57,-3.46,
1.668,1.79,-0.48,6.06,-0.76,1.57,-3.46,
1.67,1.79,-0.48,6.06,-0.61,1.62,-3.59,
1.672,1.79,-0.48,6.06,-0.50,1.75,-3.70,
1.672,1.82,-0.47,4.45,-0.50,1.75,-3.70,
1.682,1.82,-0.47,4.45,-0.40,1.89,-3.80,
1.682,-11.40,-0.56,0.09,-0.40,1.89,-3.80,
1.683,-11.40,-0.56,0.09,-0.30,2.03,-3.90,
1.683,-11.40,-0.56,0.09,-0.45,2.74,-2.90,
1.683,-11.40,-0.56,0.09,-0.51,3.04,-2.31,
1.683,-10.22,-1.28,1.25,-0.51,3.04,-2.31,
1.687,-4.50,-1.73,1.02,-0.51,3.04,-2.31,
1.688,-4.50,-1.73,1.02,-0.40,3.00,-2.45,
1.688,-4.50,-1.73,1.02,-0.37,3.11,-2.44,
1.689,-4.50,-1.73,1.02,-0.42,3.37,-2.16,
1.692,-4.50,-1.73,1.02,-0.44,3.57,-1.86,
1.692,-9.76,-2.24,0.08,-0.44,3.57,-1.86,
1.694,-9.76,-2.24,0.08,-0.45,3.72,-1.57,
1.696,-9.76,-2.24,0.08,-0.46,3.88,-1.28,
1.697,-8.60,-1.54,-0.20,-0.46,3.88,-1.28,
1.699,-8.60,-1.54,-0.20,-0.49,3.99,-0.97,
1.702,-8.60,-1.54,-0.20,-0.52,4.03,-0.65,
1.702,-7.89,-0.25,0.11,-0.52,4.03,-0.65,
1.704,-7.89,-0.25,0.11,-0.54,4.03,-0.35,
1.706,-7.89,-0.25,0.11,-0.52,3.98,-0.07,
1.707,-6.48,-0.55,1.21,-0.52,3.98,-0.07,
1.71,-6.48,-0.55,1.21,-0.47,3.86,0.17,
1.711,-4.18,-0.82,2.43,-0.47,3.86,0.17,
1.712,-4.18,-0.82,2.43,-0.39,3.67,0.39,
1.717,-4.18,-0.82,2.43,-0.28,3.42,0.55,
1.717,-4.18,-0.82,2.43,-0.17,3.13,0.68,
1.717,-2.52,-1.58,2.69,-0.17,3.13,0.68,
1.719,-2.52,-1.58,2.69,-0.03,2.81,0.78,
1.722,-2.52,-1.58,2.69,0.12,2.45,0.84,
1.722,-1.44,-2.26,3.00,0.12,2.45,0.84,
1.724,-1.44,-2.26,3.00,0.28,2.06,0.88,
1.73,-1.44,-2.26,3.00,0.46,1.64,0.90,
1.731,-0.57,-2.56,3.16,0.46,1.64,0.90,
1.731,-0.57,-2.56,3.16,0.66,1.17,0.90,
1.732,-0.57,-2.56,3.16,0.86,0.68,0.88,
1.733,0.59,-2.39,3.05,0.86,0.68,0.88,
1.737,0.59,-2.39,3.05,1.05,0.20,0.85,
1.737,0.59,-2.39,3.05,1.25,-0.25,0.82,
1.737,0.89,-2.56,2.01,1.25,-0.25,0.82,
1.739,0.89,-2.56,2.01,1.42,-0.66,0.78,
1.76,0.89,-2.56,2.01,1.60,-1.05,0.71,
1.761,0.89,-2.56,2.01,1.77,-1.42,0.62,
1.761,2.25,-2.12,1.79,1.77,-1.42,0.62,
1.761,2.25,-2.12,1.79,1.93,-1.73,0.50,
1.761,3.49,-1.67,1.36,1.93,-1.73,0.50,
1.762,3.49,-1.67,1.36,2.08,-1.94,0.38,
1.762,3.49,-1.67,1.36,2.20,-2.07,0.24,
1.762,4.24,-1.36,0.12,2.20,-2.07,0.24,
1.762,4.24,-1.36,0.12,2.31,-2.17,0.08,
1.779,4.24,-1.36,0.12,2.42,-2.26,-0.12,
1.78,6.10,-0.62,-0.01,2.42,-2.26,-0.12,
1.78,6.10,-0.62,-0.01,2.51,-2.32,-0.34,
1.78,7.30,-0.22,-0.55,2.51,-2.32,-0.34,
1.78,7.30,-0.22,-0.55,2.59,-2.34,-0.59,
1.78,7.30,-0.22,-0.55,2.65,-2.33,-0.86,
1.78,7.30,-0.22,-0.55,2.69,-2.28,-1.15,
1.781,7.49,-0.06,-1.50,2.69,-2.28,-1.15,
1.781,7.49,-0.06,-1.50,2.70,-2.19,-1.44,
1.781,7.49,-0.06,-1.50,2.69,-2.10,-1.74,
1.781,7.60,0.42,-2.38,2.69,-2.10,-1.74,
1.781,7.60,0.42,-2.38,2.65,-1.99,-2.05,
1.782,-12.69,1.01,-5.78,2.65,-1.99,-2.05,
1.782,-12.69,1.01,-5.78,2.54,-1.81,-2.09,
1.782,-12.69,1.01,-5.78,2.35,-1.48,-1.26,
1.782,-12.69,1.01,-5.78,2.19,-1.39,-0.90,
1.783,-7.15,-0.21,-4.43,2.19,-1.39,-0.90,
1.784,-7.15,-0.21,-4.43,2.02,-1.28,-1.09,
1.786,-2.04,0.05,-4.77,2.02,-1.28,-1.09,
1.786,-2.04,0.05,-4.77,1.83,-1.19,-1.23,
1.79,-2.04,0.05,-4.77,1.68,-1.19,-1.06,
1.791,-2.04,0.05,-4.77,1.58,-1.25,-0.87,
1.792,-7.60,-0.59,-2.17,1.58,-1.25,-0.87,
1.794,-7.60,-0.59,-2.17,1.48,-1.32,-0.85,
1.796,-1.56,-0.51,-2.43,1.48,-1.32,-0.85,
1.796,-1.56,-0.51,-2.43,1.36,-1.39,-0.95,
1.798,-1.56,-0.51,-2.43,1.23,-1.43,-1.00,
1.801,-1.56,-0.51,-2.43,1.11,-1.51,-1.05,
1.801,-2.09,-0.99,-1.55,1.11,-1.51,-1.05,
1.803,-2.09,-0.99,-1.55,1.02,-1.63,-1.19,
1.805,-2.09,-0.99,-1.55,0.92,-1.74,-1.38,
1.806,1.03,-0.76,-0.96,0.92,-1.74,-1.38,
1.808,1.03,-0.76,-0.96,0.84,-1.84,-1.59,
1.812,1.03,-0.76,-0.96,0.75,-1.92,-1.79,
1.812,0.11,-1.35,-0.61,0.75,-1.92,-1.79,
1.813,0.11,-1.35,-0.61,0.68,-2.01,-1.99,
1.816,0.11,-1.35,-0.61,0.62,-2.12,-2.20,
1.816,0.58,-0.84,0.15,0.62,-2.12,-2.20,
1.818,0.58,-0.84,0.15,0.56,-2.24,-2.42,
1.821,0.99,0.35,0.42,0.56,-2.24,-2.42,
1.821,0.99,0.35,0.42,0.51,-2.35,-2.60,
1.824,0.99,0.35,0.42,0.47,-2.40,-2.77,
1.827,1.37,0.57,0.15,0.47,-2.40,-2.77,
1.829,1.37,0.57,0.15,0.46,-2.41,-2.93,
1.83,1.37,0.57,0.15,0.41,-2.36,-3.06,
1.832,1.37,0.57,0.15,0.33,-2.24,-3.14,
1.833,2.27,0.80,-0.89,0.33,-2.24,-3.14,
1.833,2.27,0.80,-0.89,0.23,-2.13,-3.17,
1.836,2.27,0.80,-0.89,0.17,-2.11,-3.14,
1.837,0.60,0.07,1.63,0.17,-2.11,-3.14,
1.839,0.60,0.07,1.63,0.11,-2.09,-3.14,
1.841,0.60,0.07,1.63,0.01,-1.96,-3.17,
1.841,3.13,-0.20,-0.26,0.01,-1.96,-3.17,
1.844,3.13,-0.20,-0.26,-0.11,-1.80,-3.23,
1.846,4.15,-0.64,0.18,-0.11,-1.80,-3.23,
1.846,4.15,-0.64,0.18,-0.19,-1.65,-3.32,
1.849,4.15,-0.64,0.18,-0.26,-1.50,-3.44,
1.85,4.15,-0.64,0.18,-0.31,-1.31,-3.60,
1.851,4.85,-0.84,-0.35,-0.31,-1.31,-3.60,
1.853,4.85,-0.84,-0.35,-0.34,-1.13,-3.80,
1.856,4.85,-0.84,-0.35,-0.34,-0.99,-4.03,
1.856,4.86,-0.88,-0.25,-0.34,-0.99,-4.03,
1.865,4.86,-0.88,-0.25,-0.31,-0.90,-4.29,
1.866,4.86,-0.88,-0.25,-0.25,-0.90,-4.55,
1.866,4.32,-0.85,0.07,-0.25,-0.90,-4.55,
1.866,4.32,-0.85,0.07,-0.22,-0.91,-4.79,
1.866,3.19,0.29,-0.91,-0.22,-0.91,-4.79,
1.867,3.19,0.29,-0.91,-0.20,-0.89,-4.98,
1.869,3.19,0.29,-0.91,-0.16,-0.90,-5.11,
1.87,3.19,0.29,-0.91,-0.10,-0.91,-5.20,
1.871,1.67,1.26,-0.43,-0.10,-0.91,-5.20,
1.872,1.67,1.26,-0.43,-0.04,-0.91,-5.26,
1.876,0.37,1.95,-0.52,-0.04,-0.91,-5.26,
1.876,0.37,1.95,-0.52,0.04,-0.88,-5.30,
1.879,0.37,1.95,-0.52,0.11,-0.84,-5.34,
1.884,-1.15,2.21,-0.88,0.11,-0.84,-5.34,
1.884,-1.15,2.21,-0.88,0.18,-0.78,-5.38,
1.885,-1.15,2.21,-0.88,0.24,-0.69,-5.41,
1.885,-2.69,1.98,-1.46,0.24,-0.69,-5.41,
1.885,-2.69,1.98,-1.46,0.27,-0.59,-5.46,
1.887,-2.69,1.98,-1.46,0.29,-0.49,-5.46,
1.89,-16.56,-1.12,2.71,0.29,-0.49,-5.46,
1.891,-16.56,-1.12,2.71,0.40,-0.58,-5.17,
1.893,-16.56,-1.12,2.71,0.52,-0.73,-4.80,
1.895,-7.81,-1.69,-4.61,0.52,-0.73,-4.80,
1.895,-7.81,-1.69,-4.61,0.45,-0.54,-4.69,
1.897,-7.81,-1.69,-4.61,0.31,-0.26,-4.74,
1.9,-7.81,-1.69,-4.61,0.30,-0.19,-4.78,
1.9,-6.70,-3.65,-0.36,0.30,-0.19,-4.78,
1.902,-6.70,-3.65,-0.36,0.31,-0.14,-4.77,
1.905,-6.70,-3.65,-0.36,0.20,0.03,-4.77,
1.905,-6.39,-4.76,-2.66,0.20,0.03,-4.77,
1.907,-6.39,-4.76,-2.66,0.14,0.15,-4.79,
1.91,-5.84,-3.87,0.13,0.14,0.15,-4.79,
1.911,-5.84,-3.87,0.13,0.12,0.18,-4.79,
1.912,-5.84,-3.87,0.13,0.09,0.22,-4.78,
1.915,-5.84,-3.87,0.13,0.04,0.23,-4.79,
1.915,-4.00,-1.25,0.10,0.04,0.23,-4.79,
1.917,-4.00,-1.25,0.10,-0.00,0.19,-4.80,
1.92,-4.00,-1.25,0.10,-0.03,0.15,-4.81,
1.946,-2.38,0.44,0.49,-0.03,0.15,-4.81,
1.946,-2.38,0.44,0.49,-0.06,0.13,-4.81,
1.947,-1.32,1.61,-0.06,-0.06,0.13,-4.81,
1.947,-1.32,1.61,-0.06,-0.09,0.12,-4.80,
1.947,-1.32,1.61,-0.06,-0.13,0.07,-4.77,
1.948,-1.15,2.44,-0.15,-0.13,0.07,-4.77,
1.948,-1.15,2.44,-0.15,-0.16,-0.00,-4.70,
1.948,-1.15,2.44,-0.15,-0.19,-0.06,-4.62,
1.95,-0.28,2.16,-0.18,-0.19,-0.06,-4.62,
1.95,-0.28,2.16,-0.18,-0.21,-0.11,-4.52,
1.95,-0.28,2.16,-0.18,-0.23,-0.13,-4.40,
1.951,-0.28,2.16,-0.18,-0.23,-0.14,-4.23,
1.962,0.11,1.71,-0.22,-0.23,-0.14,-4.23,
1.963,0.11,1.71,-0.22,-0.24,-0.14,-4.02,
1.963,0.11,1.71,-0.22,-0.23,-0.10,-3.79,
1.964,0.52,0.66,-0.53,-0.23,-0.10,-3.79,
1.964,0.52,0.66,-0.53,-0.20,-0.06,-3.55,
1.964,1.26,-0.04,-0.05,-0.20,-0.06,-3.55,
1.965,1.26,-0.04,-0.05,-0.17,-0.08,-3.32,
1.965,1.26,-0.04,-0.05,-0.14,-0.14,-3.11,
1.966,2.47,0.07,1.11,-0.14,-0.14,-3.11,
1.966,2.47,0.07,1.11,-0.11,-0.25,-2.90,
1.966,2.47,0.07,1.11,-0.05,-0.42,-2.72,
1.967,3.33,0.70,1.62,-0.05,-0.42,-2.72,
1.967,3.33,0.70,1.62,0.01,-0.61,-2.56,
1.968,3.33,0.70,1.62,0.05,-0.77,-2.39,
1.968,3.23,0.38,0.69,0.05,-0.77,-2.39,
1.968,3.23,0.38,0.69,0.07,-0.90,-2.23,
1.969,3.23,0.38,0.69,0.06,-0.99,-2.07,
1.975,3.23,0.38,0.69,0.03,-1.08,-1.91,
1.978,3.28,0.61,-0.17,0.03,-1.08,-1.91,
1.979,3.28,0.61,-0.17,0.01,-1.17,-1.76,
1.979,2.68,0.68,-0.64,0.01,-1.17,-1.76,
1.979,2.68,0.68,-0.64,-0.02,-1.23,-1.61,
1.979,2.68,0.68,-0.64,-0.08,-1.24,-1.46,
1.98,2.09,1.19,-1.60,-0.08,-1.24,-1.46,
1.98,2.09,1.19,-1.60,-0.16,-1.21,-1.33,
1.982,2.09,1.19,-1.60,-0.21,-1.21,-1.20,
1.986,1.37,1.37,-0.48,-0.21,-1.21,-1.20,
1.986,1.37,1.37,-0.48,-0.24,-1.24,-1.08,
1.986,1.37,1.37,-0.48,-0.26,-1.25,-0.97,
1.991,1.27,1.12,-0.39,-0.26,-1.25,-0.97,
1.991,1.27,1.12,-0.39,-0.27,-1.23,-0.89,
2.008,1.27,1.12,-0.39,-0.27,-1.20,-0.82,
2.008,1.27,1.12,-0.39,-0.24,-1.17,-0.76,
2.008,1.23,1.10,0.08,-0.24,-1.17,-0.76,
2.008,1.23,1.10,0.08,-0.20,-1.13,-0.70,
2.009,1.23,1.10,0.08,-0.15,-1.09,-0.65,
2.009,0.79,0.45,0.43,-0.15,-1.09,-0.65,
2.009,0.79,0.45,0.43,-0.11,-1.03,-0.59,
2.01,0.66,0.14,0.01,-0.11,-1.03,-0.59,
2.01,0.66,0.14,0.01,-0.07,-0.95,-0.52,
2.01,0.66,0.14,0.01,-0.03,-0.89,-0.46,
2.011,0.66,0.14,0.01,0.02,-0.85,-0.41,
2.011,0.76,-0.48,0.32,0.02,-0.85,-0.41,
2.011,0.76,-0.48,0.32,0.05,-0.81,-0.34,
2.014,0.45,-0.23,0.32,0.05,-0.81,-0.34,
2.014,0.45,-0.23,0.32,0.10,-0.76,-0.28,
2.016,0.45,-0.23,0.32,0.16,-0.68,-0.22,
2.019,0.72,0.29,0.41,0.16,-0.68,-0.22,
2.019,0.72,0.29,0.41,0.23,-0.55,-0.18,
2.021,0.72,0.29,0.41,0.32,-0.39,-0.13,
2.024,0.70,0.23,0.49,0.32,-0.39,-0.13,
2.024,0.70,0.23,0.49,0.44,-0.20,-0.08,
2.026,0.70,0.23,0.49,0.57,0.02,-0.02,
2.029,1.12,0.56,-0.07,0.57,0.02,-0.02,
2.03,1.12,0.56,-0.07,0.70,0.27,0.03,
2.031,1.12,0.56,-0.07,0.84,0.48,0.09,
2.034,1.12,0.56,-0.07,0.96,0.63,0.14,
2.034,1.31,0.94,0.25,0.96,0.63,0.14,
2.036,1.31,0.94,0.25,1.06,0.70,0.19,
2.038,1.31,0.94,0.25,1.11,0.66,0.24,
2.039,1.10,0.77,0.44,1.11,0.66,0.24,
2.041,1.10,0.77,0.44,1.12,0.51,0.27,
2.045,0.52,0.22,0.17,1.12,0.51,0.27,
2.045,0.52,0.22,0.17,1.09,0.31,0.30,
2.048,0.52,0.22,0.17,1.04,0.13,0.32,
2.049,0.52,0.22,0.17,0.99,0.01,0.34,
2.049,0.17,0.77,-0.36,0.99,0.01,0.34,
2.051,0.17,0.77,-0.36,0.97,-0.05,0.36,
2.054,0.17,0.77,-0.36,0.97,-0.01,0.39,
2.054,-0.22,0.55,-0.52,0.97,-0.01,0.39,
2.056,-0.22,0.55,-0.52,1.01,0.09,0.42,
2.062,-0.22,0.55,-0.52,1.08,0.22,0.46,
2.063,-0.26,0.65,-0.07,1.08,0.22,0.46,
2.064,-0.26,0.65,-0.07,1.15,0.37,0.50,
2.064,-0.26,0.65,-0.07,1.23,0.53,0.54,
2.064,-0.40,0.38,-0.22,1.23,0.53,0.54,
2.066,-0.40,0.38,-0.22,1.32,0.69,0.57,
2.07,-0.40,0.38,-0.22,1.40,0.83,0.61,
2.07,-0.09,1.07,-0.18,1.40,0.83,0.61,
2.073,-0.09,1.07,-0.18,1.49,0.95,0.64,
2.074,-0.09,1.07,-0.18,1.57,1.06,0.68,
2.074,0.08,1.39,-0.39,1.57,1.06,0.68,
2.077,0.08,1.39,-0.39,1.65,1.16,0.72,
2.078,0.08,1.39,-0.39,1.71,1.26,0.75,
2.079,0.27,1.36,-0.43,1.71,1.26,0.75,
2.082,0.27,1.36,-0.43,1.78,1.31,0.78,
2.083,0.27,1.36,-0.43,1.84,1.33,0.81,
2.083,0.34,1.82,-0.31,1.84,1.33,0.81,
2.108,0.34,1.82,-0.31,1.88,1.33,0.84,
2.108,0.34,1.82,-0.31,1.95,1.26,0.87,
2.108,0.22,2.04,0.29,1.95,1.26,0.87,
2.109,0.22,2.04,0.29,1.98,1.21,0.90,
2.109,0.22,2.04,0.29,2.00,1.19,0.95,
2.11,-0.33,2.62,-1.01,2.00,1.19,0.95,
2.111,-0.33,2.62,-1.01,2.01,1.15,1.00,
2.111,-0.33,2.62,-1.01,2.00,1.13,1.05,
2.112,-0.50,2.94,-1.46,2.00,1.13,1.05,
2.112,-0.50,2.94,-1.46,2.00,1.12,1.11,
2.112,-0.50,2.94,-1.46,2.02,1.11,1.17,
2.113,-0.44,2.50,-0.70,2.02,1.11,1.17,
2.113,-0.44,2.50,-0.70,2.04,1.09,1.22,
2.113,-0.44,2.50,-0.70,2.06,1.06,1.27,
2.114,-0.16,2.68,-0.37,2.06,1.06,1.27,
2.114,-0.16,2.68,-0.37,2.08,1.01,1.31,
2.114,-0.16,2.68,-0.37,2.11,0.95,1.35,
2.115,0.03,1.94,0.00,2.11,0.95,1.35,
2.115,0.03,1.94,0.00,2.13,0.87,1.38,
2.118,0.03,1.94,0.00,2.13,0.78,1.42,
2.119,-0.18,1.62,-0.30,2.13,0.78,1.42,
2.12,-0.18,1.62,-0.30,2.14,0.66,1.45,
2.123,-0.18,1.62,-0.30,2.14,0.51,1.48,
2.123,-0.44,0.98,-0.25,2.14,0.51,1.48,
2.133,-0.44,0.98,-0.25,2.13,0.34,1.51,
2.134,-0.99,0.30,-0.34,2.13,0.34,1.51,
2.135,-0.99,0.30,-0.34,2.11,0.15,1.54,
2.135,-0.99,0.30,-0.34,2.09,-0.06,1.58,
2.137,-0.99,0.30,-0.34,2.05,-0.26,1.62,
2.137,-0.99,0.30,-0.34,1.99,-0.42,1.65,
2.138,-1.27,0.07,-0.82,1.99,-0.42,1.65,
2.138,-1.27,0.07,-0.82,1.94,-0.56,1.69,
2.138,-1.39,-0.08,-1.04,1.94,-0.56,1.69,
2.14,-1.39,-0.08,-1.04,1.90,-0.71,1.73,
2.144,-1.52,-0.15,-0.64,1.90,-0.71,1.73,
2.144,-1.52,-0.15,-0.64,1.86,-0.84,1.77,
2.145,-1.52,-0.15,-0.64,1.82,-0.92,1.80,
2.147,-1.52,-0.15,-0.64,1.79,-0.94,1.83,
2.148,-1.45,0.08,-0.44,1.79,-0.94,1.83,
2.15,-1.45,0.08,-0.44,1.78,-0.94,1.88,
2.152,-1.45,0.08,-0.44,1.79,-0.92,1.92,
2.152,-1.44,0.01,-0.03,1.79,-0.92,1.92,
2.156,-1.44,0.01,-0.03,1.78,-0.88,1.95,
2.158,-1.44,0.01,-0.03,1.79,-0.83,1.97,
2.158,-1.18,0.26,0.08,1.79,-0.83,1.97,
2.161,-1.18,0.26,0.08,1.79,-0.76,2.00,
2.163,-1.52,0.21,0.21,1.79,-0.76,2.00,
2.163,-1.52,0.21,0.21,1.79,-0.65,2.03,
2.165,-1.52,0.21,0.21,1.81,-0.49,2.08,
2.168,-1.52,0.21,0.21,1.80,-0.26,2.12,
2.168,-1.38,0.78,-0.25,1.80,-0.26,2.12,
2.17,-1.38,0.78,-0.25,1.79,-0.02,2.16,
2.173,-1.38,0.78,-0.25,1.78,0.20,2.17,
2.173,-0.58,0.78,0.02,1.78,0.20,2.17,
2.175,-0.58,0.78,0.02,1.75,0.35,2.18,
2.178,-0.27,0.87,-0.06,1.75,0.35,2.18,
2.178,-0.27,0.87,-0.06,1.72,0.45,2.17,
2.18,-0.27,0.87,-0.06,1.64,0.51,2.16,
2.182,-0.27,0.87,-0.06,1.57,0.51,2.15,
2.183,-0.28,0.84,-0.40,1.57,0.51,2.15,
2.185,-0.28,0.84,-0.40,1.48,0.49,2.15,
2.187,-0.28,0.84,-0.40,1.38,0.46,2.15,
2.187,-0.82,0.79,-0.73,1.38,0.46,2.15,
2.19,-0.82,0.79,-0.73,1.29,0.38,2.16,
2.193,-1.53,0.75,-0.19,1.29,0.38,2.16,
2.194,-1.53,0.75,-0.19,1.22,0.26,2.19,
2.195,-1.53,0.75,-0.19,1.12,0.17,2.22,
2.197,-1.53,0.75,-0.19,1.02,0.04,2.23,
2.198,-1.50,0.78,-0.63,1.02,0.04,2.23,
2.2,-1.50,0.78,-0.63,0.94,-0.09,2.27,
2.202,-1.50,0.78,-0.63,0.86,-0.18,2.33,
2.202,-2.29,0.75,-0.76,0.86,-0.18,2.33,
2.204,-2.29,0.75,-0.76,0.76,-0.25,2.39,
2.207,-2.29,0.75,-0.76,0.68,-0.35,2.45,
2.207,-1.81,0.76,-0.74,0.68,-0.35,2.45,
2.21,-1.81,0.76,-0.74,0.61,-0.48,2.51,
2.212,-1.81,0.76,-0.74,0.55,-0.54,2.58,
2.213,-2.17,0.11,-0.83,0.55,-0.54,2.58,
2.215,-2.17,0.11,-0.83,0.50,-0.54,2.68,
2.217,-2.17,0.11,-0.83,0.48,-0.44,2.80,
2.217,-3.14,-0.92,-0.49,0.48,-0.44,2.80,
2.22,-3.14,-0.92,-0.49,0.43,-0.25,2.90,
2.222,-3.14,-0.92,-0.49,0.39,-0.11,2.98,
2.222,-2.13,-0.91,-1.03,0.39,-0.11,2.98,
2.224,-2.13,-0.91,-1.03,0.41,-0.01,3.04,
2.229,-2.13,-0.91,-1.03,0.45,0.16,3.09,
2.23,-2.57,-1.57,-1.25,0.45,0.16,3.09,
2.23,-2.57,-1.57,-1.25,0.48,0.41,3.11,
2.234,-2.57,-1.57,-1.25,0.55,0.59,3.12,
2.235,-2.97,-2.24,-1.01,0.55,0.59,3.12,
2.236,-2.97,-2.24,-1.01,0.65,0.72,3.10,
2.238,-2.97,-2.24,-1.01,0.72,0.83,3.07,
2.238,-2.85,-2.77,-1.58,0.72,0.83,3.07,
2.24,-2.85,-2.77,-1.58,0.79,0.83,3.01,
2.248,-2.60,-2.86,-1.25,0.79,0.83,3.01,
2.249,-2.60,-2.86,-1.25,0.86,0.78,2.93,
2.249,-2.60,-2.86,-1.25,0.92,0.70,2.85,
2.249,-2.60,-2.86,-1.25,0.97,0.59,2.75,
2.25,-2.28,-2.89,-1.39,0.97,0.59,2.75,
2.25,-2.28,-2.89,-1.39,1.03,0.47,2.66,
2.269,-2.24,-2.45,-1.08,1.03,0.47,2.66,
2.27,-2.24,-2.45,-1.08,1.09,0.32,2.56,
2.27,-2.24,-2.45,-1.08,1.15,0.15,2.47,
2.27,-2.24,-2.45,-1.08,1.23,0.06,2.36,
2.27,-2.35,-1.96,-1.29,1.23,0.06,2.36,
2.271,-2.35,-1.96,-1.29,1.31,0.01,2.25,
2.271,-2.35,-1.96,-1.29,1.39,-0.06,2.14,
2.271,-2.34,-2.09,-1.07,1.39,-0.06,2.14,
2.271,-2.34,-2.09,-1.07,1.47,-0.12,2.02,
2.272,-2.34,-2.09,-1.07,1.52,-0.20,1.90,
2.272,-2.64,-1.63,-0.90,1.52,-0.20,1.90,
2.272,-2.64,-1.63,-0.90,1.52,-0.35,1.73,
2.272,-2.64,-1.63,-0.90,1.51,-0.51,1.54,
2.273,-3.02,-1.54,-0.94,1.51,-0.51,1.54,
2.275,-3.02,-1.54,-0.94,1.49,-0.67,1.33,
2.298,-3.02,-1.54,-0.94,1.47,-0.79,1.11,
2.299,-3.02,-1.54,-0.94,1.42,-0.85,0.89,
2.299,-2.57,-1.08,-0.96,1.42,-0.85,0.89,
2.3,-2.57,-1.08,-0.96,1.36,-0.90,0.69,
2.3,-2.78,-0.42,-1.50,1.36,-0.90,0.69,
2.301,-2.78,-0.42,-1.50,1.29,-0.92,0.50,
2.301,-2.78,-0.42,-1.50,1.22,-0.92,0.34,
2.302,-3.17,0.41,-1.40,1.22,-0.92,0.34,
2.302,-3.17,0.41,-1.40,1.15,-0.89,0.21,
2.303,-3.17,0.41,-1.40,1.07,-0.83,0.10,
2.303,-3.38,0.96,-1.44,1.07,-0.83,0.10,
2.304,-3.38,0.96,-1.44,0.99,-0.76,0.03,
2.304,-3.38,0.96,-1.44,0.91,-0.69,-0.03,
2.305,-3.05,1.27,-1.48,0.91,-0.69,-0.03,
2.305,-3.05,1.27,-1.48,0.83,-0.60,-0.06,
2.306,-2.31,1.36,-1.57,0.83,-0.60,-0.06,
2.306,-2.31,1.36,-1.57,0.75,-0.53,-0.08,
2.307,-2.31,1.36,-1.57,0.69,-0.48,-0.09,
2.307,-2.31,1.36,-1.57,0.63,-0.45,-0.09,
2.307,-1.60,1.38,-1.55,0.63,-0.45,-0.09,
2.316,-1.60,1.38,-1.55,0.57,-0.44,-0.07,
2.317,-1.16,1.33,-1.51,0.57,-0.44,-0.07,
2.317,-1.16,1.33,-1.51,0.53,-0.45,-0.06,
2.318,-1.16,1.33,-1.51,0.49,-0.48,-0.05,
2.319,-1.16,1.33,-1.51,0.45,-0.52,-0.03,
2.319,-0.85,1.23,-1.61,0.45,-0.52,-0.03,
2.319,-0.85,1.23,-1.61,0.43,-0.55,-0.01,
2.322,-0.85,1.23,-1.61,0.41,-0.57,0.01,
2.323,-0.67,1.03,-1.79,0.41,-0.57,0.01,
2.325,-0.67,1.03,-1.79,0.40,-0.58,0.02,
2.326,-0.61,0.93,-1.89,0.40,-0.58,0.02,
2.327,-0.61,0.93,-1.89,0.40,-0.58,0.04,
2.328,-0.61,0.93,-1.89,0.40,-0.58,0.05,
2.331,-0.61,0.93,-1.89,0.40,-0.57,0.06,
2.331,-0.68,0.81,-2.03,0.40,-0.57,0.06,
2.333,-0.68,0.81,-2.03,0.41,-0.55,0.07,
2.336,-0.68,0.81,-2.03,0.42,-0.54,0.08,
2.337,-0.70,0.74,-2.04,0.42,-0.54,0.08,
2.338,-0.70,0.74,-2.04,0.43,-0.53,0.07,
2.341,-0.70,0.74,-2.04,0.44,-0.51,0.07,
2.341,-0.83,0.63,-2.10,0.44,-0.51,0.07,
2.346,-0.83,0.63,-2.10,0.45,-0.50,0.07,
2.346,-0.83,0.63,-2.10,0.46,-0.49,0.07,
2.347,-0.94,0.51,-2.06,0.46,-0.49,0.07,
2.351,-0.94,0.51,-2.06,0.47,-0.48,0.07,
2.351,-0.94,0.51,-2.06,0.47,-0.48,0.06,
2.351,-1.08,0.50,-2.08,0.47,-0.48,0.06,
2.355,-1.08,0.50,-2.08,0.48,-0.48,0.06,
2.356,-1.08,0.50,-2.08,0.48,-0.49,0.05,
2.357,-1.11,0.44,-1.99,0.48,-0.49,0.05,
2.358,-1.11,0.44,-1.99,0.49,-0.49,0.05,
2.368,-1.11,0.44,-1.99,0.49,-0.50,0.05,
2.369,-1.17,0.50,-1.92,0.49,-0.50,0.05,
2.369,-1.17,0.50,-1.92,0.50,-0.50,0.04,
2.37,-1.17,0.50,-1.92,0.51,-0.50,0.04,
2.37,-1.28,0.57,-1.86,0.51,-0.50,0.04,
2.37,-1.28,0.57,-1.86,0.52,-0.50,0.04,
2.371,-1.28,0.57,-1.86,0.51,-0.49,0.04,
2.371,-1.50,0.35,-1.96,0.51,-0.49,0.04,
2.373,-1.50,0.35,-1.96,0.51,-0.49,0.05,
2.376,-1.50,0.35,-1.96,0.50,-0.48,0.05,
2.376,-1.71,0.31,-1.97,0.50,-0.48,0.05,
2.378,-1.71,0.31,-1.97,0.49,-0.47,0.06,
2.38,-1.71,0.31,-1.97,0.48,-0.45,0.07,
2.381,-1.73,0.37,-1.92,0.48,-0.45,0.07,
2.383,-1.73,0.37,-1.92,0.47,-0.44,0.07,
2.386,-1.73,0.37,-1.92,0.45,-0.42,0.07,
2.386,-1.66,0.39,-1.81,0.45,-0.42,0.07,
2.388,-1.66,0.39,-1.81,0.44,-0.40,0.07,
2.391,-1.66,0.39,-1.81,0.43,-0.39,0.07,
2.391,-1.57,0.39,-1.57,0.43,-0.39,0.07,
2.394,-1.57,0.39,-1.57,0.43,-0.37,0.06,
2.396,-1.57,0.39,-1.57,0.43,-0.35,0.05,
2.396,-1.51,0.42,-1.50,0.43,-0.35,0.05,
2.398,-1.51,0.42,-1.50,0.42,-0.32,0.04,
2.4,-1.51,0.42,-1.50,0.42,-0.29,0.03,
2.4,-1.54,0.48,-1.46,0.42,-0.29,0.03,
2.403,-1.54,0.48,-1.46,0.41,-0.26,0.03,
2.405,-1.54,0.48,-1.46,0.41,-0.24,0.02,
2.406,-1.51,0.53,-1.40,0.41,-0.24,0.02,
2.408,-1.51,0.53,-1.40,0.41,-0.21,0.01,
2.412,-1.51,0.53,-1.40,0.40,-0.19,0.00,
2.412,-1.43,0.53,-1.42,0.40,-0.19,0.00,
2.413,-1.43,0.53,-1.42,0.40,-0.18,-0.01,
2.415,-1.43,0.53,-1.42,0.39,-0.16,-0.02,
2.43,-1.39,0.55,-1.53,0.39,-0.16,-0.02,
2.43,-1.39,0.55,-1.53,0.38,-0.15,-0.03,
2.431,-1.39,0.55,-1.53,0.37,-0.14,-0.03,
2.431,-1.36,0.53,-1.69,0.37,-0.14,-0.03,
2.431,-1.36,0.53,-1.69,0.36,-0.13,-0.04,
2.431,-1.36,0.53,-1.69,0.34,-0.12,-0.06,
2.432,-1.39,0.46,-1.84,0.34,-0.12,-0.06,
2.432,-1.39,0.46,-1.84,0.32,-0.11,-0.06,
2.432,-1.39,0.46,-1.84,0.31,-0.11,-0.08,
2.432,-1.41,0.42,-1.88,0.31,-0.11,-0.08,
2.433,-1.41,0.42,-1.88,0.29,-0.11,-0.09,
2.438,-1.41,0.42,-1.88,0.27,-0.12,-0.10,
2.439,-1.44,0.36,-1.90,0.27,-0.12,-0.10,
2.439,-1.44,0.36,-1.90,0.26,-0.12,-0.11,
2.44,-1.44,0.36,-1.90,0.25,-0.12,-0.12,
2.448,-1.46,0.30,-1.85,0.25,-0.12,-0.12,
2.448,-1.46,0.30,-1.85,0.24,-0.13,-0.14,
2.448,-1.48,0.20,-1.77,0.24,-0.13,-0.14,
2.448,-1.48,0.20,-1.77,0.23,-0.14,-0.15,
2.449,-1.48,0.20,-1.77,0.21,-0.15,-0.16,
2.457,-1.48,0.20,-1.77,0.20,-0.16,-0.18,
2.457,-1.49,0.16,-1.73,0.20,-0.16,-0.18,
2.457,-1.49,0.16,-1.73,0.19,-0.17,-0.19,
2.457,-1.49,0.16,-1.73,0.17,-0.18,-0.21,
2.457,-1.48,0.03,-1.74,0.17,-0.18,-0.21,
2.458,-1.48,0.03,-1.74,0.16,-0.19,-0.22,
2.467,-1.48,0.03,-1.74,0.14,-0.20,-0.24,
2.467,-1.60,-0.08,-1.67,0.14,-0.20,-0.24,
2.467,-1.60,-0.08,-1.67,0.12,-0.21,-0.25,
2.467,-1.60,-0.08,-1.67,0.11,-0.21,-0.26,
2.468,-1.68,-0.21,-1.61,0.11,-0.21,-0.26,
2.468,-1.68,-0.21,-1.61,0.09,-0.22,-0.27,
2.471,-1.68,-0.21,-1.61,0.07,-0.23,-0.27,
2.472,-1.79,-0.27,-1.46,0.07,-0.23,-0.27,
2.473,-1.79,-0.27,-1.46,0.06,-0.24,-0.28,
2.476,-1.79,-0.27,-1.46,0.04,-0.25,-0.28,
2.477,-1.86,-0.31,-1.31,0.04,-0.25,-0.28,
2.48,-1.86,-0.31,-1.31,0.03,-0.26,-0.29,
2.48,-1.86,-0.31,-1.31,0.02,-0.27,-0.29,
2.48,-1.89,-0.24,-1.14,0.02,-0.27,-0.29,
2.483,-1.89,-0.24,-1.14,0.01,-0.28,-0.30,
2.485,-1.89,-0.24,-1.14,0.00,-0.28,-0.31,
2.485,-1.96,-0.23,-1.05,0.00,-0.28,-0.31,
2.487,-1.96,-0.23,-1.05,-0.01,-0.28,-0.31,
2.49,-1.96,-0.23,-1.05,-0.01,-0.27,-0.32,
2.49,-2.13,-0.34,-0.93,-0.01,-0.27,-0.32,
2.492,-2.13,-0.34,-0.93,-0.02,-0.26,-0.33,
2.496,-2.13,-0.34,-0.93,-0.03,-0.25,-0.33,
2.496,-2.36,-0.40,-0.83,-0.03,-0.25,-0.33,
2.497,-2.36,-0.40,-0.83,-0.03,-0.23,-0.34,
2.5,-2.36,-0.40,-0.83,-0.04,-0.22,-0.34,
2.5,-2.53,-0.46,-0.69,-0.04,-0.22,-0.34,
2.502,-2.53,-0.46,-0.69,-0.04,-0.20,-0.35,
2.505,-2.53,-0.46,-0.69,-0.05,-0.19,-0.35,
2.505,-2.70,-0.50,-0.63,-0.05,-0.19,-0.35,
2.507,-2.70,-0.50,-0.63,-0.05,-0.17,-0.36,
2.51,-2.70,-0.50,-0.63,-0.06,-0.15,-0.37,
2.51,-2.81,-0.49,-0.58,-0.06,-0.15,-0.37,
2.513,-2.81,-0.49,-0.58,-0.06,-0.13,-0.39,
2.515,-2.81,-0.49,-0.58,-0.07,-0.11,-0.41,
2.515,-3.17,-0.70,-0.54,-0.07,-0.11,-0.41,
2.517,-3.17,-0.70,-0.54,-0.08,-0.09,-0.42,
2.519,-3.17,-0.70,-0.54,-0.09,-0.06,-0.44,
2.52,-3.35,-0.65,-0.54,-0.09,-0.06,-0.44,
2.522,-3.35,-0.65,-0.54,-0.09,-0.03,-0.45,
2.524,-3.35,-0.65,-0.54,-0.09,-0.00,-0.47,
2.525,-3.64,-0.64,-0.43,-0.09,-0.00,-0.47,
2.527,-3.64,-0.64,-0.43,-0.09,0.04,-0.49,
2.53,-3.90,-0.58,-0.41,-0.09,0.04,-0.49,
2.53,-3.90,-0.58,-0.41,-0.09,0.08,-0.50,
2.532,-3.90,-0.58,-0.41,-0.09,0.13,-0.52,
2.534,-3.90,-0.58,-0.41,-0.08,0.17,-0.54,
2.535,-3.98,-0.42,-0.29,-0.08,0.17,-0.54,
2.537,-3.98,-0.42,-0.29,-0.06,0.20,-0.56,
2.539,-3.98,-0.42,-0.29,-0.05,0.23,-0.58,
2.54,-4.12,-0.33,-0.30,-0.05,0.23,-0.58,
2.542,-4.12,-0.33,-0.30,-0.04,0.25,-0.60,
2.548,-4.27,-0.29,-0.29,-0.04,0.25,-0.60,
2.55,-4.27,-0.29,-0.29,-0.03,0.26,-0.62,
2.55,-4.27,-0.29,-0.29,-0.02,0.27,-0.64,
2.551,-4.30,-0.20,-0.28,-0.02,0.27,-0.64,
2.551,-4.30,-0.20,-0.28,-0.01,0.27,-0.66,
2.552,-4.30,-0.20,-0.28,0.00,0.27,-0.69,
2.555,-4.30,-0.20,-0.28,0.02,0.27,-0.71,
2.556,-4.25,-0.13,-0.17,0.02,0.27,-0.71,
2.557,-4.25,-0.13,-0.17,0.03,0.25,-0.74,
2.578,-4.12,-0.02,0.14,0.03,0.25,-0.74,
2.578,-4.12,-0.02,0.14,0.05,0.22,-0.76,
2.578,-4.12,-0.02,0.14,0.06,0.16,-0.79,
2.578,-4.10,0.11,0.79,0.06,0.16,-0.79,
2.579,-4.10,0.11,0.79,0.08,0.07,-0.82,
2.579,-4.10,0.11,0.79,0.10,-0.05,-0.84,
2.579,-4.10,0.11,0.79,0.12,-0.20,-0.86,
2.579,-4.09,0.36,1.43,0.12,-0.20,-0.86,
2.579,-4.09,0.36,1.43,0.14,-0.36,-0.88,
2.58,-4.09,0.36,1.43,0.16,-0.52,-0.89,
2.58,-4.29,0.53,1.74,0.16,-0.52,-0.89,
2.58,-4.29,0.53,1.74,0.18,-0.65,-0.89,
2.58,-4.29,0.53,1.74,0.20,-0.75,-0.89,
2.58,-4.52,0.63,1.56,0.20,-0.75,-0.89,
2.6,-4.52,0.63,1.56,0.22,-0.81,-0.88,
2.6,-4.52,0.63,1.56,0.24,-0.83,-0.87,
2.601,-4.49,0.72,1.18,0.24,-0.83,-0.87,
2.601,-4.49,0.72,1.18,0.25,-0.82,-0.85,
2.601,-4.49,0.72,1.18,0.26,-0.78,-0.83,
2.602,-4.38,0.69,0.73,0.26,-0.78,-0.83,
2.602,-4.38,0.69,0.73,0.27,-0.74,-0.81,
2.602,-4.40,0.46,0.40,0.27,-0.74,-0.81,
2.603,-4.40,0.46,0.40,0.27,-0.68,-0.78,
2.603,-4.40,0.46,0.40,0.26,-0.63,-0.75,
2.603,-4.40,0.46,0.40,0.25,-0.60,-0.72,
2.604,-4.17,0.29,0.30,0.25,-0.60,-0.72,
2.604,-4.17,0.29,0.30,0.24,-0.58,-0.69,
2.604,-4.17,0.29,0.30,0.22,-0.58,-0.66,
2.605,-3.85,0.02,0.18,0.22,-0.58,-0.66,
2.607,-3.85,0.02,0.18,0.19,-0.59,-0.63,
2.609,-3.85,0.02,0.18,0.16,-0.63,-0.60,
2.61,-3.37,-0.32,0.14,0.16,-0.63,-0.60,
2.613,-3.37,-0.32,0.14,0.13,-0.67,-0.57,
2.614,-3.37,-0.32,0.14,0.10,-0.72,-0.55,
2.614,-2.80,-0.63,-0.05,0.10,-0.72,-0.55,
2.616,-2.80,-0.63,-0.05,0.06,-0.77,-0.52,
2.618,-2.80,-0.63,-0.05,0.02,-0.84,-0.50,
2.619,-2.42,-0.96,-0.12,0.02,-0.84,-0.50,
2.622,-2.42,-0.96,-0.12,-0.03,-0.92,-0.49,
2.624,-2.42,-0.96,-0.12,-0.08,-1.00,-0.48,
2.625,-2.09,-1.63,-0.09,-0.08,-1.00,-0.48,
2.627,-2.09,-1.63,-0.09,-0.13,-1.07,-0.47,
2.629,-2.09,-1.63,-0.09,-0.19,-1.11,-0.47,
2.629,-2.00,-2.09,-0.13,-0.19,-1.11,-0.47,
2.631,-2.00,-2.09,-0.13,-0.23,-1.15,-0.46,
2.633,-1.65,-2.66,0.82,-0.23,-1.15,-0.46,
2.634,-1.65,-2.66,0.82,-0.26,-1.20,-0.46,
2.636,-1.65,-2.66,0.82,-0.28,-1.27,-0.48,
2.638,-1.65,-2.66,0.82,-0.29,-1.31,-0.50,
2.638,-0.97,-3.19,1.50,-0.29,-1.31,-0.50,
2.641,-0.97,-3.19,1.50,-0.29,-1.38,-0.53,
2.646,-0.97,-3.19,1.50,-0.27,-1.45,-0.56,
2.646,-1.01,-3.83,2.78,-0.27,-1.45,-0.56,
2.646,-1.01,-3.83,2.78,-0.25,-1.47,-0.58,
2.649,-1.01,-3.83,2.78,-0.22,-1.47,-0.61,
2.651,-1.01,-3.83,2.78,-0.17,-1.51,-0.64,
2.654,-1.01,-3.83,2.78,-0.13,-1.54,-0.68,
2.656,-0.75,-3.66,3.26,-0.13,-1.54,-0.68,
2.657,-0.27,-4.33,3.90,-0.13,-1.54,-0.68,
2.657,-0.27,-4.33,3.90,-0.09,-1.50,-0.72,
2.659,-0.27,-4.33,3.90,-0.06,-1.42,-0.76,
2.66,0.10,-4.47,3.68,-0.06,-1.42,-0.76,
2.661,0.10,-4.47,3.68,-0.03,-1.35,-0.79,
2.664,0.10,-4.47,3.68,0.01,-1.31,-0.82,
2.665,0.20,-4.36,4.00,0.01,-1.31,-0.82,
2.666,0.20,-4.36,4.00,0.03,-1.27,-0.85,
2.669,0.20,-4.36,4.00,0.04,-1.20,-0.88,
2.669,0.31,-4.51,3.49,0.04,-1.20,-0.88,
2.67,0.31,-4.51,3.49,0.03,-1.12,-0.92,
2.673,0.31,-4.51,3.49,0.01,-1.04,-0.97,
2.673,0.94,-4.40,2.90,0.01,-1.04,-0.97,
2.675,0.94,-4.40,2.90,-0.01,-0.96,-1.01,
2.679,0.94,-4.40,2.90,-0.04,-0.88,-1.04,
2.68,0.88,-3.78,2.71,-0.04,-0.88,-1.04,
2.68,0.88,-3.78,2.71,-0.08,-0.82,-1.07,
2.683,0.88,-3.78,2.71,-0.12,-0.76,-1.10,
2.683,1.10,-3.02,2.49,-0.12,-0.76,-1.10,
2.686,1.10,-3.02,2.49,-0.15,-0.70,-1.13,
2.69,1.14,-2.23,2.23,-0.15,-0.70,-1.13,
2.691,1.14,-2.23,2.23,-0.19,-0.62,-1.15,
2.691,1.14,-2.23,2.23,-0.22,-0.53,-1.17,
2.694,1.14,-2.23,2.23,-0.24,-0.43,-1.18,
2.695,1.23,-1.47,1.95,-0.24,-0.43,-1.18,
2.697,1.23,-1.47,1.95,-0.25,-0.31,-1.19,
2.698,1.37,-0.92,1.72,-0.25,-0.31,-1.19,
2.698,1.37,-0.92,1.72,-0.26,-0.18,-1.20,
2.701,1.37,-0.92,1.72,-0.26,-0.07,-1.20,
2.703,1.37,-0.92,1.72,-0.25,0.03,-1.20,
2.703,1.59,-0.56,1.58,-0.25,0.03,-1.20,
2.705,1.59,-0.56,1.58,-0.25,0.12,-1.20,
2.708,1.59,-0.56,1.58,-0.24,0.20,-1.21,
2.708,2.00,-0.44,1.35,-0.24,0.20,-1.21,
2.711,2.00,-0.44,1.35,-0.23,0.27,-1.22,
2.713,2.00,-0.44,1.35,-0.22,0.33,-1.22,
2.714,2.22,-0.55,1.00,-0.22,0.33,-1.22,
2.715,2.22,-0.55,1.00,-0.21,0.38,-1.22,
2.718,2.22,-0.55,1.00,-0.20,0.42,-1.22,
2.718,2.18,-0.71,0.76,-0.20,0.42,-1.22,
2.72,2.18,-0.71,0.76,-0.19,0.45,-1.22,
2.723,2.18,-0.71,0.76,-0.18,0.47,-1.21,
2.723,2.05,-0.83,0.67,-0.18,0.47,-1.21,
2.725,2.05,-0.83,0.67,-0.16,0.49,-1.20,
2.731,2.05,-0.83,0.67,-0.14,0.51,-1.17,
2.733,1.86,-0.88,0.50,-0.14,0.51,-1.17,
2.733,1.86,-0.88,0.50,-0.12,0.52,-1.15,
2.734,1.86,-0.88,0.50,-0.10,0.52,-1.12,
2.734,1.76,-0.95,0.37,-0.10,0.52,-1.12,
2.738,1.70,-0.98,0.30,-0.10,0.52,-1.12,
2.738,1.70,-0.98,0.30,-0.08,0.50,-1.09,
2.738,1.70,-0.98,0.30,-0.06,0.47,-1.06,
2.74,1.70,-0.98,0.30,-0.04,0.43,-1.03,
2.743,1.70,-0.98,0.30,-0.01,0.38,-0.99,
2.743,1.64,-0.93,0.24,-0.01,0.38,-0.99,
2.752,1.64,-0.93,0.24,0.01,0.33,-0.96,
2.773,1.64,-0.93,0.24,0.03,0.27,-0.94,
2.774,1.64,-0.96,0.06,0.03,0.27,-0.94,
2.774,1.64,-0.96,0.06,0.06,0.22,-0.91,
2.774,1.64,-0.96,0.06,0.08,0.17,-0.88,
2.775,1.61,-0.98,0.01,0.08,0.17,-0.88,
2.775,1.61,-0.98,0.01,0.11,0.12,-0.86,
2.775,1.61,-0.98,0.01,0.14,0.08,-0.84,
2.776,1.65,-0.91,-0.03,0.14,0.08,-0.84,
2.776,1.65,-0.91,-0.03,0.18,0.05,-0.82,
2.776,1.67,-0.86,-0.04,0.18,0.05,-0.82,
2.777,1.67,-0.86,-0.04,0.21,0.03,-0.80,
2.777,1.67,-0.86,-0.04,0.25,0.02,-0.79,
2.777,1.54,-0.77,-0.21,0.25,0.02,-0.79,
2.778,1.54,-0.77,-0.21,0.29,0.04,-0.77,
2.778,1.54,-0.77,-0.21,0.32,0.07,-0.76,
2.778,1.54,-0.77,-0.21,0.36,0.11,-0.74,
2.779,1.32,-0.73,-0.48,0.36,0.11,-0.74,
2.779,1.32,-0.73,-0.48,0.39,0.16,-0.73,
2.779,1.25,-0.95,-0.70,0.39,0.16,-0.73,
2.78,1.25,-0.95,-0.70,0.41,0.21,-0.71,
2.78,1.25,-0.95,-0.70,0.42,0.26,-0.70,
2.782,1.25,-0.95,-0.70,0.43,0.31,-0.68,
2.783,0.99,-1.02,-1.02,0.43,0.31,-0.68,
2.786,0.99,-1.02,-1.02,0.42,0.36,-0.66,
2.788,0.72,-1.11,-1.04,0.42,0.36,-0.66,
2.789,0.72,-1.11,-1.04,0.42,0.38,-0.63,
2.791,0.72,-1.11,-1.04,0.41,0.37,-0.60,
2.793,0.72,-1.11,-1.04,0.39,0.36,-0.57,
2.793,0.39,-1.20,-0.99,0.39,0.36,-0.57,
2.795,0.39,-1.20,-0.99,0.38,0.33,-0.54,
2.797,0.39,-1.20,-0.99,0.37,0.30,-0.52,
2.797,0.25,-1.42,-0.92,0.37,0.30,-0.52,
2.799,0.25,-1.42,-0.92,0.37,0.28,-0.50,
2.802,0.25,-1.42,-0.92,0.36,0.27,-0.47,
2.802,-0.04,-1.48,-0.84,0.36,0.27,-0.47,
2.804,-0.04,-1.48,-0.84,0.36,0.25,-0.46,
2.807,-0.04,-1.48,-0.84,0.34,0.21,-0.47,
2.807,-0.30,-1.73,-0.83,0.34,0.21,-0.47,
2.809,-0.30,-1.73,-0.83,0.33,0.18,-0.48,
2.813,-0.30,-1.73,-0.83,0.32,0.18,-0.49,
2.813,-0.36,-1.63,-1.04,0.32,0.18,-0.49,
2.814,-0.36,-1.63,-1.04,0.30,0.18,-0.51,
2.817,-0.36,-1.63,-1.04,0.28,0.18,-0.53,
2.817,-0.55,-1.52,-1.28,0.28,0.18,-0.53,
2.819,-0.55,-1.52,-1.28,0.26,0.19,-0.55,
2.822,-0.55,-1.52,-1.28,0.23,0.21,-0.56,
2.822,-1.16,-1.66,-1.69,0.23,0.21,-0.56,
2.824,-1.16,-1.66,-1.69,0.20,0.24,-0.57,
2.829,-1.68,-1.60,-2.20,0.20,0.24,-0.57,
2.83,-1.68,-1.60,-2.20,0.16,0.30,-0.57,
2.83,-1.68,-1.60,-2.20,0.12,0.33,-0.58,
2.832,-1.68,-1.60,-2.20,0.07,0.35,-0.58,
2.832,-1.82,-1.11,-2.26,0.07,0.35,-0.58,
2.834,-1.82,-1.11,-2.26,0.02,0.33,-0.58,
2.837,-2.45,-0.94,-2.49,0.02,0.33,-0.58,
2.837,-2.45,-0.94,-2.49,-0.04,0.30,-0.57,
2.839,-2.45,-0.94,-2.49,-0.10,0.28,-0.55,
2.842,-2.45,-0.94,-2.49,-0.16,0.26,-0.52,
2.842,-2.77,-0.40,-2.74,-0.16,0.26,-0.52,
2.847,-2.77,-0.40,-2.74,-0.22,0.20,-0.51,
2.847,-2.77,-0.40,-2.74,-0.29,0.10,-0.49,
2.847,-2.53,-0.01,-2.54,-0.29,0.10,-0.49,
2.849,-2.53,-0.01,-2.54,-0.35,-0.04,-0.48,
2.852,-2.53,-0.01,-2.54,-0.41,-0.17,-0.47,
2.852,-2.37,0.24,-2.38,-0.41,-0.17,-0.47,
2.854,-2.37,0.24,-2.38,-0.47,-0.29,-0.47,
2.856,-2.37,0.24,-2.38,-0.53,-0.40,-0.46,
2.857,-2.36,0.29,-2.53,-0.53,-0.40,-0.46,
2.859,-2.36,0.29,-2.53,-0.58,-0.47,-0.46,
2.861,-2.36,0.29,-2.53,-0.62,-0.53,-0.44,
2.862,-2.35,0.54,-2.40,-0.62,-0.53,-0.44,
2.864,-2.35,0.54,-2.40,-0.66,-0.59,-0.43,
2.866,-2.35,0.54,-2.40,-0.70,-0.64,-0.44,
2.867,-1.51,0.84,-2.45,-0.70,-0.64,-0.44,
2.869,-1.51,0.84,-2.45,-0.73,-0.69,-0.45,
2.871,-0.83,0.99,-2.20,-0.73,-0.69,-0.45,
2.872,-0.83,0.99,-2.20,-0.75,-0.73,-0.48,
2.874,-0.83,0.99,-2.20,-0.76,-0.77,-0.49,
2.876,-1.62,1.15,-1.59,-0.76,-0.77,-0.49,
2.877,-1.62,1.15,-1.59,-0.76,-0.81,-0.47,
2.88,-1.62,1.15,-1.59,-0.74,-0.84,-0.44,
2.881,-1.62,1.15,-1.59,-0.73,-0.85,-0.42,
2.882,-1.44,1.16,-1.75,-0.73,-0.85,-0.42,
2.884,-1.44,1.16,-1.75,-0.70,-0.86,-0.39,
2.886,-1.44,1.16,-1.75,-0.67,-0.86,-0.37,
2.887,-0.99,1.00,-1.45,-0.67,-0.86,-0.37,
2.889,-0.99,1.00,-1.45,-0.64,-0.87,-0.36,
2.892,-1.23,1.28,-1.24,-0.64,-0.87,-0.36,
2.892,-1.23,1.28,-1.24,-0.60,-0.88,-0.34,
2.894,-1.23,1.28,-1.24,-0.56,-0.90,-0.33,
2.897,-1.23,1.28,-1.24,-0.53,-0.93,-0.31,
2.897,-1.23,1.55,-1.26,-0.53,-0.93,-0.31,
2.899,-1.23,1.55,-1.26,-0.51,-0.95,-0.30,
2.902,-1.23,1.55,-1.26,-0.49,-0.98,-0.31,
2.902,-0.63,1.57,-1.38,-0.49,-0.98,-0.31,
2.904,-0.63,1.57,-1.38,-0.46,-1.01,-0.31,
2.907,-0.54,1.72,-1.08,-0.46,-1.01,-0.31,
2.907,-0.54,1.72,-1.08,-0.42,-1.05,-0.31,
2.909,-0.54,1.72,-1.08,-0.38,-1.09,-0.32,
2.912,-0.63,1.90,-0.73,-0.38,-1.09,-0.32,
2.935,-0.63,1.90,-0.73,-0.33,-1.14,-0.33,
2.935,-0.63,1.90,-0.73,-0.27,-1.19,-0.34,
2.935,-0.32,2.04,-0.63,-0.27,-1.19,-0.34,
2.936,-0.32,2.04,-0.63,-0.20,-1.25,-0.35,
2.936,-0.32,2.04,-0.63,-0.14,-1.30,-0.36,
2.936,-0.32,2.04,-0.63,-0.07,-1.34,-0.38,
2.936,0.05,2.10,-0.64,-0.07,-1.34,-0.38,
2.937,0.05,2.10,-0.64,-0.01,-1.40,-0.40,
2.937,0.46,2.23,-0.54,-0.01,-1.40,-0.40,
2.937,0.46,2.23,-0.54,0.06,-1.44,-0.42,
2.937,0.46,2.23,-0.54,0.12,-1.47,-0.45,
2.938,0.46,2.23,-0.54,0.19,-1.51,-0.46,
2.938,0.79,2.50,-0.66,0.19,-1.51,-0.46,
2.938,0.79,2.50,-0.66,0.24,-1.54,-0.48,
2.938,0.79,2.50,-0.66,0.29,-1.57,-0.49,
2.939,1.04,2.61,-0.91,0.29,-1.57,-0.49,
2.939,1.04,2.61,-0.91,0.32,-1.59,-0.48,
2.941,1.29,2.77,-1.27,0.32,-1.59,-0.48,
2.941,1.29,2.77,-1.27,0.34,-1.60,-0.48,
2.943,1.29,2.77,-1.27,0.35,-1.60,-0.48,
2.947,1.68,2.63,-1.78,0.35,-1.60,-0.48,
2.947,1.68,2.63,-1.78,0.35,-1.58,-0.47,
2.95,1.68,2.63,-1.78,0.36,-1.52,-0.46,
2.952,1.70,2.38,-1.86,0.36,-1.52,-0.46,
2.953,1.70,2.38,-1.86,0.36,-1.46,-0.44,
2.953,1.70,2.38,-1.86,0.36,-1.40,-0.42,
2.957,1.52,2.28,-1.79,0.36,-1.40,-0.42,
2.957,1.52,2.28,-1.79,0.36,-1.35,-0.39,
2.958,1.52,2.28,-1.79,0.36,-1.31,-0.37,
2.968,1.45,2.03,-1.54,0.36,-1.31,-0.37,
2.973,1.45,2.03,-1.54,0.35,-1.29,-0.34,
2.974,1.45,2.03,-1.54,0.35,-1.29,-0.31,
2.974,1.45,2.03,-1.54,0.35,-1.30,-0.29,
2.975,1.47,1.76,-1.45,0.35,-1.30,-0.29,
2.975,1.47,1.76,-1.45,0.35,-1.33,-0.27,
2.975,1.79,1.36,-1.44,0.35,-1.33,-0.27,
2.988,1.95,1.00,-1.67,0.35,-1.33,-0.27,
2.988,2.07,0.78,-1.93,0.35,-1.33,-0.27,
2.989,2.07,0.78,-1.93,0.35,-1.36,-0.26,
2.989,2.07,0.78,-1.93,0.35,-1.38,-0.26,
2.989,2.07,0.78,-1.93,0.35,-1.40,-0.26,
2.99,2.07,0.78,-1.93,0.34,-1.41,-0.26,
2.99,2.07,0.78,-1.93,0.32,-1.41,-0.27,
2.99,2.07,0.78,-1.93,0.30,-1.41,-0.28,
2.991,2.07,0.78,-1.93,0.28,-1.42,-0.28,
2.991,1.93,0.62,-2.05,0.28,-1.42,-0.28,
2.991,1.93,0.62,-2.05,0.26,-1.42,-0.28,
2.991,1.93,0.62,-2.05,0.24,-1.42,-0.28,
2.992,1.87,0.38,-2.20,0.24,-1.42,-0.28,
2.993,1.87,0.38,-2.20,0.22,-1.40,-0.28,
2.996,1.87,0.38,-2.20,0.21,-1.36,-0.27,
2.997,1.84,0.52,-2.39,0.21,-1.36,-0.27,
2.998,1.84,0.52,-2.39,0.19,-1.32,-0.25,
3.0,1.84,0.52,-2.39,0.17,-1.28,-0.24,
3.001,1.88,0.40,-2.45,0.17,-1.28,-0.24,
3.004,1.88,0.40,-2.45,0.15,-1.26,-0.24,
3.006,1.88,0.40,-2.45,0.12,-1.25,-0.24,
3.006,1.90,0.60,-2.53,0.12,-1.25,-0.24,
3.008,1.90,0.60,-2.53,0.10,-1.23,-0.24,
3.011,1.90,0.60,-2.53,0.07,-1.21,-0.23,
3.012,1.58,0.65,-2.65,0.07,-1.21,-0.23,
3.015,1.58,0.65,-2.65,0.05,-1.18,-0.22,
3.016,1.58,0.65,-2.65,0.03,-1.15,-0.21,
3.016,1.30,0.68,-2.67,0.03,-1.15,-0.21,
3.018,1.30,0.68,-2.67,0.01,-1.11,-0.20,
3.02,1.30,0.68,-2.67,-0.01,-1.07,-0.18,
3.02,0.95,0.81,-2.60,-0.01,-1.07,-0.18,
3.022,0.95,0.81,-2.60,-0.02,-1.04,-0.17,
3.025,0.95,0.81,-2.60,-0.03,-0.99,-0.14,
3.025,0.54,0.97,-2.53,-0.03,-0.99,-0.14,
3.028,0.54,0.97,-2.53,-0.02,-0.95,-0.11,
3.03,0.16,1.15,-2.45,-0.02,-0.95,-0.11,
3.03,0.16,1.15,-2.45,-0.02,-0.91,-0.08,
3.032,0.16,1.15,-2.45,-0.01,-0.87,-0.05,
3.035,0.16,1.15,-2.45,-0.01,-0.83,-0.02,
3.035,-0.25,1.19,-2.43,-0.01,-0.83,-0.02,
3.037,-0.25,1.19,-2.43,-0.00,-0.80,0.01,
3.04,-0.25,1.19,-2.43,0.00,-0.77,0.05,
3.04,-0.75,1.20,-2.45,0.00,-0.77,0.05,
3.042,-0.75,1.20,-2.45,0.00,-0.75,0.08,
3.046,-1.23,1.21,-2.38,0.00,-0.75,0.08,
3.048,-1.23,1.21,-2.38,0.01,-0.73,0.11,
3.049,-1.23,1.21,-2.38,0.02,-0.71,0.13,
3.05,-1.23,1.21,-2.38,0.02,-0.67,0.16,
3.05,-1.52,1.12,-2.29,0.02,-0.67,0.16,
3.052,-1.52,1.12,-2.29,0.04,-0.63,0.19,
3.055,-1.68,1.16,-2.11,0.04,-0.63,0.19,
3.056,-1.68,1.16,-2.11,0.06,-0.59,0.21,
3.057,-1.68,1.16,-2.11,0.08,-0.54,0.23,
3.061,-1.68,1.16,-2.11,0.10,-0.49,0.24,
3.061,-1.99,1.13,-2.00,0.10,-0.49,0.24,
3.065,-1.99,1.13,-2.00,0.12,-0.44,0.27,
3.065,-2.16,1.01,-1.90,0.12,-0.44,0.27,
3.065,-2.16,1.01,-1.90,0.13,-0.39,0.28,
3.068,-2.16,1.01,-1.90,0.15,-0.35,0.29,
3.069,-2.16,1.01,-1.90,0.16,-0.33,0.29,
3.07,-2.36,0.78,-1.70,0.16,-0.33,0.29,
3.072,-2.36,0.78,-1.70,0.17,-0.31,0.28,
3.074,-2.36,0.78,-1.70,0.17,-0.28,0.28,
3.075,-2.83,0.49,-1.59,0.17,-0.28,0.28,
3.087,-2.83,0.49,-1.59,0.18,-0.25,0.27,
3.087,-3.11,0.10,-1.43,0.18,-0.25,0.27,
3.088,-3.11,0.10,-1.43,0.19,-0.22,0.25,
3.088,-3.11,0.10,-1.43,0.21,-0.20,0.23,
3.088,-3.11,0.10,-1.43,0.22,-0.17,0.21,
3.088,-3.32,-0.45,-1.36,0.22,-0.17,0.21,
3.09,-3.32,-0.45,-1.36,0.23,-0.15,0.18,
3.091,-3.32,-0.45,-1.36,0.24,-0.14,0.15,
3.091,-3.74,-0.77,-1.01,0.24,-0.14,0.15,
3.093,-3.74,-0.77,-1.01,0.24,-0.17,0.11,
3.095,-3.74,-0.77,-1.01,0.22,-0.23,0.06,
3.095,-4.15,-1.19,-0.90,0.22,-0.23,0.06,
3.097,-4.15,-1.19,-0.90,0.20,-0.28,-0.00,
3.1,-4.15,-1.19,-0.90,0.19,-0.32,-0.07,
3.101,-4.40,-1.68,-0.60,0.19,-0.32,-0.07,
3.103,-4.40,-1.68,-0.60,0.17,-0.36,-0.15,
3.105,-4.40,-1.68,-0.60,0.16,-0.37,-0.23,
3.105,-4.90,-1.81,-0.25,0.16,-0.37,-0.23,
3.108,-4.90,-1.81,-0.25,0.15,-0.37,-0.30,
3.109,-4.90,-1.81,-0.25,0.14,-0.36,-0.35,
3.109,-5.37,-1.92,0.12,0.14,-0.36,-0.35,
3.112,-5.37,-1.92,0.12,0.14,-0.36,-0.40,
3.114,-5.37,-1.92,0.12,0.13,-0.35,-0.44,
3.114,-5.66,-2.00,0.34,0.13,-0.35,-0.44,
3.116,-5.66,-2.00,0.34,0.12,-0.34,-0.48,
3.119,-5.66,-2.00,0.34,0.11,-0.31,-0.51,
3.119,-5.53,-1.84,0.41,0.11,-0.31,-0.51,
3.121,-5.53,-1.84,0.41,0.11,-0.28,-0.53,
3.124,-5.53,-1.84,0.41,0.11,-0.24,-0.55,
3.124,-5.22,-1.37,0.43,0.11,-0.24,-0.55,
3.126,-5.22,-1.37,0.43,0.11,-0.20,-0.57,
3.131,-5.22,-1.37,0.43,0.10,-0.12,-0.59,
3.131,-4.59,-0.48,-0.27,0.10,-0.12,-0.59,
3.132,-4.59,-0.48,-0.27,0.09,0.00,-0.60,
3.135,-4.59,-0.48,-0.27,0.08,0.16,-0.61,
3.135,-3.73,0.47,-0.72,0.08,0.16,-0.61,
3.136,-3.73,0.47,-0.72,0.06,0.36,-0.63,
3.139,-3.73,0.47,-0.72,0.05,0.58,-0.65,
3.139,-2.57,1.55,-1.02,0.05,0.58,-0.65,
3.141,-2.57,1.55,-1.02,0.04,0.80,-0.66,
3.146,-2.57,1.55,-1.02,0.02,1.01,-0.67,
3.146,-1.12,2.68,-0.94,0.02,1.01,-0.67,
3.147,-1.12,2.68,-0.94,0.01,1.16,-0.67,
3.15,-1.12,2.68,-0.94,0.02,1.13,-0.64,
3.15,-0.65,3.60,2.68,0.02,1.13,-0.64,
3.152,-0.65,3.60,2.68,0.09,0.89,-0.54,
3.154,-0.65,3.60,2.68,0.21,0.55,-0.39,
3.155,-3.06,2.89,7.17,0.21,0.55,-0.39,
3.156,-3.06,2.89,7.17,0.39,0.22,-0.23,
3.159,-3.06,2.89,7.17,0.62,-0.14,-0.09,
3.159,-2.98,1.14,9.55,0.62,-0.14,-0.09,
3.171,-2.98,1.14,9.55,0.91,-0.58,-0.01,
3.172,-2.98,1.14,9.55,1.21,-1.03,0.02,
3.172,-2.73,-2.04,10.60,1.21,-1.03,0.02,
3.172,-2.73,-2.04,10.60,1.51,-1.41,0.01,
3.173,-2.73,-2.04,10.60,1.80,-1.70,-0.05,
3.173,-1.38,-5.14,8.92,1.80,-1.70,-0.05,
3.173,-1.38,-5.14,8.92,2.04,-1.98,-0.15,
3.174,-1.38,-5.14,8.92,2.19,-2.17,-0.30,
3.174,1.62,-8.33,5.48,2.19,-2.17,-0.30,
3.176,1.62,-8.33,5.48,2.22,-2.21,-0.51,
3.179,1.62,-8.33,5.48,2.12,-2.12,-0.80,
3.179,8.55,-10.73,0.17,2.12,-2.12,-0.80,
3.183,8.55,-10.73,0.17,1.94,-1.91,-1.09,
3.184,8.55,-10.73,0.17,1.71,-1.63,-1.30,
3.184,12.27,-8.97,-0.85,1.71,-1.63,-1.30,
3.186,12.27,-8.97,-0.85,1.50,-1.39,-1.37,
3.189,12.27,-8.97,-0.85,1.36,-1.26,-1.35,
3.189,10.34,-8.73,2.50,1.36,-1.26,-1.35,
3.191,10.34,-8.73,2.50,1.25,-1.16,-1.28,
3.195,8.87,-8.94,3.49,1.25,-1.16,-1.28,
3.196,8.87,-8.94,3.49,1.16,-1.04,-1.20,
3.196,8.87,-8.94,3.49,1.08,-0.92,-1.11,
3.201,7.87,-8.49,3.65,1.08,-0.92,-1.11,
3.202,7.87,-8.49,3.65,1.00,-0.82,-1.05,
3.203,7.87,-8.49,3.65,0.94,-0.73,-1.03,
3.204,7.87,-8.49,3.65,0.87,-0.64,-1.06,
3.204,6.87,-7.62,2.46,0.87,-0.64,-1.06,
3.206,6.87,-7.62,2.46,0.81,-0.57,-1.08,
3.209,6.87,-7.62,2.46,0.74,-0.54,-1.10,
3.209,5.10,-6.55,1.56,0.74,-0.54,-1.10,
3.215,5.10,-6.55,1.56,0.68,-0.53,-1.07,
3.216,3.20,-4.60,1.03,0.68,-0.53,-1.07,
3.216,3.20,-4.60,1.03,0.65,-0.54,-1.00,
3.216,3.20,-4.60,1.03,0.64,-0.56,-0.89,
3.219,3.20,-4.60,1.03,0.66,-0.58,-0.77,
3.219,2.23,-2.56,0.64,0.66,-0.58,-0.77,
3.221,2.23,-2.56,0.64,0.69,-0.62,-0.64,
3.224,2.23,-2.56,0.64,0.73,-0.68,-0.50,
3.224,1.69,-1.29,0.49,0.73,-0.68,-0.50,
3.226,1.69,-1.29,0.49,0.78,-0.74,-0.36,
3.234,1.52,-0.40,-0.10,0.78,-0.74,-0.36,
3.235,1.52,-0.40,-0.10,0.83,-0.78,-0.23,
3.236,1.52,-0.40,-0.10,0.88,-0.79,-0.10,
3.236,1.52,-0.40,-0.10,0.91,-0.79,0.01,
3.236,2.04,0.37,-0.80,0.91,-0.79,0.01,
3.238,2.04,0.37,-0.80,0.94,-0.78,0.12,
3.242,2.04,0.37,-0.80,0.95,-0.78,0.21,
3.242,2.41,0.74,-1.06,0.95,-0.78,0.21,
3.246,2.41,0.74,-1.06,0.94,-0.78,0.28,
3.264,2.41,0.74,-1.06,0.93,-0.77,0.35,
3.264,2.65,1.02,-1.09,0.93,-0.77,0.35,
3.265,2.65,1.02,-1.09,0.91,-0.74,0.40,
3.265,2.65,1.02,-1.09,0.89,-0.71,0.44,
3.265,2.81,1.22,-0.82,0.89,-0.71,0.44,
3.265,2.81,1.22,-0.82,0.87,-0.66,0.47,
3.266,2.81,1.22,-0.82,0.85,-0.60,0.50,
3.266,2.92,1.32,-0.59,0.85,-0.60,0.50,
3.266,2.92,1.32,-0.59,0.82,-0.53,0.51,
3.266,2.92,1.32,-0.59,0.80,-0.46,0.52,
3.267,3.11,1.36,-0.38,0.80,-0.46,0.52,
3.267,3.11,1.36,-0.38,0.76,-0.39,0.51,
3.267,3.11,1.36,-0.38,0.72,-0.34,0.50,
3.267,3.28,1.32,-0.10,0.72,-0.34,0.50,
3.268,3.28,1.32,-0.10,0.68,-0.31,0.49,
3.268,3.28,1.32,-0.10,0.64,-0.27,0.47,
3.268,3.32,1.21,0.14,0.64,-0.27,0.47,
3.273,3.32,1.21,0.14,0.59,-0.24,0.45,
3.274,3.32,1.21,0.14,0.55,-0.22,0.43,
3.274,3.18,1.04,0.45,0.55,-0.22,0.43,
3.276,3.18,1.04,0.45,0.51,-0.20,0.42,
3.281,2.76,0.97,0.69,0.51,-0.20,0.42,
3.282,2.76,0.97,0.69,0.47,-0.18,0.40,
3.282,2.76,0.97,0.69,0.43,-0.17,0.39,
3.284,2.76,0.97,0.69,0.40,-0.15,0.39,
3.284,2.22,0.81,0.98,0.40,-0.15,0.39,
3.286,2.22,0.81,0.98,0.37,-0.12,0.39,
3.288,2.22,0.81,0.98,0.35,-0.09,0.39,
3.288,1.74,0.74,1.15,0.35,-0.09,0.39,
3.29,1.74,0.74,1.15,0.33,-0.08,0.39,
3.293,1.74,0.74,1.15,0.31,-0.07,0.39,
3.293,1.58,0.39,1.27,0.31,-0.07,0.39,
3.296,1.58,0.39,1.27,0.29,-0.09,0.38,
3.298,1.58,0.39,1.27,0.26,-0.10,0.38,
3.298,1.29,0.14,1.16,0.26,-0.10,0.38,
3.3,1.29,0.14,1.16,0.23,-0.13,0.39,
3.303,1.29,0.14,1.16,0.20,-0.15,0.39,
3.303,1.04,0.16,1.06,0.20,-0.15,0.39,
3.305,1.04,0.16,1.06,0.16,-0.16,0.39,
3.308,1.04,0.16,1.06,0.13,-0.16,0.39,
3.308,0.93,0.38,1.04,0.13,-0.16,0.39,
3.31,0.93,0.38,1.04,0.11,-0.16,0.39,
3.313,0.93,0.38,1.04,0.07,-0.18,0.39,
3.313,0.80,0.24,1.05,0.07,-0.18,0.39,
3.315,0.80,0.24,1.05,0.03,-0.20,0.40,
3.317,0.80,0.24,1.05,-0.01,-0.22,0.41,
3.317,0.65,-0.04,0.72,-0.01,-0.22,0.41,
3.32,0.65,-0.04,0.72,-0.05,-0.20,0.42,
3.322,0.65,-0.04,0.72,-0.08,-0.17,0.43,
3.323,0.55,-0.15,0.63,-0.08,-0.17,0.43,
3.325,0.55,-0.15,0.63,-0.11,-0.12,0.44,
3.328,0.75,-0.37,0.54,-0.11,-0.12,0.44,
3.328,0.75,-0.37,0.54,-0.13,-0.07,0.44,
3.33,0.75,-0.37,0.54,-0.15,-0.01,0.44,
3.332,0.75,-0.37,0.54,-0.17,0.04,0.44,
3.333,0.62,-0.34,0.53,-0.17,0.04,0.44,
3.335,0.62,-0.34,0.53,-0.19,0.10,0.45,
3.337,0.62,-0.34,0.53,-0.20,0.16,0.46,
3.338,0.48,-0.08,0.60,-0.20,0.16,0.46,
3.34,0.48,-0.08,0.60,-0.21,0.22,0.46,
3.342,0.48,-0.08,0.60,-0.22,0.27,0.47,
3.343,0.41,0.10,0.58,-0.22,0.27,0.47,
3.35,0.41,0.10,0.58,-0.23,0.33,0.47,
3.352,0.41,0.10,0.58,-0.23,0.38,0.48,
3.352,0.35,0.15,0.54,-0.23,0.38,0.48,
3.352,0.35,0.15,0.54,-0.24,0.43,0.50,
3.36,0.22,0.38,0.47,-0.24,0.43,0.50,
3.36,0.15,0.66,0.60,-0.24,0.43,0.50,
3.36,0.15,0.66,0.60,-0.25,0.48,0.51,
3.361,0.15,0.66,0.60,-0.25,0.53,0.52,
3.361,0.15,0.66,0.60,-0.25,0.58,0.53,
3.361,0.15,0.66,0.60,-0.24,0.63,0.54,
3.373,0.15,0.66,0.60,-0.23,0.68,0.54,
3.374,0.23,0.83,0.66,-0.23,0.68,0.54,
3.374,0.23,0.83,0.66,-0.22,0.72,0.54,
3.374,0.23,0.83,0.66,-0.20,0.77,0.54,
3.375,0.21,0.90,0.65,-0.20,0.77,0.54,
3.375,0.21,0.90,0.65,-0.19,0.81,0.55,
3.376,0.21,0.90,0.65,-0.17,0.85,0.55,
3.376,0.08,1.02,0.58,-0.17,0.85,0.55,
3.376,0.08,1.02,0.58,-0.15,0.89,0.56,
3.377,0.08,1.02,0.58,-0.13,0.94,0.58,
3.378,-0.08,1.18,0.52,-0.13,0.94,0.58,
3.38,-0.08,1.18,0.52,-0.10,0.98,0.59,
3.384,-0.08,1.18,0.52,-0.07,1.01,0.60,
3.385,-0.19,1.37,0.57,-0.07,1.01,0.60,
3.385,-0.19,1.37,0.57,-0.04,1.04,0.61,
3.387,-0.19,1.37,0.57,-0.01,1.07,0.62,
3.387,-0.31,1.45,0.41,-0.01,1.07,0.62,
3.389,-0.31,1.45,0.41,0.02,1.09,0.63,
3.392,-0.31,1.45,0.41,0.06,1.11,0.64,
3.392,-0.44,1.53,0.37,0.06,1.11,0.64,
3.395,-0.44,1.53,0.37,0.09,1.12,0.66,
3.398,-0.44,1.53,0.37,0.13,1.12,0.67,
3.398,-0.53,1.54,0.27,0.13,1.12,0.67,
3.4,-0.53,1.54,0.27,0.17,1.12,0.68,
3.402,-0.53,1.54,0.27,0.21,1.13,0.70,
3.402,-0.66,1.50,0.08,0.21,1.13,0.70,
3.404,-0.66,1.50,0.08,0.25,1.13,0.72,
3.407,-0.66,1.50,0.08,0.29,1.13,0.74,
3.43,-0.87,1.60,-0.24,0.29,1.13,0.74,
3.43,-0.87,1.60,-0.24,0.32,1.13,0.77,
3.43,-1.05,1.72,-0.43,0.32,1.13,0.77,
3.431,-1.05,1.72,-0.43,0.36,1.14,0.80,
3.431,-1.05,1.72,-0.43,0.40,1.16,0.82,
3.432,-1.05,1.72,-0.43,0.43,1.18,0.84,
3.432,-1.13,1.76,-0.84,0.43,1.18,0.84,
3.432,-1.13,1.76,-0.84,0.46,1.20,0.87,
3.433,-1.13,1.76,-0.84,0.49,1.23,0.89,
3.433,-1.27,1.79,-1.30,0.49,1.23,0.89,
3.433,-1.27,1.79,-1.30,0.51,1.27,0.92,
3.433,-1.27,1.79,-1.30,0.53,1.30,0.94,
3.434,-1.48,1.94,-1.80,0.53,1.30,0.94,
3.434,-1.48,1.94,-1.80,0.54,1.34,0.97,
3.434,-1.59,2.04,-2.22,0.54,1.34,0.97,
3.434,-1.59,2.04,-2.22,0.55,1.38,0.99,
3.435,-1.59,2.04,-2.22,0.55,1.40,1.02,
3.437,-1.59,2.04,-2.22,0.54,1.42,1.05,
3.437,-1.67,1.77,-2.70,0.54,1.42,1.05,
3.439,-1.67,1.77,-2.70,0.52,1.43,1.07,
3.442,-1.67,1.77,-2.70,0.50,1.44,1.09,
3.442,-1.20,1.48,-3.20,0.50,1.44,1.09,
3.45,-1.20,1.48,-3.20,0.47,1.45,1.11,
3.453,-1.84,1.43,-3.51,0.47,1.45,1.11,
3.453,-1.84,1.43,-3.51,0.44,1.46,1.15,
3.453,-1.84,1.43,-3.51,0.41,1.47,1.19,
3.454,-1.96,1.33,-3.56,0.41,1.47,1.19,
3.454,-1.96,1.33,-3.56,0.38,1.47,1.24,
3.455,-1.96,1.33,-3.56,0.35,1.46,1.29,
3.457,-2.16,1.48,-3.59,0.35,1.46,1.29,
3.457,-2.16,1.48,-3.59,0.32,1.44,1.34,
3.459,-2.16,1.48,-3.59,0.29,1.42,1.39,
3.469,-2.03,1.49,-3.57,0.29,1.42,1.39,
3.47,-2.03,1.49,-3.57,0.27,1.40,1.43,
3.471,-2.03,1.49,-3.57,0.24,1.38,1.48,
3.471,-2.03,1.49,-3.57,0.22,1.36,1.52,
3.472,-1.84,1.41,-3.56,0.22,1.36,1.52,
3.472,-1.84,1.41,-3.56,0.20,1.34,1.56,
3.473,-1.35,1.34,-3.56,0.20,1.34,1.56,
3.473,-1.35,1.34,-3.56,0.19,1.33,1.59,
3.474,-1.35,1.34,-3.56,0.18,1.32,1.62,
3.477,-1.21,1.15,-3.39,0.18,1.32,1.62,
3.477,-1.21,1.15,-3.39,0.17,1.29,1.65,
3.487,-1.21,1.15,-3.39,0.18,1.27,1.69,
3.488,-1.22,1.15,-2.99,0.18,1.27,1.69,
3.488,-1.22,1.15,-2.99,0.19,1.24,1.72,
3.489,-1.22,1.15,-2.99,0.21,1.21,1.76,
3.489,-1.18,1.38,-2.57,0.21,1.21,1.76,
3.49,-1.18,1.38,-2.57,0.24,1.18,1.80,
3.49,-1.18,1.38,-2.57,0.28,1.17,1.84,
3.491,-1.18,1.38,-2.57,0.33,1.16,1.88,
3.491,-0.96,1.54,-2.35,0.33,1.16,1.88,
3.493,-0.96,1.54,-2.35,0.38,1.17,1.90,
3.496,-0.96,1.54,-2.35,0.43,1.19,1.93,
3.497,-0.82,1.65,-2.25,0.43,1.19,1.93,
3.499,-0.82,1.65,-2.25,0.49,1.22,1.95,
3.501,-0.80,1.95,-2.01,0.49,1.22,1.95,
3.501,-0.80,1.95,-2.01,0.54,1.24,1.96,
3.503,-0.80,1.95,-2.01,0.61,1.27,1.97,
3.506,-0.80,1.95,-2.01,0.67,1.30,1.98,
3.506,-0.82,2.24,-1.69,0.67,1.30,1.98,
3.508,-0.82,2.24,-1.69,0.73,1.33,1.99,
3.511,-0.58,2.37,-1.54,0.73,1.33,1.99,
3.512,-0.58,2.37,-1.54,0.79,1.36,1.98,
3.515,-0.58,2.37,-1.54,0.84,1.38,1.95,
3.516,-0.58,2.37,-1.54,0.89,1.38,1.93,
3.516,-0.73,2.65,-1.18,0.89,1.38,1.93,
3.519,-0.73,2.65,-1.18,0.95,1.39,1.90,
3.521,-0.73,2.65,-1.18,0.99,1.38,1.87,
3.522,-0.85,2.86,-1.06,0.99,1.38,1.87,
3.524,-0.85,2.86,-1.06,1.03,1.36,1.83,
3.526,-0.85,2.86,-1.06,1.07,1.33,1.79,
3.526,-1.22,2.98,-0.94,1.07,1.33,1.79,
3.529,-1.22,2.98,-0.94,1.10,1.30,1.75,
3.532,-1.22,2.98,-0.94,1.13,1.27,1.72,
3.532,-1.66,3.14,-0.81,1.13,1.27,1.72,
3.533,-1.66,3.14,-0.81,1.15,1.24,1.68,
3.535,-1.66,3.14,-0.81,1.16,1.20,1.64,
3.536,-2.12,3.00,-0.67,1.16,1.20,1.64,
3.538,-2.12,3.00,-0.67,1.17,1.15,1.61,
3.541,-2.12,3.00,-0.67,1.17,1.10,1.58,
3.541,-2.68,2.80,-0.32,1.17,1.10,1.58,
3.543,-2.68,2.80,-0.32,1.18,1.03,1.55,
3.548,-2.68,2.80,-0.32,1.18,0.96,1.53,
3.548,-3.09,2.61,0.14,1.18,0.96,1.53,
3.549,-3.09,2.61,0.14,1.18,0.90,1.50,
3.551,-3.33,2.33,0.51,1.18,0.90,1.50,
3.556,-3.33,2.33,0.51,1.18,0.85,1.46,
3.556,-3.33,2.33,0.51,1.18,0.83,1.42,
3.556,-3.33,2.33,0.51,1.18,0.80,1.38,
3.557,-3.59,2.00,0.86,1.18,0.80,1.38,
3.558,-3.59,2.00,0.86,1.18,0.76,1.34,
3.561,-3.59,2.00,0.86,1.18,0.72,1.29,
3.561,-3.82,1.61,1.36,1.18,0.72,1.29,
3.575,-3.82,1.61,1.36,1.18,0.69,1.24,
3.576,-3.82,1.61,1.36,1.17,0.67,1.19,
3.576,-3.84,1.02,1.60,1.17,0.67,1.19,
3.577,-3.84,1.02,1.60,1.15,0.66,1.13,
3.577,-3.84,1.02,1.60,1.11,0.68,1.07,
3.577,-3.80,0.33,1.30,1.11,0.68,1.07,
3.606,-3.80,0.33,1.30,1.07,0.70,1.00,
3.607,-3.80,0.33,1.30,1.01,0.74,0.92,
3.607,-3.83,-0.25,1.00,1.01,0.74,0.92,
3.607,-3.83,-0.25,1.00,0.92,0.78,0.85,
3.608,-3.87,-0.93,0.30,0.92,0.78,0.85,
3.608,-3.87,-0.93,0.30,0.81,0.82,0.77,
3.609,-3.87,-0.93,0.30,0.68,0.88,0.68,
3.609,-3.87,-0.93,0.30,0.52,0.93,0.60,
3.609,-4.01,-1.58,-0.36,0.52,0.93,0.60,
3.61,-4.01,-1.58,-0.36,0.37,0.99,0.51,
3.61,-3.97,-2.27,-0.39,0.37,0.99,0.51,
3.61,-3.97,-2.27,-0.39,0.22,1.05,0.43,
3.61,-3.97,-2.27,-0.39,0.08,1.10,0.36,
3.611,-3.97,-2.27,-0.39,-0.03,1.14,0.28,
3.611,-3.71,-2.87,0.21,-0.03,1.14,0.28,
3.611,-3.71,-2.87,0.21,-0.12,1.16,0.20,
3.611,-3.45,-3.31,0.53,-0.12,1.16,0.20,
3.612,-3.45,-3.31,0.53,-0.20,1.17,0.13,
3.612,-3.45,-3.31,0.53,-0.26,1.16,0.07,
3.612,-3.45,-3.31,0.53,-0.32,1.12,0.01,
3.612,-3.15,-3.76,0.76,-0.32,1.12,0.01,
3.613,-3.15,-3.76,0.76,-0.36,1.07,-0.05,
3.613,-3.15,-3.76,0.76,-0.39,1.00,-0.12,
3.613,-2.39,-4.03,0.77,-0.39,1.00,-0.12,
3.614,-2.39,-4.03,0.77,-0.42,0.91,-0.19,
3.618,-1.75,-4.05,0.67,-0.42,0.91,-0.19,
3.618,-1.75,-4.05,0.67,-0.45,0.81,-0.27,
3.618,-1.75,-4.05,0.67,-0.47,0.71,-0.34,
3.62,-1.47,-3.90,0.48,-0.47,0.71,-0.34,
3.621,-1.47,-3.90,0.48,-0.48,0.61,-0.41,
3.622,-1.47,-3.90,0.48,-0.49,0.52,-0.47,
3.625,-1.47,-3.90,0.48,-0.50,0.42,-0.53,
3.625,-1.36,-3.64,0.47,-0.50,0.42,-0.53,
3.627,-1.36,-3.64,0.47,-0.50,0.35,-0.58,
3.63,-1.29,-3.36,0.30,-0.50,0.35,-0.58,
3.631,-1.29,-3.36,0.30,-0.50,0.29,-0.63,
3.632,-1.29,-3.36,0.30,-0.50,0.24,-0.68,
3.635,-1.26,-2.91,0.35,-0.50,0.24,-0.68,
3.635,-1.26,-2.91,0.35,-0.50,0.18,-0.72,
3.637,-1.26,-2.91,0.35,-0.50,0.14,-0.77,
3.64,-1.51,-2.59,0.28,-0.50,0.14,-0.77,
3.64,-1.51,-2.59,0.28,-0.51,0.09,-0.81,
3.642,-1.51,-2.59,0.28,-0.53,0.05,-0.85,
3.657,-1.51,-2.59,0.28,-0.54,0.02,-0.89,
3.657,-1.81,-2.38,0.37,-0.54,0.02,-0.89,
3.658,-1.81,-2.38,0.37,-0.56,-0.01,-0.93,
3.66,-1.81,-2.38,0.37,-0.58,-0.03,-0.98,
3.66,-2.10,-2.24,0.61,-0.58,-0.03,-0.98,
3.66,-2.10,-2.24,0.61,-0.59,-0.04,-1.02,
3.66,-2.35,-1.97,0.85,-0.59,-0.04,-1.02,
3.661,-2.35,-1.97,0.85,-0.61,-0.06,-1.07,
3.662,-2.35,-1.97,0.85,-0.63,-0.09,-1.12,
3.662,-2.56,-1.82,1.02,-0.63,-0.09,-1.12,
3.662,-2.56,-1.82,1.02,-0.65,-0.11,-1.17,
3.663,-2.56,-1.82,1.02,-0.66,-0.14,-1.22,
3.667,-2.48,-1.64,1.15,-0.66,-0.14,-1.22,
3.667,-2.48,-1.64,1.15,-0.67,-0.18,-1.28,
3.668,-2.48,-1.64,1.15,-0.69,-0.22,-1.34,
3.67,-2.48,-1.64,1.15,-0.70,-0.27,-1.41,
3.67,-2.29,-1.58,0.96,-0.70,-0.27,-1.41,
3.672,-2.29,-1.58,0.96,-0.73,-0.30,-1.47,
3.674,-2.29,-1.58,0.96,-0.75,-0.33,-1.52,
3.675,-2.77,-1.64,0.61,-0.75,-0.33,-1.52,
3.677,-2.77,-1.64,0.61,-0.78,-0.34,-1.55,
3.68,-2.67,-1.30,0.22,-0.78,-0.34,-1.55,
3.68,-2.67,-1.30,0.22,-0.80,-0.34,-1.57,
3.684,-2.67,-1.30,0.22,-0.82,-0.33,-1.59,
3.685,-2.67,-1.30,0.22,-0.85,-0.34,-1.61,
3.685,-1.99,-1.07,-0.12,-0.85,-0.34,-1.61,
3.687,-1.99,-1.07,-0.12,-0.88,-0.36,-1.62,
3.691,-1.99,-1.07,-0.12,-0.92,-0.39,-1.62,
3.691,-1.76,-0.95,-0.42,-0.92,-0.39,-1.62,
3.693,-1.76,-0.95,-0.42,-0.96,-0.41,-1.60,
3.695,-1.76,-0.95,-0.42,-1.01,-0.40,-1.57,
3.696,-1.78,-0.99,-1.18,-1.01,-0.40,-1.57,
3.7,-1.78,-0.99,-1.18,-1.06,-0.40,-1.52,
3.7,-1.78,-0.99,-1.18,-1.12,-0.41,-1.46,
3.7,-1.21,-0.82,-1.60,-1.12,-0.41,-1.46,
3.702,-1.21,-0.82,-1.60,-1.19,-0.46,-1.40,
3.704,-1.21,-0.82,-1.60,-1.25,-0.52,-1.32,
3.705,-0.73,-0.54,-1.81,-1.25,-0.52,-1.32,
3.707,-0.73,-0.54,-1.81,-1.33,-0.57,-1.23,
3.71,-0.73,-0.54,-1.81,-1.41,-0.61,-1.13,
3.71,-0.82,-1.15,-1.60,-1.41,-0.61,-1.13,
3.713,-0.82,-1.15,-1.60,-1.47,-0.64,-1.01,
3.715,-1.08,-1.85,-0.07,-1.47,-0.64,-1.01,
3.715,-1.08,-1.85,-0.07,-1.51,-0.67,-0.87,
3.717,-1.08,-1.85,-0.07,-1.51,-0.72,-0.73,
3.719,-0.56,-1.57,3.10,-1.51,-0.72,-0.73,
3.72,-0.56,-1.57,3.10,-1.45,-0.78,-0.61,
3.722,-0.56,-1.57,3.10,-1.33,-0.84,-0.52,
3.724,-0.56,-1.57,3.10,-1.15,-0.89,-0.47,
3.725,1.13,0.02,6.11,-1.15,-0.89,-0.47,
3.726,1.13,0.02,6.11,-0.93,-0.93,-0.48,
3.73,1.13,0.02,6.11,-0.71,-0.95,-0.51,
3.733,2.04,1.22,7.29,-0.71,-0.95,-0.51,
3.733,2.04,1.22,7.29,-0.48,-0.97,-0.56,
3.734,2.04,1.22,7.29,-0.26,-0.98,-0.62,
3.734,2.14,2.11,7.19,-0.26,-0.98,-0.62,
3.736,2.14,2.11,7.19,-0.08,-0.98,-0.68,
3.757,2.14,2.11,7.19,0.09,-0.96,-0.74,
3.757,2.15,2.73,6.46,0.09,-0.96,-0.74,
3.757,2.15,2.73,6.46,0.23,-0.93,-0.79,
3.758,2.15,2.73,6.46,0.34,-0.89,-0.83,
3.758,2.26,3.17,5.67,0.34,-0.89,-0.83,
3.758,2.26,3.17,5.67,0.43,-0.84,-0.87,
3.759,2.26,3.17,5.67,0.50,-0.78,-0.91,
3.759,2.69,3.33,5.11,0.50,-0.78,-0.91,
3.759,2.69,3.33,5.11,0.56,-0.71,-0.94,
3.76,2.69,3.33,5.11,0.59,-0.63,-0.96,
3.76,3.06,3.17,4.60,0.59,-0.63,-0.96,
3.76,3.06,3.17,4.60,0.61,-0.54,-0.98,
3.76,3.06,3.17,4.60,0.59,-0.46,-0.99,
3.761,3.27,2.72,3.47,0.59,-0.46,-0.99,
3.761,3.27,2.72,3.47,0.54,-0.39,-0.99,
3.768,3.04,2.15,2.48,0.54,-0.39,-0.99,
3.77,3.04,2.15,2.48,0.46,-0.34,-0.97,
3.77,3.04,2.15,2.48,0.36,-0.31,-0.94,
3.77,3.04,2.15,2.48,0.25,-0.29,-0.89,
3.771,3.04,2.15,2.48,0.12,-0.28,-0.84,
3.773,2.76,1.52,1.80,0.12,-0.28,-0.84,
3.774,2.74,0.87,1.26,0.12,-0.28,-0.84,
3.774,2.74,0.87,1.26,-0.01,-0.28,-0.78,
3.776,2.74,0.87,1.26,-0.14,-0.27,-0.71,
3.779,2.74,0.87,1.26,-0.26,-0.25,-0.66,
3.78,3.03,0.22,1.01,-0.26,-0.25,-0.66,
3.79,3.03,0.22,1.01,-0.36,-0.21,-0.61,
3.791,3.61,-0.45,0.54,-0.36,-0.21,-0.61,
3.791,3.61,-0.45,0.54,-0.46,-0.17,-0.57,
3.792,3.61,-0.45,0.54,-0.55,-0.10,-0.54,
3.792,4.13,-1.06,0.43,-0.55,-0.10,-0.54,
3.792,4.13,-1.06,0.43,-0.62,-0.02,-0.52,
3.792,4.13,-1.06,0.43,-0.68,0.06,-0.51,
3.793,4.13,-1.06,0.43,-0.71,0.13,-0.51,
3.794,4.38,-1.52,0.50,-0.71,0.13,-0.51,
3.796,4.38,-1.52,0.50,-0.73,0.19,-0.52,
3.799,4.51,-1.68,0.72,-0.73,0.19,-0.52,
3.799,4.51,-1.68,0.72,-0.72,0.25,-0.53,
3.801,4.51,-1.68,0.72,-0.69,0.30,-0.55,
3.804,4.51,-1.68,0.72,-0.65,0.34,-0.56,
3.804,4.39,-1.52,0.94,-0.65,0.34,-0.56,
3.805,4.39,-1.52,0.94,-0.58,0.36,-0.57,
3.808,4.39,-1.52,0.94,-0.50,0.37,-0.58,
3.808,4.04,-1.27,1.24,-0.50,0.37,-0.58,
3.811,4.04,-1.27,1.24,-0.40,0.37,-0.58,
3.814,3.66,-0.90,1.40,-0.40,0.37,-0.58,
3.815,3.66,-0.90,1.40,-0.30,0.35,-0.58,
3.817,3.66,-0.90,1.40,-0.18,0.33,-0.59,
3.819,3.66,-0.90,1.40,-0.06,0.31,-0.59,
3.82,3.32,-0.55,1.46,-0.06,0.31,-0.59,
3.822,3.32,-0.55,1.46,0.07,0.29,-0.59,
3.823,3.32,-0.55,1.46,0.19,0.27,-0.60,
3.823,3.09,-0.27,1.30,0.19,0.27,-0.60,
3.826,3.09,-0.27,1.30,0.32,0.25,-0.60,
3.829,3.09,-0.27,1.30,0.43,0.22,-0.61,
3.829,2.83,-0.05,1.08,0.43,0.22,-0.61,
3.831,2.83,-0.05,1.08,0.55,0.19,-0.63,
3.834,2.83,-0.05,1.08,0.65,0.14,-0.64,
3.834,2.64,0.11,0.93,0.65,0.14,-0.64,
3.836,2.64,0.11,0.93,0.76,0.11,-0.66,
3.838,2.64,0.11,0.93,0.84,0.07,-0.69,
3.838,2.51,0.15,0.67,0.84,0.07,-0.69,
3.841,2.51,0.15,0.67,0.93,0.04,-0.71,
3.844,2.51,0.15,0.67,1.00,0.01,-0.74,
3.844,2.35,0.17,0.56,1.00,0.01,-0.74,
3.848,2.35,0.17,0.56,1.06,-0.02,-0.77,
3.85,2.35,0.17,0.56,1.12,-0.06,-0.80,
3.851,2.05,0.13,0.48,1.12,-0.06,-0.80,
3.851,2.05,0.13,0.48,1.17,-0.08,-0.84,
3.853,1.71,0.12,0.59,1.17,-0.08,-0.84,
3.853,1.71,0.12,0.59,1.21,-0.12,-0.86,
3.855,1.71,0.12,0.59,1.24,-0.15,-0.89,
3.858,1.31,0.09,0.72,1.24,-0.15,-0.89,
3.859,1.31,0.09,0.72,1.27,-0.19,-0.92,
3.86,1.31,0.09,0.72,1.28,-0.23,-0.94,
3.87,0.86,0.14,0.81,1.28,-0.23,-0.94,
3.87,0.86,0.14,0.81,1.29,-0.26,-0.95,
3.87,0.86,0.14,0.81,1.29,-0.30,-0.96,
3.871,0.86,0.14,0.81,1.27,-0.32,-0.97,
3.871,0.53,0.02,0.71,1.27,-0.32,-0.97,
3.871,0.53,0.02,0.71,1.26,-0.33,-0.99,
3.873,0.53,0.02,0.71,1.24,-0.34,-1.00,
3.873,0.25,-0.13,0.78,1.24,-0.34,-1.00,
3.875,0.25,-0.13,0.78,1.21,-0.34,-1.00,
3.878,0.25,-0.13,0.78,1.17,-0.34,-1.01,
3.878,-0.08,-0.33,0.68,1.17,-0.34,-1.01,
3.88,-0.08,-0.33,0.68,1.13,-0.34,-1.02,
3.884,-0.08,-0.33,0.68,1.07,-0.33,-1.02,
3.885,-0.28,-0.61,0.40,1.07,-0.33,-1.02,
3.885,-0.28,-0.61,0.40,1.00,-0.32,-1.02,
3.887,-0.28,-0.61,0.40,0.92,-0.31,-1.03,
3.888,-0.47,-0.84,0.25,0.92,-0.31,-1.03,
3.89,-0.47,-0.84,0.25,0.85,-0.29,-1.04,
3.892,-0.47,-0.84,0.25,0.77,-0.26,-1.04,
3.893,-0.54,-1.08,0.10,0.77,-0.26,-1.04,
3.895,-0.54,-1.08,0.10,0.68,-0.24,-1.05,
3.898,-0.54,-1.08,0.10,0.60,-0.22,-1.06,
3.898,-0.56,-1.37,0.08,0.60,-0.22,-1.06,
3.9,-0.56,-1.37,0.08,0.53,-0.21,-1.07,
3.903,-0.56,-1.37,0.08,0.45,-0.20,-1.07,
3.923,-0.84,-1.57,0.08,0.45,-0.20,-1.07,
3.924,-0.84,-1.57,0.08,0.38,-0.20,-1.08,
3.924,-0.84,-1.57,0.08,0.31,-0.20,-1.08,
3.924,-1.08,-1.71,-0.03,0.31,-0.20,-1.08,
3.925,-1.08,-1.71,-0.03,0.25,-0.21,-1.08,
3.925,-1.31,-1.93,-0.37,0.25,-0.21,-1.08,
3.926,-1.31,-1.93,-0.37,0.19,-0.22,-1.08,
3.926,-1.31,-1.93,-0.37,0.13,-0.24,-1.08,
3.927,-1.31,-1.93,-0.37,0.06,-0.24,-1.08,
3.927,-1.65,-2.22,-0.86,0.06,-0.24,-1.08,
3.928,-1.65,-2.22,-0.86,0.00,-0.25,-1.07,
3.928,-1.65,-2.22,-0.86,-0.06,-0.26,-1.06,
3.929,-2.16,-2.34,-1.29,-0.06,-0.26,-1.06,
3.929,-2.16,-2.34,-1.29,-0.12,-0.26,-1.05,
3.929,-2.16,-2.34,-1.29,-0.17,-0.28,-1.02,
3.93,-2.73,-2.38,-1.44,-0.17,-0.28,-1.02,
3.932,-2.73,-2.38,-1.44,-0.22,-0.31,-1.00,
3.933,-2.73,-2.38,-1.44,-0.26,-0.36,-0.98,
3.933,-2.99,-2.50,-1.59,-0.26,-0.36,-0.98,
3.935,-2.99,-2.50,-1.59,-0.28,-0.40,-0.97,
3.937,-2.99,-2.50,-1.59,-0.30,-0.46,-0.95,
3.937,-3.12,-2.43,-1.69,-0.30,-0.46,-0.95,
3.94,-3.12,-2.43,-1.69,-0.32,-0.51,-0.94,
3.942,-3.12,-2.43,-1.69,-0.32,-0.55,-0.92,
3.942,-3.23,-2.30,-1.82,-0.32,-0.55,-0.92,
3.944,-3.23,-2.30,-1.82,-0.33,-0.60,-0.91,
3.952,-3.23,-2.30,-1.82,-0.33,-0.65,-0.90,
3.953,-2.99,-2.04,-1.95,-0.33,-0.65,-0.90,
3.953,-2.99,-2.04,-1.95,-0.33,-0.71,-0.89,
3.954,-2.99,-2.04,-1.95,-0.33,-0.78,-0.90,
3.954,-2.43,-2.11,-1.88,-0.33,-0.78,-0.90,
3.954,-2.43,-2.11,-1.88,-0.32,-0.85,-0.91,
3.957,-2.43,-2.11,-1.88,-0.32,-0.92,-0.92,
3.958,-2.11,-1.84,-1.90,-0.32,-0.92,-0.92,
3.96,-2.11,-1.84,-1.90,-0.32,-1.01,-0.94,
3.964,-2.11,-1.84,-1.90,-0.32,-1.12,-0.96,
3.964,-1.41,-1.81,-1.90,-0.32,-1.12,-0.96,
3.964,-1.41,-1.81,-1.90,-0.31,-1.23,-1.00,
3.967,-1.41,-1.81,-1.90,-0.29,-1.32,-1.02,
3.967,-1.31,-1.50,-1.69,-0.29,-1.32,-1.02,
3.969,-1.31,-1.50,-1.69,-0.27,-1.41,-1.04,
3.972,-1.31,-1.50,-1.69,-0.25,-1.49,-1.04,
3.972,-1.39,-0.93,-1.91,-0.25,-1.49,-1.04,
3.974,-1.39,-0.93,-1.91,-0.23,-1.53,-1.03,
3.977,-1.39,-0.93,-1.91,-0.21,-1.55,-1.03,
3.977,-1.08,-0.75,-2.25,-0.21,-1.55,-1.03,
3.98,-1.08,-0.75,-2.25,-0.19,-1.54,-1.02,
3.982,-1.08,-0.75,-2.25,-0.16,-1.53,-1.00,
3.982,-1.00,-0.33,-2.26,-0.16,-1.53,-1.00,
3.984,-1.00,-0.33,-2.26,-0.13,-1.52,-0.97,
3.988,-1.00,-0.33,-2.26,-0.11,-1.53,-0.94,
3.988,-0.94,0.24,-2.13,-0.11,-1.53,-0.94,
3.99,-0.94,0.24,-2.13,-0.07,-1.54,-0.89,
3.992,-0.94,0.24,-2.13,-0.03,-1.55,-0.84,
3.992,-0.98,0.98,-1.84,-0.03,-1.55,-0.84,
3.994,-0.98,0.98,-1.84,0.01,-1.57,-0.77,
3.997,-0.40,1.34,-1.90,0.01,-1.57,-0.77,
3.997,-0.40,1.34,-1.90,0.04,-1.62,-0.72,
3.999,-0.40,1.34,-1.90,0.06,-1.69,-0.68,
4.002,-0.40,1.34,-1.90,0.08,-1.77,-0.65,
4.002,-0.01,1.61,-1.91,0.08,-1.77,-0.65,
4.004,-0.01,1.61,-1.91,0.07,-1.84,-0.61,
4.007,-0.01,1.61,-1.91,0.07,-1.90,-0.58,
4.007,0.15,2.08,-2.49,0.07,-1.90,-0.58,
4.009,0.15,2.08,-2.49,0.05,-1.94,-0.54,
4.012,0.15,2.08,-2.49,0.03,-1.96,-0.50,
4.012,0.16,2.63,-2.84,0.03,-1.96,-0.50,
4.014,0.16,2.63,-2.84,0.02,-1.97,-0.45,
4.017,0.16,2.63,-2.84,0.00,-1.96,-0.41,
4.017,0.17,3.24,-3.08,0.00,-1.96,-0.41,
4.019,0.17,3.24,-3.08,-0.02,-1.94,-0.36,
4.021,0.17,3.24,-3.08,-0.04,-1.92,-0.32,
4.022,0.42,3.72,-3.42,-0.04,-1.92,-0.32,
4.024,0.42,3.72,-3.42,-0.06,-1.87,-0.29,
4.026,0.42,3.72,-3.42,-0.08,-1.81,-0.26,
4.027,0.53,3.94,-3.60,-0.08,-1.81,-0.26,
4.03,0.53,3.94,-3.60,-0.09,-1.74,-0.23,
4.033,0.42,4.32,-4.11,-0.09,-1.74,-0.23,
4.033,0.42,4.32,-4.11,-0.11,-1.66,-0.19,
4.035,0.42,4.32,-4.11,-0.12,-1.54,-0.17,
4.037,0.42,4.32,-4.11,-0.12,-1.39,-0.17,
4.037,0.65,4.16,-4.64,-0.12,-1.39,-0.17,
4.039,0.65,4.16,-4.64,-0.12,-1.25,-0.18,
4.041,0.65,4.16,-4.64,-0.14,-1.15,-0.20,
4.041,0.78,4.02,-4.92,-0.14,-1.15,-0.20,
4.043,0.78,4.02,-4.92,-0.17,-1.07,-0.22,
4.048,0.78,4.02,-4.92,-0.19,-1.00,-0.25,
4.048,0.69,3.86,-5.00,-0.19,-1.00,-0.25,
4.049,0.69,3.86,-5.00,-0.22,-0.95,-0.26,
4.051,0.69,3.86,-5.00,-0.24,-0.89,-0.27,
4.051,0.36,3.60,-4.83,-0.24,-0.89,-0.27,
4.059,0.14,3.21,-4.71,-0.24,-0.89,-0.27,
4.059,0.14,3.21,-4.71,-0.26,-0.84,-0.27,
4.059,0.14,3.21,-4.71,-0.27,-0.80,-0.27,
4.06,0.14,3.21,-4.71,-0.29,-0.77,-0.26,
4.061,0.20,2.78,-4.66,-0.29,-0.77,-0.26,
4.062,0.20,2.78,-4.66,-0.31,-0.74,-0.25,
4.066,0.20,2.78,-4.66,-0.33,-0.73,-0.24,
4.067,0.20,2.78,-4.66,-0.36,-0.71,-0.23,
4.067,0.34,2.19,-4.69,-0.36,-0.71,-0.23,
4.084,0.34,2.19,-4.69,-0.38,-0.69,-0.23,
4.084,0.34,2.19,-4.69,-0.40,-0.68,-0.22,
4.084,0.36,1.48,-4.37,-0.40,-0.68,-0.22,
4.085,0.36,1.48,-4.37,-0.41,-0.66,-0.22,
4.085,0.36,1.48,-4.37,-0.43,-0.63,-0.21,
4.085,0.35,0.75,-4.28,-0.43,-0.63,-0.21,
4.086,0.35,0.75,-4.28,-0.45,-0.63,-0.21,
4.086,0.35,0.75,-4.28,-0.46,-0.65,-0.21,
4.086,0.29,0.29,-3.74,-0.46,-0.65,-0.21,
4.087,0.29,0.29,-3.74,-0.46,-0.67,-0.21,
4.087,0.29,0.29,-3.74,-0.45,-0.69,-0.21,
4.088,0.39,-0.13,-3.24,-0.45,-0.69,-0.21,
4.089,0.39,-0.13,-3.24,-0.43,-0.71,-0.22,
4.093,0.39,-0.13,-3.24,-0.41,-0.73,-0.24,
4.093,0.41,-0.30,-2.94,-0.41,-0.73,-0.24,
4.093,0.41,-0.30,-2.94,-0.39,-0.75,-0.26,
4.097,0.25,-0.41,-2.64,-0.39,-0.75,-0.26,
4.098,0.25,-0.41,-2.64,-0.36,-0.76,-0.27,
4.099,0.25,-0.41,-2.64,-0.32,-0.78,-0.29,
4.101,0.25,-0.41,-2.64,-0.28,-0.79,-0.31,
4.101,-0.04,-0.56,-2.30,-0.28,-0.79,-0.31,
4.103,-0.04,-0.56,-2.30,-0.24,-0.81,-0.32,
4.105,-0.04,-0.56,-2.30,-0.19,-0.83,-0.33,
4.106,-0.53,-0.72,-1.82,-0.19,-0.83,-0.33,
4.109,-0.53,-0.72,-1.82,-0.15,-0.87,-0.33,
4.111,-0.53,-0.72,-1.82,-0.10,-0.90,-0.32,
4.111,-1.31,-0.82,-1.42,-0.10,-0.90,-0.32,
4.113,-1.31,-0.82,-1.42,-0.05,-0.94,-0.30,
4.116,-1.31,-0.82,-1.42,0.00,-0.97,-0.28,
4.116,-2.04,-0.78,-1.16,0.00,-0.97,-0.28,
4.118,-2.04,-0.78,-1.16,0.05,-0.99,-0.26,
4.12,-2.04,-0.78,-1.16,0.10,-1.00,-0.22,
4.12,-2.93,-0.71,-0.84,0.10,-1.00,-0.22,
4.123,-2.93,-0.71,-0.84,0.14,-1.00,-0.18,
4.125,-2.93,-0.71,-0.84,0.17,-1.00,-0.14,
4.125,-3.77,-0.72,-0.45,0.17,-1.00,-0.14,
4.128,-3.77,-0.72,-0.45,0.19,-1.00,-0.10,
4.131,-4.41,-0.80,-0.07,0.19,-1.00,-0.10,
4.131,-4.41,-0.80,-0.07,0.19,-1.00,-0.05,
4.133,-4.41,-0.80,-0.07,0.19,-0.99,-0.01,
4.136,-4.41,-0.80,-0.07,0.16,-0.98,0.03,
4.136,-4.50,-0.94,0.04,0.16,-0.98,0.03,
4.138,-4.50,-0.94,0.04,0.12,-0.97,0.05,
4.14,-4.50,-0.94,0.04,0.06,-0.92,0.06,
4.14,-4.16,-1.15,0.01,0.06,-0.92,0.06,
4.144,-4.16,-1.15,0.01,-0.02,-0.86,0.07,
4.145,-4.16,-1.15,0.01,-0.11,-0.78,0.07,
4.145,-3.71,-1.48,0.20,-0.11,-0.78,0.07,
4.149,-3.71,-1.48,0.20,-0.21,-0.68,0.07,
4.151,-3.42,-1.84,0.64,-0.21,-0.68,0.07,
4.153,-3.42,-1.84,0.64,-0.32,-0.56,0.06,
4.153,-3.42,-1.84,0.64,-0.44,-0.43,0.06,
4.156,-3.57,-1.82,0.99,-0.44,-0.43,0.06,
4.156,-3.57,-1.82,0.99,-0.56,-0.31,0.08,
4.161,-3.57,-1.82,0.99,-0.69,-0.20,0.10,
4.173,-3.34,-1.92,1.68,-0.69,-0.20,0.10,
4.173,-3.34,-1.92,1.68,-0.80,-0.10,0.12,
4.174,-3.34,-1.92,1.68,-0.89,-0.00,0.14,
4.174,-3.34,-1.92,1.68,-0.96,0.08,0.16,
4.174,-3.26,-1.95,2.28,-0.96,0.08,0.16,
4.175,-3.26,-1.95,2.28,-1.01,0.16,0.18,
4.175,-3.16,-1.86,2.31,-1.01,0.16,0.18,
4.175,-3.16,-1.86,2.31,-1.05,0.24,0.20,
4.176,-3.16,-1.86,2.31,-1.06,0.34,0.22,
4.176,-3.16,-1.86,2.31,-1.06,0.42,0.24,
4.176,-3.10,-1.66,2.01,-1.06,0.42,0.24,
4.178,-3.10,-1.66,2.01,-1.05,0.51,0.22,
4.181,-2.90,-2.04,1.28,-1.05,0.51,0.22,
4.182,-2.90,-2.04,1.28,-1.03,0.63,0.14,
4.183,-2.90,-2.04,1.28,-0.99,0.80,0.06,
4.185,-2.90,-2.04,1.28,-0.94,0.95,-0.02,
4.186,-3.00,-1.62,0.60,-0.94,0.95,-0.02,
4.188,-3.00,-1.62,0.60,-0.90,1.12,-0.09,
4.191,-3.00,-1.62,0.60,-0.85,1.31,-0.13,
4.191,-2.97,-0.95,-0.63,-0.85,1.31,-0.13,
4.193,-2.97,-0.95,-0.63,-0.82,1.49,-0.16,
4.195,-2.97,-0.95,-0.63,-0.79,1.69,-0.17,
4.196,-2.73,-0.08,-1.85,-0.79,1.69,-0.17,
4.197,-2.73,-0.08,-1.85,-0.76,1.88,-0.16,
4.2,-2.73,-0.08,-1.85,-0.72,2.04,-0.13,
4.2,-1.98,1.08,-1.73,-0.72,2.04,-0.13,
4.204,-1.98,1.08,-1.73,-0.66,2.10,-0.08,
4.206,-1.98,1.08,-1.73,-0.56,2.01,-0.01,
4.206,-2.06,1.72,1.83,-0.56,2.01,-0.01,
4.207,-2.06,1.72,1.83,-0.40,1.74,0.09,
4.211,-2.06,1.72,1.83,-0.19,1.40,0.19,
4.211,-2.89,1.02,5.72,-0.19,1.40,0.19,
4.214,-2.89,1.02,5.72,0.08,1.05,0.27,
4.217,-2.89,1.02,5.72,0.39,0.68,0.31,
4.217,-2.22,0.06,7.49,0.39,0.68,0.31,
4.218,-2.22,0.06,7.49,0.70,0.29,0.33,
4.222,-2.22,0.06,7.49,0.98,-0.08,0.30,
4.222,-0.61,-1.95,6.14,0.98,-0.08,0.30,
4.224,-0.61,-1.95,6.14,1.22,-0.39,0.23,
4.227,-0.61,-1.95,6.14,1.43,-0.68,0.15,
4.227,0.95,-4.05,4.00,1.43,-0.68,0.15,
4.23,0.95,-4.05,4.00,1.59,-0.97,0.05,
4.23,3.02,-5.90,0.64,1.59,-0.97,0.05,
4.231,3.02,-5.90,0.64,1.68,-1.17,-0.05,
4.233,3.02,-5.90,0.64,1.68,-1.23,-0.16,
4.255,6.53,-4.75,-2.99,1.68,-1.23,-0.16,
4.255,6.53,-4.75,-2.99,1.61,-1.18,-0.24,
4.255,6.53,-4.75,-2.99,1.51,-1.06,-0.27,
4.255,8.57,-2.87,-2.91,1.51,-1.06,-0.27,
4.255,8.57,-2.87,-2.91,1.41,-0.87,-0.28,
4.256,8.57,-2.87,-2.91,1.33,-0.70,-0.27,
4.256,8.57,-2.87,-2.91,1.29,-0.61,-0.25,
4.256,9.36,-3.07,0.44,1.29,-0.61,-0.25,
4.256,9.36,-3.07,0.44,1.28,-0.61,-0.23,
4.256,9.36,-3.07,0.44,1.26,-0.62,-0.21,
4.256,9.30,-3.53,2.20,1.26,-0.62,-0.21,
4.257,9.30,-3.53,2.20,1.24,-0.63,-0.18,
4.257,9.12,-3.79,2.18,1.24,-0.63,-0.18,
4.257,9.12,-3.79,2.18,1.21,-0.62,-0.15,
4.257,9.12,-3.79,2.18,1.17,-0.59,-0.12,
4.266,9.04,-3.76,1.08,1.17,-0.59,-0.12,
4.266,9.04,-3.76,1.08,1.10,-0.52,-0.09,
4.267,9.04,-3.76,1.08,1.02,-0.44,-0.06,
4.268,8.94,-3.69,0.50,1.02,-0.44,-0.06,
4.269,8.94,-3.69,0.50,0.92,-0.36,-0.04,
4.27,8.94,-3.69,0.50,0.84,-0.32,-0.03,
4.27,8.94,-3.69,0.50,0.77,-0.31,-0.03,
4.271,8.76,-3.80,0.98,0.77,-0.31,-0.03,
4.272,8.76,-3.80,0.98,0.71,-0.34,-0.03,
4.274,8.76,-3.80,0.98,0.65,-0.37,-0.01,
4.275,7.99,-3.53,0.96,0.65,-0.37,-0.01,
4.277,7.99,-3.53,0.96,0.61,-0.39,0.00,
4.28,6.42,-2.38,0.84,0.61,-0.39,0.00,
4.282,6.42,-2.38,0.84,0.58,-0.42,0.04,
4.282,6.42,-2.38,0.84,0.57,-0.43,0.11,
4.285,5.16,-1.27,0.50,0.57,-0.43,0.11,
4.285,5.16,-1.27,0.50,0.56,-0.43,0.18,
4.287,5.16,-1.27,0.50,0.56,-0.43,0.26,
4.29,4.75,-0.48,-0.15,0.56,-0.43,0.26,
4.29,4.75,-0.48,-0.15,0.55,-0.42,0.34,
4.292,4.75,-0.48,-0.15,0.54,-0.40,0.43,
4.295,4.75,-0.48,-0.15,0.52,-0.40,0.52,
4.295,4.45,0.02,-0.55,0.52,-0.40,0.52,
4.297,4.45,0.02,-0.55,0.51,-0.39,0.60,
4.301,4.14,0.21,-0.65,0.51,-0.39,0.60,
4.302,4.14,0.21,-0.65,0.49,-0.38,0.67,
4.302,4.14,0.21,-0.65,0.46,-0.40,0.74,
4.304,3.94,0.28,-0.63,0.46,-0.40,0.74,
4.304,3.94,0.28,-0.63,0.43,-0.43,0.80,
4.307,3.94,0.28,-0.63,0.40,-0.44,0.86,
4.309,3.82,0.31,-0.69,0.40,-0.44,0.86,
4.31,3.82,0.31,-0.69,0.37,-0.45,0.91,
4.314,3.82,0.31,-0.69,0.35,-0.43,0.94,
4.314,3.71,0.45,-0.83,0.35,-0.43,0.94,
4.315,3.71,0.45,-0.83,0.32,-0.41,0.96,
4.318,3.71,0.45,-0.83,0.30,-0.38,0.96,
4.319,3.58,0.52,-0.93,0.30,-0.38,0.96,
4.32,3.58,0.52,-0.93,0.27,-0.33,0.96,
4.322,3.58,0.52,-0.93,0.25,-0.27,0.95,
4.324,3.58,0.52,-0.93,0.23,-0.21,0.94,
4.324,3.26,0.58,-0.95,0.23,-0.21,0.94,
4.327,3.26,0.58,-0.95,0.21,-0.16,0.93,
4.331,3.03,0.58,-0.87,0.21,-0.16,0.93,
4.331,3.03,0.58,-0.87,0.20,-0.11,0.92,
4.333,3.03,0.58,-0.87,0.18,-0.08,0.90,
4.334,2.63,0.69,-0.67,0.18,-0.08,0.90,
4.334,2.63,0.69,-0.67,0.17,-0.06,0.89,
4.336,2.63,0.69,-0.67,0.15,-0.05,0.89,
4.339,2.63,0.69,-0.67,0.14,-0.04,0.89,
4.339,2.24,0.77,-0.58,0.14,-0.04,0.89,
4.342,2.24,0.77,-0.58,0.13,-0.04,0.89,
4.344,2.24,0.77,-0.58,0.11,-0.03,0.89,
4.344,1.88,0.83,-0.49,0.11,-0.03,0.89,
4.352,1.88,0.83,-0.49,0.10,-0.02,0.89,
4.352,1.52,1.04,-0.34,0.10,-0.02,0.89,
4.353,1.52,1.04,-0.34,0.09,-0.01,0.90,
4.353,1.52,1.04,-0.34,0.09,0.01,0.90,
4.354,1.52,1.04,-0.34,0.08,0.04,0.90,
4.354,1.34,1.18,-0.32,0.08,0.04,0.90,
4.357,1.34,1.18,-0.32,0.07,0.06,0.90,
4.359,1.34,1.18,-0.32,0.07,0.09,0.91,
4.359,1.02,1.42,-0.29,0.07,0.09,0.91,
4.362,1.02,1.42,-0.29,0.06,0.12,0.92,
4.368,0.91,1.61,-0.13,0.06,0.12,0.92,
4.368,0.91,1.61,-0.13,0.06,0.14,0.93,
4.368,0.91,1.61,-0.13,0.06,0.16,0.94,
4.369,0.72,1.75,-0.03,0.06,0.16,0.94,
4.369,0.72,1.75,-0.03,0.06,0.19,0.95,
4.371,0.72,1.75,-0.03,0.06,0.20,0.96,
4.374,0.72,1.75,-0.03,0.07,0.22,0.97,
4.374,0.67,1.85,0.18,0.07,0.22,0.97,
4.376,0.67,1.85,0.18,0.07,0.23,0.98,
4.379,0.67,1.85,0.18,0.07,0.23,0.99,
4.379,0.48,1.89,0.30,0.07,0.23,0.99,
4.381,0.48,1.89,0.30,0.08,0.23,1.00,
4.384,0.48,1.89,0.30,0.08,0.24,1.02,
4.384,0.28,1.98,0.41,0.08,0.24,1.02,
4.386,0.28,1.98,0.41,0.08,0.25,1.03,
4.388,0.28,1.98,0.41,0.09,0.27,1.04,
4.388,0.07,2.02,0.49,0.09,0.27,1.04,
4.391,0.07,2.02,0.49,0.09,0.29,1.05,
4.393,-0.08,2.01,0.44,0.09,0.29,1.05,
4.394,-0.08,2.01,0.44,0.09,0.32,1.06,
4.397,-0.08,2.01,0.44,0.09,0.37,1.07,
4.399,0.02,1.90,0.33,0.09,0.37,1.07,
4.42,0.02,1.90,0.33,0.09,0.43,1.08,
4.42,0.02,1.90,0.33,0.09,0.49,1.07,
4.42,0.07,1.83,0.30,0.09,0.49,1.07,
4.421,0.07,1.83,0.30,0.09,0.54,1.07,
4.421,0.07,1.83,0.30,0.08,0.60,1.06,
4.421,0.07,1.83,0.30,0.08,0.66,1.05,
4.422,0.21,1.60,0.27,0.08,0.66,1.05,
4.422,0.21,1.60,0.27,0.07,0.72,1.03,
4.422,0.27,1.40,-0.00,0.07,0.72,1.03,
4.422,0.27,1.40,-0.00,0.06,0.78,1.01,
4.423,0.27,1.40,-0.00,0.04,0.86,0.99,
4.423,0.27,1.40,-0.00,0.01,0.93,0.98,
4.429,0.37,1.41,-0.23,0.01,0.93,0.98,
4.429,0.37,1.41,-0.23,-0.01,1.01,0.96,
4.43,0.37,1.41,-0.23,-0.03,1.07,0.94,
4.43,0.51,1.19,-0.22,-0.03,1.07,0.94,
4.43,0.51,1.19,-0.22,-0.06,1.14,0.92,
4.43,0.51,1.19,-0.22,-0.09,1.20,0.90,
4.431,0.51,1.03,-0.31,-0.09,1.20,0.90,
4.433,0.51,1.03,-0.31,-0.12,1.25,0.88,
4.434,0.51,1.03,-0.31,-0.14,1.30,0.88,
4.434,0.18,1.33,-0.24,-0.14,1.30,0.88,
4.435,0.18,1.33,-0.24,-0.17,1.36,0.88,
4.438,0.18,1.33,-0.24,-0.20,1.43,0.89,
4.438,-0.04,1.45,-0.54,-0.20,1.43,0.89,
4.441,-0.04,1.45,-0.54,-0.23,1.50,0.89,
4.444,-0.04,1.45,-0.54,-0.27,1.57,0.90,
4.444,-0.15,1.43,-0.65,-0.27,1.57,0.90,
4.446,-0.15,1.43,-0.65,-0.30,1.63,0.91,
4.453,-0.15,1.43,-0.65,-0.32,1.68,0.92,
4.454,-0.22,1.46,-0.38,-0.32,1.68,0.92,
4.454,-0.22,1.46,-0.38,-0.33,1.71,0.93,
4.454,-0.22,1.46,-0.38,-0.33,1.74,0.94,
4.455,-0.34,1.53,-0.18,-0.33,1.74,0.94,
4.455,-0.34,1.53,-0.18,-0.33,1.76,0.95,
4.458,-0.34,1.53,-0.18,-0.32,1.78,0.96,
4.459,-0.36,1.62,-0.18,-0.32,1.78,0.96,
4.46,-0.36,1.62,-0.18,-0.32,1.79,0.96,
4.463,-0.36,1.62,-0.18,-0.30,1.80,0.96,
4.463,-0.42,1.58,-0.29,-0.30,1.80,0.96,
4.474,-0.42,1.58,-0.29,-0.29,1.81,0.97,
4.475,-0.42,1.58,-0.29,-0.28,1.82,0.97,
4.476,-0.42,1.37,-0.55,-0.28,1.82,0.97,
4.476,-0.42,1.37,-0.55,-0.27,1.81,0.98,
4.477,-0.53,1.24,-0.48,-0.27,1.81,0.98,
4.477,-0.53,1.24,-0.48,-0.26,1.78,0.99,
4.478,-0.53,1.24,-0.48,-0.24,1.72,1.01,
4.478,-1.20,1.19,-0.74,-0.24,1.72,1.01,
4.478,-1.20,1.19,-0.74,-0.23,1.64,1.04,
4.489,-1.20,1.19,-0.74,-0.22,1.56,1.08,
4.49,-1.20,1.19,-0.74,-0.21,1.48,1.13,
4.49,-1.70,1.09,-1.27,-0.21,1.48,1.13,
4.491,-1.93,0.91,-2.02,-0.21,1.48,1.13,
4.491,-1.93,0.91,-2.02,-0.22,1.41,1.18,
4.491,-1.93,0.91,-2.02,-0.22,1.34,1.24,
4.491,-1.93,0.91,-2.02,-0.24,1.28,1.30,
4.492,-2.12,0.77,-2.57,-0.24,1.28,1.30,
4.493,-2.12,0.77,-2.57,-0.26,1.22,1.36,
4.495,-2.12,0.77,-2.57,-0.29,1.16,1.42,
4.5,-2.13,0.67,-3.15,-0.29,1.16,1.42,
4.501,-2.13,0.67,-3.15,-0.32,1.10,1.48,
4.501,-2.13,0.67,-3.15,-0.36,1.04,1.53,
4.504,-1.92,0.33,-3.57,-0.36,1.04,1.53,
4.504,-1.92,0.33,-3.57,-0.41,0.98,1.59,
4.505,-1.92,0.33,-3.57,-0.45,0.91,1.64,
4.507,-1.89,0.17,-3.58,-0.45,0.91,1.64,
4.508,-1.89,0.17,-3.58,-0.50,0.83,1.69,
4.511,-1.89,0.17,-3.58,-0.53,0.77,1.73,
4.512,-1.89,0.17,-3.58,-0.54,0.71,1.78,
4.513,-2.00,0.16,-3.20,-0.54,0.71,1.78,
4.517,-2.00,0.16,-3.20,-0.55,0.65,1.83,
4.517,-2.00,0.16,-3.20,-0.55,0.60,1.88,
4.518,-2.07,0.09,-2.79,-0.55,0.60,1.88,
4.521,-2.07,0.09,-2.79,-0.54,0.56,1.93,
4.522,-2.07,0.09,-2.79,-0.52,0.54,1.98,
4.523,-1.95,0.16,-2.40,-0.52,0.54,1.98,
4.526,-1.95,0.16,-2.40,-0.49,0.53,2.02,
4.527,-1.95,0.16,-2.40,-0.46,0.53,2.06,
4.527,-1.98,0.46,-2.01,-0.46,0.53,2.06,
4.53,-1.98,0.46,-2.01,-0.42,0.53,2.10,
4.534,-2.07,0.95,-1.49,-0.42,0.53,2.10,
4.534,-2.07,0.95,-1.49,-0.37,0.53,2.14,
4.535,-2.07,0.95,-1.49,-0.32,0.53,2.16,
4.537,-2.07,0.95,-1.49,-0.26,0.52,2.18,
4.538,-1.87,1.65,-0.85,-0.26,0.52,2.18,
4.539,-1.87,1.65,-0.85,-0.19,0.52,2.19,
4.542,-1.87,1.65,-0.85,-0.13,0.53,2.17,
4.542,-1.39,2.36,-0.54,-0.13,0.53,2.17,
4.544,-1.39,2.36,-0.54,-0.06,0.56,2.14,
4.554,-0.71,2.77,-0.23,-0.06,0.56,2.14,
4.555,-0.71,2.77,-0.23,0.00,0.59,2.09,
4.555,-0.71,2.77,-0.23,0.07,0.62,2.02,
4.556,-0.71,2.77,-0.23,0.13,0.65,1.93,
4.556,-0.27,2.90,0.19,0.13,0.65,1.93,
4.556,-0.27,2.90,0.19,0.19,0.67,1.85,
4.558,-0.27,2.90,0.19,0.24,0.70,1.76,
4.56,-0.27,2.90,0.19,0.28,0.72,1.68,
4.563,-0.27,2.90,0.19,0.31,0.74,1.60,
4.574,-0.30,2.85,0.46,0.31,0.74,1.60,
4.574,-0.41,2.62,0.27,0.31,0.74,1.60,
4.594,-0.41,2.62,0.27,0.32,0.77,1.52,
4.595,-0.41,2.62,0.27,0.32,0.78,1.45,
4.595,-0.77,2.33,0.13,0.32,0.78,1.45,
4.595,-0.77,2.33,0.13,0.30,0.80,1.38,
4.595,-0.77,2.33,0.13,0.26,0.82,1.30,
4.596,-1.15,1.91,-0.08,0.26,0.82,1.30,
4.596,-1.15,1.91,-0.08,0.21,0.85,1.23,
4.596,-1.15,1.91,-0.08,0.15,0.88,1.15,
4.596,-1.66,1.57,-0.10,0.15,0.88,1.15,
4.597,-1.66,1.57,-0.10,0.07,0.91,1.07,
4.597,-2.28,1.23,0.13,0.07,0.91,1.07,
4.597,-2.28,1.23,0.13,0.00,0.94,0.98,
4.597,-2.28,1.23,0.13,-0.07,0.96,0.88,
4.598,-2.28,1.23,0.13,-0.14,0.97,0.78,
4.598,-2.90,0.92,0.49,-0.14,0.97,0.78,
4.598,-2.90,0.92,0.49,-0.19,0.97,0.67,
4.598,-2.90,0.92,0.49,-0.23,0.97,0.56,
4.599,-3.61,0.63,1.11,-0.23,0.97,0.56,
4.599,-3.61,0.63,1.11,-0.26,0.96,0.45,
4.599,-3.61,0.63,1.11,-0.27,0.94,0.33,
4.599,-4.39,0.42,1.64,-0.27,0.94,0.33,
4.6,-4.39,0.42,1.64,-0.27,0.91,0.21,
4.604,-4.39,0.42,1.64,-0.25,0.87,0.09,
4.606,-4.39,0.42,1.64,-0.24,0.83,-0.03,
4.607,-5.07,0.20,1.77,-0.24,0.83,-0.03,
4.607,-5.07,0.20,1.77,-0.22,0.80,-0.15,
4.607,-5.78,-0.20,1.45,-0.22,0.80,-0.15,
4.609,-5.78,-0.20,1.45,-0.20,0.77,-0.26,
4.611,-5.78,-0.20,1.45,-0.17,0.74,-0.37,
4.612,-6.44,-0.41,1.24,-0.17,0.74,-0.37,
4.614,-6.44,-0.41,1.24,-0.15,0.69,-0.46,
4.617,-6.84,-0.85,0.65,-0.15,0.69,-0.46,
4.617,-6.84,-0.85,0.65,-0.13,0.66,-0.55,
4.619,-6.84,-0.85,0.65,-0.12,0.65,-0.62,
4.622,-6.88,-1.44,-0.15,-0.12,0.65,-0.62,
4.622,-6.88,-1.44,-0.15,-0.12,0.66,-0.69,
4.624,-6.88,-1.44,-0.15,-0.13,0.69,-0.74,
4.626,-6.88,-1.44,-0.15,-0.14,0.72,-0.78,
4.627,-6.96,-2.24,-0.62,-0.14,0.72,-0.78,
4.628,-6.96,-2.24,-0.62,-0.16,0.77,-0.81,
4.631,-6.82,-3.34,-1.03,-0.16,0.77,-0.81,
4.632,-6.82,-3.34,-1.03,-0.19,0.83,-0.83,
4.634,-6.82,-3.34,-1.03,-0.22,0.91,-0.83,
4.636,-6.82,-3.34,-1.03,-0.26,0.98,-0.83,
4.637,-6.24,-4.31,-1.04,-0.26,0.98,-0.83,
4.638,-6.24,-4.31,-1.04,-0.31,1.02,-0.84,
4.641,-6.24,-4.31,-1.04,-0.35,1.03,-0.86,
4.641,-5.15,-5.07,-0.65,-0.35,1.03,-0.86,
4.644,-5.15,-5.07,-0.65,-0.41,1.02,-0.89,
4.646,-5.15,-5.07,-0.65,-0.45,0.99,-0.93,
4.646,-4.20,-5.80,-0.27,-0.45,0.99,-0.93,
4.649,-4.20,-5.80,-0.27,-0.51,0.92,-0.97,
4.654,-4.20,-5.80,-0.27,-0.56,0.80,-1.02,
4.654,-3.13,-6.26,0.33,-0.56,0.80,-1.02,
4.654,-3.13,-6.26,0.33,-0.61,0.65,-1.08,
4.656,-2.75,-6.49,1.03,-0.61,0.65,-1.08,
4.657,-2.75,-6.49,1.03,-0.66,0.49,-1.13,
4.659,-2.75,-6.49,1.03,-0.70,0.32,-1.17,
4.661,-2.75,-6.49,1.03,-0.74,0.16,-1.21,
4.661,-2.29,-6.19,1.65,-0.74,0.16,-1.21,
4.664,-2.29,-6.19,1.65,-0.77,0.00,-1.25,
4.666,-2.29,-6.19,1.65,-0.79,-0.14,-1.28,
4.667,-1.86,-5.75,2.21,-0.79,-0.14,-1.28,
4.668,-1.86,-5.75,2.21,-0.80,-0.26,-1.30,
4.671,-1.86,-5.75,2.21,-0.79,-0.37,-1.32,
4.671,-1.75,-5.07,2.78,-0.79,-0.37,-1.32,
4.673,-1.75,-5.07,2.78,-0.78,-0.45,-1.33,
4.676,-1.75,-5.07,2.78,-0.76,-0.54,-1.33,
4.676,-1.77,-4.46,3.18,-0.76,-0.54,-1.33,
4.678,-1.77,-4.46,3.18,-0.74,-0.61,-1.32,
4.681,-1.68,-3.81,2.74,-0.74,-0.61,-1.32,
4.682,-1.68,-3.81,2.74,-0.73,-0.65,-1.31,
4.684,-1.68,-3.81,2.74,-0.71,-0.66,-1.30,
4.686,-1.88,-3.20,2.12,-0.71,-0.66,-1.30,
4.686,-1.88,-3.20,2.12,-0.71,-0.66,-1.28,
4.688,-1.88,-3.20,2.12,-0.71,-0.63,-1.26,
4.691,-1.88,-3.20,2.12,-0.72,-0.58,-1.23,
4.691,-2.23,-2.64,1.30,-0.72,-0.58,-1.23,
4.693,-2.23,-2.64,1.30,-0.74,-0.53,-1.19,
4.697,-2.34,-2.11,0.54,-0.74,-0.53,-1.19,
4.697,-2.34,-2.11,0.54,-0.77,-0.47,-1.16,
4.699,-2.34,-2.11,0.54,-0.80,-0.40,-1.13,
4.701,-2.34,-2.11,0.54,-0.83,-0.32,-1.10,
4.701,-2.45,-1.63,-0.14,-0.83,-0.32,-1.10,
4.703,-2.45,-1.63,-0.14,-0.87,-0.24,-1.07,
4.706,-2.45,-1.63,-0.14,-0.90,-0.14,-1.03,
4.706,-2.51,-1.17,-0.91,-0.90,-0.14,-1.03,
4.708,-2.51,-1.17,-0.91,-0.94,-0.04,-0.99,
4.711,-2.51,-1.17,-0.91,-0.97,0.05,-0.95,
4.711,-2.33,-0.65,-1.44,-0.97,0.05,-0.95,
4.713,-2.33,-0.65,-1.44,-1.01,0.13,-0.91,
4.717,-1.27,-0.11,-1.90,-1.01,0.13,-0.91,
4.718,-1.27,-0.11,-1.90,-1.05,0.20,-0.88,
4.718,-1.27,-0.11,-1.90,-1.08,0.27,-0.87,
4.721,-1.27,-0.11,-1.90,-1.10,0.33,-0.86,
4.721,-0.20,0.31,-1.90,-1.10,0.33,-0.86,
4.723,-0.20,0.31,-1.90,-1.12,0.36,-0.86,
4.726,-0.20,0.31,-1.90,-1.13,0.39,-0.86,
4.726,0.58,0.72,-1.64,-1.13,0.39,-0.86,
4.728,0.58,0.72,-1.64,-1.13,0.40,-0.85,
4.751,1.18,0.99,-1.77,-1.13,0.40,-0.85,
4.752,1.18,0.99,-1.77,-1.13,0.41,-0.83,
4.752,1.18,0.99,-1.77,-1.14,0.41,-0.82,
4.752,1.18,0.99,-1.77,-1.16,0.39,-0.80,
4.752,1.73,1.37,-2.32,-1.16,0.39,-0.80,
4.753,1.73,1.37,-2.32,-1.19,0.36,-0.77,
4.753,1.73,1.37,-2.32,-1.23,0.30,-0.71,
4.753,1.79,1.83,-2.73,-1.23,0.30,-0.71,
4.753,1.79,1.83,-2.73,-1.27,0.22,-0.64,
4.754,1.79,1.83,-2.73,-1.32,0.15,-0.55,
4.754,1.78,2.04,-2.76,-1.32,0.15,-0.55,
4.754,1.78,2.04,-2.76,-1.36,0.06,-0.46,
4.754,1.78,2.04,-2.76,-1.39,-0.02,-0.35,
4.755,1.98,2.37,-1.97,-1.39,-0.02,-0.35,
4.755,1.98,2.37,-1.97,-1.39,-0.08,-0.26,
4.756,1.98,2.37,-1.97,-1.37,-0.11,-0.21,
4.758,3.29,2.85,-0.21,-1.37,-0.11,-0.21,
4.758,3.29,2.85,-0.21,-1.31,-0.13,-0.18,
4.76,3.29,2.85,-0.21,-1.20,-0.16,-0.17,
4.76,4.02,3.38,2.70,-1.20,-0.16,-0.17,
4.763,4.02,3.38,2.70,-1.05,-0.19,-0.17,
4.766,4.02,3.38,2.70,-0.86,-0.25,-0.17,
4.767,3.88,4.11,5.70,-0.86,-0.25,-0.17,
4.768,3.88,4.11,5.70,-0.63,-0.30,-0.18,
4.77,3.88,4.11,5.70,-0.38,-0.33,-0.21,
4.77,3.67,4.69,7.53,-0.38,-0.33,-0.21,
4.772,3.67,4.69,7.53,-0.12,-0.36,-0.24,
4.775,3.67,4.69,7.53,0.13,-0.39,-0.27,
4.775,3.01,5.18,8.00,0.13,-0.39,-0.27,
4.777,3.01,5.18,8.00,0.36,-0.40,-0.29,
4.78,3.01,5.18,8.00,0.56,-0.41,-0.30,
4.78,2.43,5.34,7.01,0.56,-0.41,-0.30,
4.79,2.43,5.34,7.01,0.71,-0.41,-0.31,
4.791,2.43,5.34,7.01,0.84,-0.41,-0.32,
4.791,2.37,5.39,6.10,0.84,-0.41,-0.32,
4.792,2.37,5.39,6.10,0.95,-0.39,-0.34,
4.793,2.37,5.39,6.10,1.05,-0.36,-0.36,
4.793,2.65,5.24,5.68,1.05,-0.36,-0.36,
4.793,2.65,5.24,5.68,1.13,-0.33,-0.38,
4.795,2.57,4.71,4.90,1.13,-0.33,-0.38,
4.795,2.57,4.71,4.90,1.18,-0.27,-0.40,
4.801,2.57,4.71,4.90,1.21,-0.20,-0.40,
4.802,2.57,4.71,4.90,1.20,-0.12,-0.40,
4.802,2.44,3.89,3.78,1.20,-0.12,-0.40,
4.803,2.44,3.89,3.78,1.17,-0.05,-0.39,
4.805,2.44,3.89,3.78,1.10,0.00,-0.37,
4.805,2.53,2.81,2.93,1.10,0.00,-0.37,
4.808,2.53,2.81,2.93,1.01,0.04,-0.34,
4.811,2.53,2.81,2.93,0.89,0.06,-0.32,
4.811,2.77,1.79,2.34,0.89,0.06,-0.32,
4.813,2.77,1.79,2.34,0.76,0.08,-0.29,
4.816,2.77,1.79,2.34,0.61,0.09,-0.25,
4.816,3.25,0.92,1.67,0.61,0.09,-0.25,
4.817,3.25,0.92,1.67,0.46,0.10,-0.22,
4.82,3.60,0.14,0.94,0.46,0.10,-0.22,
4.82,3.60,0.14,0.94,0.30,0.12,-0.19,
4.823,3.60,0.14,0.94,0.15,0.14,-0.15,
4.824,3.60,0.14,0.94,0.00,0.18,-0.13,
4.825,4.18,-0.49,0.32,0.00,0.18,-0.13,
4.827,4.18,-0.49,0.32,-0.13,0.22,-0.12,
4.829,4.18,-0.49,0.32,-0.25,0.26,-0.11,
4.83,4.73,-0.88,0.02,-0.25,0.26,-0.11,
4.832,4.73,-0.88,0.02,-0.36,0.30,-0.12,
4.834,4.80,-1.27,-0.44,-0.36,0.30,-0.12,
4.835,4.80,-1.27,-0.44,-0.45,0.34,-0.12,
4.837,4.80,-1.27,-0.44,-0.54,0.37,-0.13,
4.839,4.80,-1.27,-0.44,-0.60,0.43,-0.15,
4.84,4.78,-1.63,-0.81,-0.60,0.43,-0.15,
4.842,4.78,-1.63,-0.81,-0.64,0.49,-0.16,
4.844,4.78,-1.63,-0.81,-0.66,0.53,-0.18,
4.845,4.51,-1.79,-0.62,-0.66,0.53,-0.18,
4.847,4.51,-1.79,-0.62,-0.66,0.57,-0.20,
4.857,4.27,-2.03,-0.47,-0.66,0.57,-0.20,
4.858,4.27,-2.03,-0.47,-0.65,0.61,-0.23,
4.858,4.27,-2.03,-0.47,-0.62,0.64,-0.25,
4.858,4.05,-2.14,-0.19,-0.62,0.64,-0.25,
4.859,4.05,-2.14,-0.19,-0.58,0.66,-0.29,
4.859,4.05,-2.14,-0.19,-0.52,0.66,-0.31,
4.86,3.60,-2.25,0.17,-0.52,0.66,-0.31,
4.86,3.60,-2.25,0.17,-0.45,0.66,-0.34,
4.862,3.60,-2.25,0.17,-0.37,0.65,-0.36,
4.873,3.15,-2.36,0.52,-0.37,0.65,-0.36,
4.874,3.15,-2.36,0.52,-0.27,0.64,-0.38,
4.874,3.15,-2.36,0.52,-0.17,0.63,-0.39,
4.875,2.77,-2.45,0.82,-0.17,0.63,-0.39,
4.875,2.77,-2.45,0.82,-0.06,0.60,-0.39,
4.875,2.77,-2.45,0.82,0.05,0.56,-0.41,
4.875,2.77,-2.45,0.82,0.16,0.52,-0.45,
4.876,2.49,-2.77,0.97,0.16,0.52,-0.45,
4.876,2.49,-2.77,0.97,0.27,0.48,-0.48,
4.879,2.23,-2.80,0.86,0.27,0.48,-0.48,
4.879,2.23,-2.80,0.86,0.36,0.45,-0.51,
4.883,2.23,-2.80,0.86,0.45,0.42,-0.55,
4.886,2.23,-2.80,0.86,0.53,0.42,-0.57,
4.886,1.85,-2.63,0.57,0.53,0.42,-0.57,
4.887,1.85,-2.63,0.57,0.60,0.42,-0.59,
4.889,1.85,-2.63,0.57,0.66,0.43,-0.60,
4.89,1.44,-2.39,0.36,0.66,0.43,-0.60,
4.891,1.44,-2.39,0.36,0.70,0.45,-0.61,
4.894,1.44,-2.39,0.36,0.73,0.46,-0.61,
4.911,1.17,-2.31,0.18,0.73,0.46,-0.61,
4.911,1.17,-2.31,0.18,0.75,0.47,-0.60,
4.911,0.96,-2.19,0.15,0.75,0.47,-0.60,
4.912,0.96,-2.19,0.15,0.76,0.48,-0.58,
4.912,0.96,-2.19,0.15,0.76,0.51,-0.57,
4.912,0.81,-2.04,0.15,0.76,0.51,-0.57,
4.913,0.81,-2.04,0.15,0.76,0.53,-0.55,
4.913,0.81,-2.04,0.15,0.76,0.55,-0.52,
4.913,0.81,-2.04,0.15,0.76,0.58,-0.50,
4.913,0.62,-1.82,0.24,0.76,0.58,-0.50,
4.914,0.62,-1.82,0.24,0.75,0.60,-0.47,
4.914,0.62,-1.82,0.24,0.74,0.61,-0.44,
4.915,0.53,-1.63,0.31,0.74,0.61,-0.44,
4.917,0.53,-1.63,0.31,0.72,0.63,-0.41,
4.919,0.53,-1.63,0.31,0.71,0.64,-0.39,
4.919,0.49,-1.35,0.59,0.71,0.64,-0.39,
4.921,0.49,-1.35,0.59,0.70,0.65,-0.37,
4.924,0.49,-1.35,0.59,0.70,0.64,-0.36,
4.924,0.41,-1.05,1.10,0.70,0.64,-0.36,
4.926,0.41,-1.05,1.10,0.71,0.62,-0.34,
4.929,0.41,-1.05,1.10,0.72,0.60,-0.33,
4.929,0.30,-0.71,1.40,0.72,0.60,-0.33,
4.932,0.30,-0.71,1.40,0.73,0.57,-0.32,
