
time,ax,ay,az,wx,wy,wz,
0.003,0.13,0.10,-0.20,0.14,0.09,-0.13,
0.003,0.13,0.10,-0.20,0.11,0.09,-0.13,
0.003,0.13,0.10,-0.20,0.08,0.08,-0.14,
0.003,0.08,0.08,-0.26,0.08,0.08,-0.14,
0.003,0.08,0.08,-0.26,0.05,0.07,-0.14,
0.003,0.08,0.08,-0.26,0.02,0.06,-0.14,
0.003,0.08,0.05,-0.27,0.02,0.06,-0.14,
0.003,0.08,0.05,-0.27,-0.00,0.05,-0.15,
0.005,0.08,0.05,-0.27,-0.03,0.03,-0.15,
0.005,0.08,0.05,-0.27,-0.06,0.02,-0.15,
0.005,0.08,0.06,-0.25,-0.06,0.02,-0.15,
0.012,0.08,0.06,-0.25,-0.08,-0.00,-0.15,
0.012,0.08,0.06,-0.25,-0.10,-0.02,-0.15,
0.012,0.04,0.08,-0.21,-0.10,-0.02,-0.15,
0.012,0.04,0.08,-0.21,-0.12,-0.04,-0.15,
0.014,0.04,0.08,-0.21,-0.14,-0.05,-0.14,
0.015,-0.00,0.09,-0.13,-0.14,-0.05,-0.14,
0.017,-0.00,0.09,-0.13,-0.15,-0.06,-0.14,
0.019,0.03,0.09,-0.08,-0.15,-0.06,-0.14,
0.02,0.03,0.09,-0.08,-0.16,-0.07,-0.14,
0.022,0.03,0.09,-0.08,-0.17,-0.08,-0.14,
0.026,0.03,0.09,-0.08,-0.17,-0.08,-0.13,
0.026,0.06,0.04,0.02,-0.17,-0.08,-0.13,
0.027,0.06,0.04,0.02,-0.17,-0.09,-0.13,
0.029,0.06,0.04,0.02,-0.17,-0.09,-0.13,
0.029,0.10,-0.01,0.08,-0.17,-0.09,-0.13,
0.032,0.10,-0.01,0.08,-0.17,-0.10,-0.13,
0.034,0.10,-0.01,0.08,-0.16,-0.10,-0.13,
0.035,0.13,-0.03,0.12,-0.16,-0.10,-0.13,
0.037,0.13,-0.03,0.12,-0.15,-0.09,-0.13,
0.04,0.13,-0.03,0.12,-0.14,-0.08,-0.13,
0.04,0.16,-0.05,0.15,-0.14,-0.08,-0.13,
0.042,0.16,-0.05,0.15,-0.12,-0.07,-0.13,
0.044,0.16,-0.05,0.15,-0.11,-0.06,-0.13,
0.047,0.18,-0.04,0.14,-0.11,-0.06,-0.13,
0.047,0.18,-0.04,0.14,-0.10,-0.04,-0.13,
0.049,0.18,-0.04,0.14,-0.08,-0.03,-0.12,
0.049,0.23,-0.03,0.14,-0.08,-0.03,-0.12,
0.052,0.23,-0.03,0.14,-0.07,-0.01,-0.13,
0.054,0.23,-0.03,0.14,-0.05,0.01,-0.13,
0.054,0.24,-0.02,0.14,-0.05,0.01,-0.13,
0.057,0.24,-0.02,0.14,-0.04,0.02,-0.13,
0.06,0.24,0.02,0.13,-0.04,0.02,-0.13,
0.06,0.24,0.02,0.13,-0.03,0.04,-0.13,
0.063,0.24,0.02,0.13,-0.01,0.05,-0.13,
0.064,0.21,0.03,0.10,-0.01,0.05,-0.13,
0.064,0.21,0.03,0.10,-0.01,0.07,-0.13,
0.066,0.21,0.03,0.10,0.00,0.08,-0.13,
0.069,0.21,0.03,0.10,0.01,0.09,-0.12,
0.069,0.01,0.12,-0.06,0.01,0.09,-0.12,
0.071,0.01,0.12,-0.06,0.00,0.12,-0.11,
0.074,0.01,0.12,-0.06,-0.01,0.14,-0.08,
0.074,-0.53,0.33,-0.38,-0.01,0.14,-0.08,
0.076,-0.53,0.33,-0.38,-0.02,0.15,-0.06,
0.079,-0.53,0.33,-0.38,-0.03,0.15,-0.04,
0.079,-0.31,0.49,-0.38,-0.03,0.15,-0.04,
0.081,-0.31,0.49,-0.38,-0.05,0.15,-0.03,
0.084,-0.41,0.58,-0.56,-0.05,0.15,-0.03,
0.084,-0.41,0.58,-0.56,-0.06,0.15,-0.01,
0.086,-0.41,0.58,-0.56,-0.08,0.14,-0.00,
0.089,-0.41,0.55,-0.48,-0.08,0.14,-0.00,
0.089,-0.41,0.55,-0.48,-0.10,0.13,0.00,
0.091,-0.41,0.55,-0.48,-0.12,0.12,0.01,
0.094,-0.41,0.55,-0.48,-0.13,0.11,0.01,
0.094,-0.35,0.44,-0.34,-0.13,0.11,0.01,
0.097,-0.35,0.44,-0.34,-0.15,0.10,0.02,
0.099,-0.31,0.36,-0.24,-0.15,0.10,0.02,
0.099,-0.31,0.36,-0.24,-0.15,0.09,0.02,
0.101,-0.31,0.36,-0.24,-0.17,0.08,0.03,
0.104,-0.31,0.36,-0.24,-0.17,0.06,0.03,
0.105,-0.25,0.32,-0.13,-0.17,0.06,0.03,
0.107,-0.25,0.32,-0.13,-0.18,0.05,0.03,
0.11,-0.21,0.29,-0.02,-0.18,0.05,0.03,
0.11,-0.21,0.29,-0.02,-0.19,0.03,0.03,
0.111,-0.21,0.29,-0.02,-0.19,0.02,0.03,
0.114,-0.21,0.29,-0.02,-0.19,0.01,0.03,
0.114,-0.17,0.28,0.08,-0.19,0.01,0.03,
0.116,-0.17,0.28,0.08,-0.19,0.00,0.02,
0.119,-0.17,0.28,0.08,-0.20,-0.00,0.02,
0.119,-0.15,0.26,0.16,-0.20,-0.00,0.02,
0.121,-0.15,0.26,0.16,-0.19,-0.01,0.02,
0.124,-0.15,0.26,0.16,-0.19,-0.01,0.02,
0.124,-0.18,0.22,0.23,-0.19,-0.01,0.02,
0.126,-0.18,0.22,0.23,-0.19,-0.01,0.02,
0.129,-0.20,0.20,0.31,-0.19,-0.01,0.02,
0.129,-0.20,0.20,0.31,-0.18,-0.02,0.02,
0.131,-0.20,0.20,0.31,-0.17,-0.01,0.02,
0.134,-0.20,0.20,0.31,-0.16,-0.01,0.02,
0.134,-0.18,0.20,0.39,-0.16,-0.01,0.02,
0.136,-0.18,0.20,0.39,-0.15,-0.01,0.02,
0.138,-0.18,0.20,0.39,-0.14,-0.00,0.02,
0.139,-0.17,0.18,0.49,-0.14,-0.00,0.02,
0.141,-0.17,0.18,0.49,-0.13,0.01,0.03,
0.143,-0.17,0.18,0.58,-0.13,0.01,0.03,
0.144,-0.17,0.18,0.58,-0.11,0.01,0.03,
0.146,-0.17,0.18,0.58,-0.10,0.01,0.03,
0.148,-0.17,0.13,0.63,-0.10,0.01,0.03,
0.148,-0.17,0.13,0.63,-0.08,0.01,0.03,
0.153,-0.17,0.13,0.63,-0.07,0.01,0.04,
0.153,-0.16,0.08,0.62,-0.07,0.01,0.04,
0.165,-0.16,0.08,0.62,-0.05,0.01,0.04,
0.168,-0.12,0.06,0.66,-0.05,0.01,0.04,
0.168,-0.12,0.07,0.64,-0.05,0.01,0.04,
0.168,-0.12,0.07,0.64,-0.04,0.01,0.04,
0.169,-0.12,0.07,0.64,-0.02,0.01,0.03,
0.169,-0.12,0.07,0.64,-0.01,0.01,0.03,
0.169,-0.12,0.07,0.64,0.01,0.01,0.03,
0.169,-0.12,0.07,0.64,0.02,0.01,0.03,
0.169,-0.12,0.07,0.64,0.04,0.01,0.03,
0.169,-0.08,0.07,0.63,0.04,0.01,0.03,
0.171,-0.08,0.07,0.63,0.05,0.01,0.03,
0.174,-0.08,0.07,0.63,0.06,0.01,0.03,
0.175,-0.06,0.10,0.59,0.06,0.01,0.03,
0.177,-0.06,0.10,0.59,0.07,0.01,0.03,
0.179,-0.05,0.10,0.57,0.07,0.01,0.03,
0.179,-0.05,0.10,0.57,0.08,0.01,0.03,
0.18,-0.05,0.10,0.57,0.09,0.01,0.02,
0.183,-0.03,0.08,0.49,0.09,0.01,0.02,
0.183,-0.03,0.08,0.49,0.10,0.01,0.02,
0.186,-0.03,0.08,0.49,0.10,0.00,0.02,
0.188,-0.03,0.09,0.42,0.10,0.00,0.02,
0.188,-0.03,0.09,0.42,0.11,-0.00,0.02,
0.19,-0.03,0.09,0.42,0.11,-0.01,0.02,
0.193,-0.02,0.08,0.35,0.11,-0.01,0.02,
0.193,-0.02,0.08,0.35,0.11,-0.01,0.02,
0.196,-0.02,0.08,0.35,0.11,-0.02,0.01,
0.198,-0.00,0.09,0.26,0.11,-0.02,0.01,
0.198,-0.00,0.09,0.26,0.11,-0.02,0.01,
0.2,-0.00,0.09,0.26,0.11,-0.03,0.01,
0.203,-0.01,0.11,0.19,0.11,-0.03,0.01,
0.203,-0.01,0.11,0.19,0.11,-0.03,0.01,
0.205,-0.01,0.11,0.19,0.11,-0.04,0.01,
0.208,-0.01,0.11,0.19,0.11,-0.04,0.01,
0.208,-0.01,0.12,0.16,0.11,-0.04,0.01,
0.21,-0.01,0.12,0.16,0.10,-0.05,0.01,
0.213,0.01,0.13,0.09,0.10,-0.05,0.01,
0.213,0.01,0.13,0.09,0.10,-0.05,0.01,
0.215,0.01,0.13,0.09,0.10,-0.06,0.01,
0.218,0.04,0.11,0.04,0.10,-0.06,0.01,
0.218,0.04,0.11,0.04,0.09,-0.06,0.01,
0.22,0.04,0.11,0.04,0.09,-0.07,0.00,
0.223,0.06,0.07,-0.01,0.09,-0.07,0.00,
0.223,0.06,0.07,-0.01,0.08,-0.07,-0.00,
0.225,0.06,0.07,-0.01,0.08,-0.07,-0.00,
0.228,0.10,0.04,-0.04,0.08,-0.07,-0.00,
0.228,0.10,0.04,-0.04,0.08,-0.07,-0.01,
0.23,0.10,0.04,-0.04,0.07,-0.07,-0.01,
0.232,0.13,0.04,-0.06,0.07,-0.07,-0.01,
0.233,0.13,0.04,-0.06,0.07,-0.07,-0.01,
0.235,0.13,0.04,-0.06,0.07,-0.07,-0.02,
0.238,0.14,0.05,-0.08,0.07,-0.07,-0.02,
0.238,0.14,0.05,-0.08,0.07,-0.07,-0.02,
0.24,0.14,0.05,-0.08,0.07,-0.07,-0.02,
0.243,0.11,0.06,-0.11,0.07,-0.07,-0.02,
0.243,0.11,0.06,-0.11,0.07,-0.07,-0.02,
0.245,0.11,0.06,-0.11,0.07,-0.06,-0.03,
0.247,0.11,0.08,-0.14,0.07,-0.06,-0.03,
0.248,0.11,0.08,-0.14,0.07,-0.06,-0.03,
0.25,0.11,0.08,-0.14,0.07,-0.05,-0.03,
0.252,0.10,0.11,-0.19,0.07,-0.05,-0.03,
0.253,0.10,0.11,-0.19,0.07,-0.05,-0.03,
0.255,0.10,0.11,-0.19,0.07,-0.04,-0.03,
0.258,0.09,0.11,-0.21,0.07,-0.04,-0.03,
0.258,0.09,0.11,-0.21,0.07,-0.03,-0.03,
0.261,0.09,0.11,-0.21,0.06,-0.02,-0.03,
0.262,0.09,0.11,-0.21,0.06,-0.01,-0.02,
0.262,0.09,0.13,-0.20,0.06,-0.01,-0.02,
0.265,0.09,0.13,-0.20,0.06,-0.00,-0.02,
0.268,0.07,0.15,-0.18,0.06,-0.00,-0.02,
0.268,0.07,0.15,-0.18,0.06,0.01,-0.02,
0.27,0.07,0.15,-0.18,0.06,0.01,-0.02,
0.272,0.02,0.16,-0.14,0.06,0.01,-0.02,
0.273,0.02,0.16,-0.14,0.06,0.02,-0.02,
0.276,0.02,0.16,-0.14,0.06,0.02,-0.02,
0.278,0.02,0.16,-0.14,0.06,0.03,-0.02,
0.278,-0.05,0.19,-0.08,0.06,0.03,-0.02,
0.28,-0.05,0.19,-0.08,0.06,0.03,-0.01,
0.282,-0.09,0.23,-0.04,0.06,0.03,-0.01,
0.282,-0.09,0.23,-0.04,0.06,0.04,-0.01,
0.285,-0.09,0.23,-0.04,0.06,0.04,-0.00,
0.287,-0.09,0.24,-0.04,0.06,0.04,-0.00,
0.288,-0.09,0.24,-0.04,0.07,0.05,0.00,
0.29,-0.09,0.24,-0.04,0.07,0.06,0.00,
0.293,-0.08,0.19,-0.07,0.07,0.06,0.00,
0.294,-0.08,0.19,-0.07,0.08,0.07,0.01,
0.294,-0.08,0.19,-0.07,0.08,0.08,0.01,
0.297,-0.08,0.16,-0.07,0.08,0.08,0.01,
0.297,-0.08,0.16,-0.07,0.09,0.08,0.01,
0.299,-0.08,0.16,-0.07,0.10,0.09,0.01,
0.302,-0.05,0.09,-0.10,0.10,0.09,0.01,
0.302,-0.05,0.09,-0.10,0.11,0.10,0.00,
0.304,-0.05,0.09,-0.10,0.12,0.12,-0.00,
0.307,-0.05,0.09,-0.10,0.14,0.12,-0.00,
0.308,0.01,0.07,-0.04,0.14,0.12,-0.00,
0.31,0.01,0.07,-0.04,0.15,0.12,-0.01,
0.312,-0.04,0.05,-0.09,0.15,0.12,-0.01,
0.312,-0.04,0.05,-0.09,0.16,0.13,-0.02,
0.314,-0.04,0.05,-0.09,0.18,0.15,-0.02,
0.317,-0.01,0.03,-0.20,0.18,0.15,-0.02,
0.317,-0.01,0.03,-0.20,0.19,0.17,-0.03,
0.328,-0.01,0.03,-0.20,0.21,0.19,-0.04,
0.328,-0.01,0.03,-0.20,0.23,0.20,-0.04,
0.328,-0.03,0.05,-0.24,0.23,0.20,-0.04,
0.329,-0.03,0.05,-0.24,0.24,0.22,-0.04,
0.329,-0.02,0.10,-0.32,0.24,0.22,-0.04,
0.331,-0.02,0.10,-0.32,0.26,0.24,-0.05,
0.331,-0.02,0.10,-0.32,0.27,0.25,-0.05,
0.332,-0.02,0.10,-0.32,0.28,0.25,-0.05,
0.333,-0.04,0.12,-0.37,0.28,0.25,-0.05,
0.337,-0.04,0.12,-0.37,0.29,0.23,-0.05,
0.337,-0.04,0.12,-0.37,0.28,0.16,-0.02,
0.338,-0.69,-0.27,-0.97,0.28,0.16,-0.02,
0.339,-0.69,-0.27,-0.97,0.26,0.11,-0.00,
0.342,-0.69,-0.27,-0.97,0.25,0.09,0.01,
0.344,-0.31,-0.07,-1.10,0.25,0.09,0.01,
0.344,-0.31,-0.07,-1.10,0.23,0.10,0.01,
0.347,-0.31,-0.07,-1.10,0.21,0.13,-0.00,
0.347,0.15,0.22,-0.88,0.21,0.13,-0.00,
0.349,0.15,0.22,-0.88,0.21,0.18,-0.02,
0.351,0.26,0.53,-0.59,0.21,0.18,-0.02,
0.352,0.26,0.53,-0.59,0.21,0.23,-0.04,
0.354,0.26,0.53,-0.59,0.22,0.27,-0.05,
0.358,0.26,0.53,-0.59,0.24,0.31,-0.06,
0.359,0.13,0.66,-0.47,0.24,0.31,-0.06,
0.359,0.13,0.66,-0.47,0.26,0.33,-0.07,
0.362,-0.02,0.54,-0.57,0.26,0.33,-0.07,
0.362,-0.02,0.54,-0.57,0.28,0.33,-0.08,
0.365,-0.02,0.54,-0.57,0.30,0.33,-0.08,
0.366,-0.09,0.32,-0.73,0.30,0.33,-0.08,
0.367,-0.09,0.32,-0.73,0.31,0.32,-0.09,
0.369,-0.09,0.32,-0.73,0.32,0.30,-0.09,
0.372,-0.11,0.14,-0.89,0.32,0.30,-0.09,
0.372,-0.11,0.14,-0.89,0.32,0.30,-0.09,
0.374,-0.11,0.14,-0.89,0.32,0.29,-0.08,
0.377,-0.11,0.14,-1.07,0.32,0.29,-0.08,
0.378,-0.11,0.14,-1.07,0.32,0.30,-0.08,
0.379,-0.11,0.14,-1.07,0.32,0.32,-0.08,
0.381,-0.05,0.25,-1.32,0.32,0.32,-0.08,
0.382,-0.05,0.25,-1.32,0.32,0.34,-0.08,
0.384,-0.05,0.25,-1.32,0.32,0.37,-0.08,
0.387,-0.05,0.25,-1.32,0.32,0.41,-0.07,
0.387,0.05,0.37,-1.48,0.32,0.41,-0.07,
0.389,0.05,0.37,-1.48,0.32,0.45,-0.07,
0.393,0.16,0.50,-1.60,0.32,0.45,-0.07,
0.394,0.16,0.50,-1.60,0.32,0.48,-0.08,
0.394,0.16,0.50,-1.60,0.32,0.53,-0.08,
0.397,0.21,0.54,-1.74,0.32,0.53,-0.08,
0.397,0.21,0.54,-1.74,0.33,0.57,-0.08,
0.399,0.21,0.54,-1.74,0.33,0.62,-0.08,
0.401,0.23,0.56,-1.86,0.33,0.62,-0.08,
0.401,0.23,0.56,-1.86,0.33,0.68,-0.09,
0.403,0.23,0.56,-1.86,0.34,0.74,-0.09,
0.406,0.20,0.55,-1.98,0.34,0.74,-0.09,
0.407,0.20,0.55,-1.98,0.34,0.80,-0.08,
0.41,0.20,0.55,-1.98,0.35,0.86,-0.08,
0.411,0.16,0.56,-2.09,0.35,0.86,-0.08,
0.411,0.16,0.56,-2.09,0.36,0.91,-0.08,
0.414,0.16,0.56,-2.09,0.38,0.97,-0.07,
0.416,0.16,0.56,-2.09,0.39,1.03,-0.06,
0.416,0.14,0.56,-2.17,0.39,1.03,-0.06,
0.418,0.14,0.56,-2.17,0.41,1.09,-0.06,
0.421,0.15,0.54,-2.18,0.41,1.09,-0.06,
0.421,0.15,0.54,-2.18,0.44,1.15,-0.05,
0.424,0.15,0.54,-2.18,0.46,1.21,-0.04,
0.427,0.15,0.54,-2.18,0.50,1.26,-0.03,
0.428,0.16,0.48,-2.16,0.50,1.26,-0.03,
0.428,0.16,0.48,-2.16,0.53,1.31,-0.03,
0.434,0.16,0.48,-2.16,0.57,1.36,-0.03,
0.434,0.16,0.48,-2.16,0.61,1.41,-0.02,
0.435,0.15,0.41,-2.12,0.61,1.41,-0.02,
0.436,0.15,0.41,-2.12,0.66,1.45,-0.02,
0.436,0.18,0.32,-2.14,0.66,1.45,-0.02,
0.438,0.18,0.32,-2.14,0.71,1.50,-0.02,
0.441,0.27,0.23,-2.22,0.71,1.50,-0.02,
0.441,0.27,0.23,-2.22,0.77,1.54,-0.02,
0.443,0.27,0.23,-2.22,0.82,1.58,-0.02,
0.446,0.36,0.16,-2.37,0.82,1.58,-0.02,
0.446,0.36,0.16,-2.37,0.88,1.61,-0.02,
0.448,0.36,0.16,-2.37,0.94,1.65,-0.02,
0.451,0.44,0.10,-2.59,0.94,1.65,-0.02,
0.451,0.44,0.10,-2.59,1.00,1.68,-0.02,
0.453,0.44,0.10,-2.59,1.06,1.72,-0.02,
0.456,0.51,0.06,-2.87,1.06,1.72,-0.02,
0.456,0.51,0.06,-2.87,1.11,1.75,-0.02,
0.458,0.51,0.06,-2.87,1.17,1.79,-0.02,
0.461,0.62,-0.01,-3.18,1.17,1.79,-0.02,
0.461,0.62,-0.01,-3.18,1.23,1.84,-0.01,
0.463,0.62,-0.01,-3.18,1.28,1.88,-0.01,
0.466,0.70,-0.14,-3.46,1.28,1.88,-0.01,
0.466,0.70,-0.14,-3.46,1.33,1.93,-0.00,
0.468,0.70,-0.14,-3.46,1.39,1.99,-0.00,
0.471,0.76,-0.24,-3.74,1.39,1.99,-0.00,
0.471,0.76,-0.24,-3.74,1.44,2.04,0.01,
0.473,0.76,-0.24,-3.74,1.49,2.08,0.02,
0.478,0.86,-0.40,-4.03,1.49,2.08,0.02,
0.478,0.86,-0.40,-4.03,1.54,2.12,0.02,
0.481,0.86,-0.40,-4.03,1.58,2.16,0.03,
0.481,0.98,-0.59,-4.35,1.58,2.16,0.03,
0.481,0.98,-0.59,-4.35,1.63,2.20,0.04,
0.483,0.98,-0.59,-4.35,1.67,2.24,0.05,
0.494,1.12,-0.79,-4.66,1.67,2.24,0.05,
0.494,1.12,-0.79,-4.66,1.71,2.29,0.06,
0.494,1.05,-1.06,-5.07,1.71,2.29,0.06,
0.496,1.05,-1.06,-5.07,1.75,2.34,0.06,
0.496,1.05,-1.06,-5.07,1.78,2.40,0.07,
0.496,1.05,-1.06,-5.07,1.80,2.48,0.09,
0.496,0.46,-1.45,-5.87,1.80,2.48,0.09,
0.497,0.46,-1.45,-5.87,1.82,2.59,0.11,
0.5,1.24,-1.45,-5.90,1.82,2.59,0.11,
0.501,1.24,-1.45,-5.90,1.83,2.69,0.14,
0.501,1.24,-1.45,-5.90,1.84,2.77,0.16,
0.503,1.24,-1.45,-5.90,1.86,2.84,0.17,
0.505,2.22,-1.36,-5.72,1.86,2.84,0.17,
0.506,2.22,-1.36,-5.72,1.89,2.91,0.17,
0.508,2.22,-1.36,-5.72,1.92,2.97,0.16,
0.511,2.22,-1.36,-5.72,1.96,3.03,0.13,
0.513,2.22,-1.36,-5.72,1.99,3.11,0.10,
0.513,2.85,-1.39,-5.85,1.99,3.11,0.10,
0.515,2.85,-1.39,-5.85,2.02,3.19,0.06,
0.516,3.03,-1.57,-6.26,2.02,3.19,0.06,
0.518,3.03,-1.57,-6.26,2.04,3.29,0.02,
0.521,2.98,-1.95,-6.58,2.04,3.29,0.02,
0.521,2.98,-1.95,-6.58,2.06,3.39,-0.02,
0.523,2.98,-1.95,-6.58,2.08,3.50,-0.06,
0.527,2.98,-1.95,-6.58,2.10,3.61,-0.10,
0.527,2.92,-2.42,-6.69,2.10,3.61,-0.10,
0.528,2.92,-2.42,-6.69,2.12,3.72,-0.14,
0.53,2.96,-2.83,-6.62,2.12,3.72,-0.14,
0.531,2.96,-2.83,-6.62,2.13,3.82,-0.18,
0.532,2.96,-2.83,-6.62,2.15,3.92,-0.21,
0.536,3.04,-3.15,-6.48,2.15,3.92,-0.21,
0.536,3.04,-3.15,-6.48,2.17,4.01,-0.24,
0.537,3.04,-3.15,-6.48,2.18,4.09,-0.28,
0.542,3.04,-3.15,-6.48,2.20,4.17,-0.31,
0.543,3.09,-3.39,-6.29,2.20,4.17,-0.31,
0.543,3.09,-3.39,-6.29,2.23,4.25,-0.35,
0.546,3.13,-3.63,-6.08,2.23,4.25,-0.35,
0.546,3.13,-3.63,-6.08,2.25,4.32,-0.38,
0.547,3.13,-3.63,-6.08,2.28,4.39,-0.42,
0.551,3.12,-3.95,-5.91,2.28,4.39,-0.42,
0.551,3.12,-3.95,-5.91,2.30,4.45,-0.47,
0.553,3.12,-3.95,-5.91,2.33,4.52,-0.52,
0.555,3.13,-4.32,-5.73,2.33,4.52,-0.52,
0.556,3.13,-4.32,-5.73,2.35,4.57,-0.57,
0.558,3.13,-4.32,-5.73,2.37,4.63,-0.62,
0.56,3.15,-4.65,-5.57,2.37,4.63,-0.62,
0.56,3.15,-4.65,-5.57,2.39,4.67,-0.68,
0.562,3.15,-4.65,-5.57,2.41,4.70,-0.75,
0.566,3.25,-4.98,-5.46,2.41,4.70,-0.75,
0.566,3.25,-4.98,-5.46,2.42,4.72,-0.81,
0.568,3.25,-4.98,-5.46,2.43,4.74,-0.88,
0.57,3.34,-5.30,-5.31,2.43,4.74,-0.88,
0.57,3.34,-5.30,-5.31,2.43,4.75,-0.96,
0.572,3.34,-5.30,-5.31,2.43,4.76,-1.03,
0.577,3.39,-5.58,-5.22,2.43,4.76,-1.03,
0.578,3.39,-5.58,-5.22,2.43,4.77,-1.12,
0.578,3.39,-5.58,-5.22,2.42,4.77,-1.20,
0.58,3.45,-5.87,-5.11,2.42,4.77,-1.20,
0.58,3.45,-5.87,-5.11,2.41,4.77,-1.29,
0.582,3.45,-5.87,-5.11,2.39,4.76,-1.38,
0.586,3.42,-6.17,-4.99,2.39,4.76,-1.38,
0.586,3.42,-6.17,-4.99,2.37,4.75,-1.48,
0.587,3.42,-6.17,-4.99,2.35,4.73,-1.58,
0.59,3.35,-6.49,-4.86,2.35,4.73,-1.58,
0.59,3.35,-6.49,-4.86,2.32,4.70,-1.67,
0.595,3.35,-6.49,-4.86,2.30,4.67,-1.78,
0.595,3.35,-6.49,-4.86,2.26,4.61,-1.87,
0.595,3.26,-6.81,-4.86,2.26,4.61,-1.87,
0.597,3.26,-6.81,-4.86,2.22,4.54,-1.97,
0.6,3.26,-6.81,-4.86,2.17,4.46,-2.08,
0.601,3.10,-7.14,-4.98,2.17,4.46,-2.08,
0.603,3.10,-7.14,-4.98,2.11,4.40,-2.17,
0.608,2.93,-7.39,-4.85,2.11,4.40,-2.17,
0.608,2.93,-7.39,-4.85,2.05,4.34,-2.27,
0.608,2.93,-7.39,-4.85,1.99,4.29,-2.37,
0.609,2.93,-7.39,-4.85,1.93,4.24,-2.46,
0.61,2.78,-7.64,-4.64,1.93,4.24,-2.46,
0.612,2.78,-7.64,-4.64,1.87,4.20,-2.55,
0.617,2.78,-7.64,-4.64,1.81,4.16,-2.65,
0.617,2.59,-7.88,-4.42,1.81,4.16,-2.65,
0.617,2.59,-7.88,-4.42,1.75,4.11,-2.74,
0.62,2.42,-8.19,-4.18,1.75,4.11,-2.74,
0.62,2.42,-8.19,-4.18,1.71,4.06,-2.83,
0.622,2.42,-8.19,-4.18,1.67,4.01,-2.93,
0.624,2.42,-8.19,-4.18,1.63,3.96,-3.02,
0.625,2.27,-8.52,-3.92,1.63,3.96,-3.02,
0.627,2.27,-8.52,-3.92,1.60,3.91,-3.12,
0.629,2.27,-8.52,-3.92,1.57,3.86,-3.21,
0.629,2.16,-8.83,-3.69,1.57,3.86,-3.21,
0.632,2.16,-8.83,-3.69,1.54,3.82,-3.31,
0.638,2.01,-9.11,-3.49,1.54,3.82,-3.31,
0.638,2.01,-9.11,-3.49,1.51,3.78,-3.40,
0.645,2.01,-9.11,-3.49,1.49,3.74,-3.50,
0.646,1.86,-9.37,-3.34,1.49,3.74,-3.50,
0.647,1.69,-9.64,-3.23,1.49,3.74,-3.50,
0.647,1.69,-9.64,-3.23,1.47,3.71,-3.59,
0.647,1.69,-9.64,-3.23,1.45,3.67,-3.69,
0.647,1.69,-9.64,-3.23,1.43,3.64,-3.79,
0.647,1.69,-9.64,-3.23,1.41,3.62,-3.89,
0.649,1.69,-9.64,-3.23,1.39,3.59,-3.99,
0.667,1.45,-9.91,-3.13,1.39,3.59,-3.99,
0.668,1.45,-9.91,-3.13,1.37,3.57,-4.09,
0.668,1.45,-9.91,-3.13,1.35,3.54,-4.19,
0.668,1.16,-10.19,-3.02,1.35,3.54,-4.19,
0.669,1.16,-10.19,-3.02,1.33,3.52,-4.29,
0.669,1.16,-10.19,-3.02,1.30,3.49,-4.40,
0.669,0.90,-10.42,-2.92,1.30,3.49,-4.40,
0.67,0.90,-10.42,-2.92,1.27,3.46,-4.50,
0.67,0.62,-10.71,-2.65,1.27,3.46,-4.50,
0.67,0.62,-10.71,-2.65,1.24,3.43,-4.60,
0.679,0.62,-10.71,-2.65,1.21,3.39,-4.71,
0.679,0.62,-10.71,-2.65,1.19,3.35,-4.81,
0.679,0.62,-10.71,-2.65,1.16,3.31,-4.92,
0.679,0.27,-11.00,-2.39,1.16,3.31,-4.92,
0.68,-0.27,-11.20,-2.34,1.16,3.31,-4.92,
0.68,-0.91,-11.35,-2.41,1.16,3.31,-4.92,
0.68,-0.91,-11.35,-2.41,1.12,3.26,-5.02,
0.68,-0.91,-11.35,-2.41,1.07,3.21,-5.12,
0.68,-0.91,-11.35,-2.41,1.02,3.16,-5.22,
0.681,-0.91,-11.35,-2.41,0.97,3.09,-5.32,
0.684,-1.51,-11.51,-2.44,0.97,3.09,-5.32,
0.685,-1.51,-11.51,-2.44,0.90,3.03,-5.42,
0.687,-1.51,-11.51,-2.44,0.83,2.96,-5.51,
0.689,-2.17,-11.67,-2.53,0.83,2.96,-5.51,
0.689,-2.17,-11.67,-2.53,0.74,2.89,-5.60,
0.695,-2.17,-11.67,-2.53,0.65,2.82,-5.68,
0.696,-2.17,-11.67,-2.53,0.55,2.76,-5.76,
0.696,-2.85,-11.83,-2.59,0.55,2.76,-5.76,
0.696,-2.85,-11.83,-2.59,0.44,2.69,-5.83,
0.701,-2.85,-11.83,-2.59,0.32,2.62,-5.91,
0.701,-3.63,-12.03,-2.60,0.32,2.62,-5.91,
0.701,-3.63,-12.03,-2.60,0.20,2.55,-5.98,
0.704,-3.63,-12.03,-2.60,0.06,2.48,-6.04,
0.704,-4.47,-12.24,-2.52,0.06,2.48,-6.04,
0.706,-4.47,-12.24,-2.52,-0.07,2.40,-6.11,
0.712,-5.32,-12.45,-2.47,-0.07,2.40,-6.11,
0.714,-5.32,-12.45,-2.47,-0.22,2.31,-6.16,
0.715,-5.32,-12.45,-2.47,-0.36,2.23,-6.22,
0.715,-5.32,-12.45,-2.47,-0.52,2.15,-6.27,
0.715,-6.05,-12.57,-2.33,-0.52,2.15,-6.27,
0.716,-6.05,-12.57,-2.33,-0.67,2.06,-6.31,
0.718,-6.05,-12.57,-2.33,-0.82,1.99,-6.35,
0.718,-6.76,-12.60,-2.11,-0.82,1.99,-6.35,
0.721,-6.76,-12.60,-2.11,-0.98,1.91,-6.39,
0.723,-6.76,-12.60,-2.11,-1.13,1.85,-6.42,
0.724,-7.42,-12.57,-1.87,-1.13,1.85,-6.42,
0.728,-7.42,-12.57,-1.87,-1.28,1.78,-6.44,
0.729,-7.42,-12.57,-1.87,-1.43,1.73,-6.47,
0.729,-8.06,-12.53,-1.58,-1.43,1.73,-6.47,
0.734,-8.06,-12.53,-1.58,-1.58,1.67,-6.48,
0.734,-8.06,-12.53,-1.58,-1.72,1.62,-6.50,
0.734,-8.67,-12.53,-1.27,-1.72,1.62,-6.50,
0.737,-8.67,-12.53,-1.27,-1.86,1.58,-6.51,
0.739,-8.67,-12.53,-1.27,-1.99,1.54,-6.52,
0.739,-9.20,-12.55,-0.87,-1.99,1.54,-6.52,
0.741,-9.20,-12.55,-0.87,-2.12,1.50,-6.52,
0.746,-9.20,-12.55,-0.87,-2.25,1.47,-6.53,
0.747,-9.20,-12.55,-0.87,-2.37,1.44,-6.53,
0.747,-9.61,-12.54,-0.43,-2.37,1.44,-6.53,
0.749,-9.61,-12.54,-0.43,-2.48,1.41,-6.53,
0.749,-10.03,-12.49,0.07,-2.48,1.41,-6.53,
0.751,-10.03,-12.49,0.07,-2.58,1.38,-6.53,
0.754,-10.44,-12.45,0.59,-2.58,1.38,-6.53,
0.755,-10.44,-12.45,0.59,-2.68,1.36,-6.53,
0.756,-10.44,-12.45,0.59,-2.77,1.34,-6.53,
0.76,-10.79,-12.45,1.14,-2.77,1.34,-6.53,
0.761,-10.79,-12.45,1.14,-2.85,1.31,-6.53,
0.761,-10.79,-12.45,1.14,-2.93,1.28,-6.53,
0.763,-11.07,-12.40,1.69,-2.93,1.28,-6.53,
0.767,-11.07,-12.40,1.69,-2.99,1.25,-6.53,
0.768,-11.07,-12.40,1.69,-3.06,1.22,-6.53,
0.768,-11.07,-12.40,1.69,-3.11,1.19,-6.53,
0.771,-11.34,-12.24,2.22,-3.11,1.19,-6.53,
0.771,-11.34,-12.24,2.22,-3.16,1.16,-6.53,
0.773,-11.34,-12.24,2.22,-3.20,1.14,-6.53,
0.774,-11.57,-11.99,2.76,-3.20,1.14,-6.53,
0.778,-11.57,-11.99,2.76,-3.23,1.12,-6.52,
0.779,-11.76,-11.66,3.25,-3.23,1.12,-6.52,
0.779,-11.76,-11.66,3.25,-3.26,1.10,-6.51,
0.78,-11.76,-11.66,3.25,-3.27,1.09,-6.50,
0.783,-11.76,-11.66,3.25,-3.29,1.08,-6.49,
0.783,-11.96,-11.26,3.71,-3.29,1.08,-6.49,
0.786,-11.96,-11.26,3.71,-3.30,1.08,-6.48,
0.788,-11.96,-11.26,3.71,-3.30,1.07,-6.46,
0.788,-12.15,-10.85,4.15,-3.30,1.07,-6.46,
0.79,-12.15,-10.85,4.15,-3.29,1.07,-6.44,
0.793,-12.15,-10.85,4.15,-3.28,1.07,-6.41,
0.794,-12.37,-10.38,4.63,-3.28,1.07,-6.41,
0.795,-12.37,-10.38,4.63,-3.26,1.07,-6.38,
0.798,-12.37,-10.38,4.63,-3.24,1.07,-6.34,
0.798,-12.57,-9.84,5.08,-3.24,1.07,-6.34,
0.8,-12.57,-9.84,5.08,-3.22,1.07,-6.30,
0.803,-12.75,-9.27,5.50,-3.22,1.07,-6.30,
0.803,-12.75,-9.27,5.50,-3.19,1.07,-6.25,
0.806,-12.75,-9.27,5.50,-3.15,1.07,-6.20,
0.808,-12.75,-9.27,5.50,-3.11,1.07,-6.15,
0.808,-12.88,-8.65,5.91,-3.11,1.07,-6.15,
0.811,-12.88,-8.65,5.91,-3.06,1.07,-6.08,
0.815,-12.93,-7.99,6.24,-3.06,1.07,-6.08,
0.815,-12.93,-7.99,6.24,-3.01,1.07,-6.02,
0.835,-12.93,-7.99,6.24,-2.96,1.06,-5.95,
0.836,-12.94,-7.29,6.55,-2.96,1.06,-5.95,
0.836,-12.94,-7.29,6.55,-2.91,1.05,-5.88,
0.836,-12.94,-7.29,6.55,-2.86,1.05,-5.81,
0.837,-12.93,-6.57,6.88,-2.86,1.05,-5.81,
0.837,-12.93,-6.57,6.88,-2.80,1.04,-5.73,
0.837,-12.93,-6.57,6.88,-2.74,1.03,-5.65,
0.838,-12.85,-5.86,7.19,-2.74,1.03,-5.65,
0.838,-12.85,-5.86,7.19,-2.68,1.02,-5.56,
0.838,-12.85,-5.86,7.19,-2.61,1.01,-5.48,
0.838,-12.85,-5.86,7.19,-2.54,0.99,-5.39,
0.839,-12.69,-5.15,7.44,-2.54,0.99,-5.39,
0.839,-12.69,-5.15,7.44,-2.47,0.97,-5.31,
0.839,-12.57,-4.46,7.63,-2.47,0.97,-5.31,
0.84,-12.57,-4.46,7.63,-2.40,0.94,-5.22,
0.841,-12.57,-4.46,7.63,-2.34,0.91,-5.13,
0.843,-12.33,-3.82,7.84,-2.34,0.91,-5.13,
0.843,-12.33,-3.82,7.84,-2.27,0.88,-5.04,
0.845,-12.33,-3.82,7.84,-2.20,0.84,-4.95,
0.848,-12.33,-3.82,7.84,-2.13,0.80,-4.86,
0.848,-12.06,-3.20,8.05,-2.13,0.80,-4.86,
0.85,-12.06,-3.20,8.05,-2.06,0.76,-4.77,
0.852,-12.06,-3.20,8.05,-1.98,0.72,-4.67,
0.853,-11.77,-2.60,8.24,-1.98,0.72,-4.67,
0.855,-11.77,-2.60,8.24,-1.91,0.67,-4.58,
0.858,-11.77,-2.60,8.24,-1.83,0.63,-4.49,
0.858,-11.48,-2.02,8.50,-1.83,0.63,-4.49,
0.86,-11.48,-2.02,8.50,-1.75,0.58,-4.40,
0.864,-11.48,-2.02,8.50,-1.67,0.53,-4.31,
0.864,-11.23,-1.49,8.71,-1.67,0.53,-4.31,
0.865,-11.23,-1.49,8.71,-1.58,0.48,-4.21,
0.868,-10.93,-1.03,8.84,-1.58,0.48,-4.21,
0.868,-10.93,-1.03,8.84,-1.49,0.42,-4.12,
0.87,-10.93,-1.03,8.84,-1.41,0.36,-4.03,
0.873,-10.93,-1.03,8.84,-1.32,0.29,-3.94,
0.873,-10.60,-0.66,8.87,-1.32,0.29,-3.94,
0.875,-10.60,-0.66,8.87,-1.23,0.22,-3.84,
0.881,-10.60,-0.66,8.87,-1.14,0.14,-3.75,
0.881,-10.29,-0.37,8.85,-1.14,0.14,-3.75,
0.882,-10.29,-0.37,8.85,-1.05,0.06,-3.66,
0.882,-10.29,-0.37,8.85,-0.97,-0.02,-3.56,
0.883,-9.96,-0.14,8.72,-0.97,-0.02,-3.56,
0.886,-9.96,-0.14,8.72,-0.88,-0.11,-3.47,
0.887,-9.96,-0.14,8.72,-0.80,-0.19,-3.37,
0.887,-9.68,0.09,8.62,-0.80,-0.19,-3.37,
0.89,-9.68,0.09,8.62,-0.72,-0.28,-3.27,
0.895,-9.42,0.32,8.44,-0.72,-0.28,-3.27,
0.895,-9.42,0.32,8.44,-0.64,-0.37,-3.18,
0.895,-9.42,0.32,8.44,-0.56,-0.47,-3.07,
0.898,-9.42,0.32,8.44,-0.49,-0.56,-2.97,
0.898,-9.23,0.55,8.21,-0.49,-0.56,-2.97,
0.899,-9.23,0.55,8.21,-0.42,-0.66,-2.86,
0.902,-9.23,0.55,8.21,-0.35,-0.77,-2.76,
0.902,-9.14,0.79,7.91,-0.35,-0.77,-2.76,
0.904,-9.14,0.79,7.91,-0.28,-0.86,-2.65,
0.908,-8.97,0.94,7.52,-0.28,-0.86,-2.65,
0.908,-8.97,0.94,7.52,-0.22,-0.96,-2.53,
0.91,-8.97,0.94,7.52,-0.16,-1.06,-2.42,
0.914,-8.66,1.00,7.08,-0.16,-1.06,-2.42,
0.914,-8.66,1.00,7.08,-0.11,-1.15,-2.31,
0.915,-8.66,1.00,7.08,-0.06,-1.23,-2.21,
0.918,-8.66,1.00,7.08,-0.02,-1.31,-2.11,
0.918,-8.19,1.02,6.62,-0.02,-1.31,-2.11,
0.919,-8.19,1.02,6.62,0.03,-1.38,-2.02,
0.923,-8.19,1.02,6.62,0.07,-1.44,-1.94,
0.923,-7.67,1.01,6.16,0.07,-1.44,-1.94,
0.924,-7.67,1.01,6.16,0.10,-1.49,-1.87,
0.927,-7.67,1.01,6.16,0.14,-1.55,-1.80,
0.927,-7.26,0.98,5.72,0.14,-1.55,-1.80,
0.93,-7.26,0.98,5.72,0.17,-1.59,-1.74,
0.932,-7.26,0.98,5.72,0.19,-1.63,-1.68,
0.932,-6.89,0.91,5.31,0.19,-1.63,-1.68,
0.934,-6.89,0.91,5.31,0.22,-1.67,-1.63,
0.937,-6.89,0.91,5.31,0.24,-1.70,-1.58,
0.937,-6.59,0.81,4.86,0.24,-1.70,-1.58,
0.939,-6.59,0.81,4.86,0.27,-1.73,-1.54,
0.943,-6.59,0.81,4.86,0.28,-1.76,-1.51,
0.943,-6.33,0.74,4.47,0.28,-1.76,-1.51,
0.944,-6.33,0.74,4.47,0.30,-1.78,-1.48,
0.947,-6.33,0.74,4.47,0.31,-1.80,-1.46,
0.947,-6.03,0.65,4.05,0.31,-1.80,-1.46,
0.949,-6.03,0.65,4.05,0.32,-1.82,-1.44,
0.952,-5.73,0.63,3.65,0.32,-1.82,-1.44,
0.952,-5.73,0.63,3.65,0.33,-1.83,-1.43,
0.954,-5.73,0.63,3.65,0.33,-1.84,-1.42,
0.957,-5.45,0.62,3.30,0.33,-1.84,-1.42,
0.957,-5.45,0.62,3.30,0.33,-1.84,-1.41,
0.959,-5.45,0.62,3.30,0.33,-1.84,-1.42,
0.962,-5.45,0.62,3.30,0.32,-1.83,-1.42,
0.962,-5.19,0.65,2.96,0.32,-1.83,-1.42,
0.964,-5.19,0.65,2.96,0.32,-1.82,-1.43,
0.968,-5.19,0.65,2.96,0.31,-1.80,-1.44,
0.968,-4.94,0.76,2.64,0.31,-1.80,-1.44,
0.969,-4.94,0.76,2.64,0.30,-1.78,-1.45,
0.972,-4.94,0.76,2.64,0.28,-1.76,-1.47,
0.972,-4.69,0.86,2.37,0.28,-1.76,-1.47,
0.975,-4.69,0.86,2.37,0.27,-1.73,-1.49,
0.992,-4.69,0.86,2.37,0.26,-1.70,-1.50,
0.997,-4.55,1.01,2.12,0.26,-1.70,-1.50,
0.997,-4.55,1.01,2.12,0.24,-1.67,-1.52,
1.015,-4.45,1.16,1.92,0.24,-1.67,-1.52,
1.015,-4.45,1.16,1.92,0.22,-1.63,-1.54,
1.016,-4.45,1.16,1.92,0.20,-1.59,-1.55,
1.016,-4.39,1.27,1.78,0.20,-1.59,-1.55,
1.016,-4.39,1.27,1.78,0.18,-1.56,-1.56,
1.016,-4.39,1.27,1.78,0.16,-1.52,-1.58,
1.017,-4.39,1.27,1.78,0.14,-1.48,-1.59,
1.017,-4.22,1.48,1.67,0.14,-1.48,-1.59,
1.017,-4.22,1.48,1.67,0.12,-1.45,-1.61,
1.017,-4.22,1.48,1.67,0.10,-1.42,-1.63,
1.017,-4.09,1.72,1.57,0.10,-1.42,-1.63,
1.018,-4.09,1.72,1.57,0.08,-1.38,-1.65,
1.018,-4.09,1.72,1.57,0.06,-1.35,-1.66,
1.018,-4.03,1.95,1.51,0.06,-1.35,-1.66,
1.018,-4.03,1.95,1.51,0.04,-1.31,-1.68,
1.019,-4.03,1.95,1.51,0.03,-1.28,-1.69,
1.019,-4.04,2.16,1.49,0.03,-1.28,-1.69,
1.019,-4.04,2.16,1.49,0.01,-1.24,-1.70,
1.019,-4.05,2.35,1.49,0.01,-1.24,-1.70,
1.02,-4.05,2.35,1.49,-0.01,-1.21,-1.71,
1.02,-4.05,2.35,1.49,-0.02,-1.18,-1.72,
1.02,-4.05,2.35,1.49,-0.04,-1.15,-1.73,
1.02,-4.05,2.35,1.49,-0.05,-1.12,-1.74,
1.021,-4.05,2.54,1.50,-0.05,-1.12,-1.74,
1.022,-4.05,2.54,1.50,-0.07,-1.10,-1.74,
1.025,-4.08,2.72,1.51,-0.07,-1.10,-1.74,
1.025,-4.08,2.72,1.51,-0.08,-1.08,-1.75,
1.03,-4.16,2.88,1.55,-0.08,-1.08,-1.75,
1.031,-4.16,2.88,1.55,-0.09,-1.06,-1.75,
1.031,-4.16,2.88,1.55,-0.10,-1.04,-1.74,
1.032,-4.26,3.00,1.61,-0.10,-1.04,-1.74,
1.033,-4.26,3.00,1.61,-0.11,-1.03,-1.74,
1.033,-4.26,3.00,1.61,-0.11,-1.01,-1.74,
1.036,-4.26,3.00,1.61,-0.12,-1.00,-1.73,
1.036,-4.41,3.09,1.69,-0.12,-1.00,-1.73,
1.038,-4.41,3.09,1.69,-0.12,-1.00,-1.72,
1.041,-4.41,3.09,1.69,-0.13,-1.00,-1.72,
1.041,-4.49,3.17,1.79,-0.13,-1.00,-1.72,
1.045,-4.49,3.17,1.79,-0.13,-0.99,-1.71,
1.046,-4.58,3.28,1.83,-0.13,-0.99,-1.71,
1.046,-4.58,3.28,1.83,-0.13,-1.00,-1.70,
1.048,-4.58,3.28,1.83,-0.13,-1.00,-1.69,
1.051,-4.58,3.28,1.83,-0.12,-1.01,-1.68,
1.051,-4.65,3.37,1.87,-0.12,-1.01,-1.68,
1.054,-4.65,3.37,1.87,-0.12,-1.02,-1.67,
1.056,-4.76,3.42,1.87,-0.12,-1.02,-1.67,
1.056,-4.76,3.42,1.87,-0.11,-1.03,-1.66,
1.058,-4.76,3.42,1.87,-0.11,-1.04,-1.65,
1.062,-4.76,3.42,1.87,-0.10,-1.05,-1.64,
1.063,-4.90,3.48,1.89,-0.10,-1.05,-1.64,
1.075,-4.90,3.48,1.89,-0.10,-1.06,-1.63,
1.075,-5.07,3.49,1.89,-0.10,-1.06,-1.63,
1.076,-5.07,3.49,1.89,-0.09,-1.07,-1.62,
1.076,-5.07,3.49,1.89,-0.08,-1.08,-1.60,
1.076,-5.30,3.49,1.81,-0.08,-1.08,-1.60,
1.077,-5.30,3.49,1.81,-0.07,-1.10,-1.59,
1.077,-5.30,3.49,1.81,-0.07,-1.11,-1.58,
1.077,-5.30,3.49,1.81,-0.06,-1.12,-1.56,
1.077,-5.60,3.38,1.74,-0.06,-1.12,-1.56,
1.094,-5.60,3.38,1.74,-0.05,-1.14,-1.55,
1.095,-5.85,3.32,1.69,-0.05,-1.14,-1.55,
1.095,-5.85,3.32,1.69,-0.04,-1.16,-1.54,
1.095,-5.85,3.32,1.69,-0.04,-1.18,-1.53,
1.096,-6.06,3.32,1.66,-0.04,-1.18,-1.53,
1.096,-6.06,3.32,1.66,-0.03,-1.20,-1.52,
1.096,-6.06,3.32,1.66,-0.02,-1.23,-1.50,
1.096,-6.06,3.32,1.66,-0.01,-1.25,-1.49,
1.096,-6.22,3.42,1.57,-0.01,-1.25,-1.49,
1.096,-6.22,3.42,1.57,0.00,-1.28,-1.48,
1.097,-6.22,3.42,1.57,0.01,-1.32,-1.46,
1.097,-6.29,3.61,1.46,0.01,-1.32,-1.46,
1.098,-6.29,3.61,1.46,0.02,-1.35,-1.44,
1.101,-6.29,3.61,1.46,0.03,-1.37,-1.42,
1.101,-6.31,3.83,1.29,0.03,-1.37,-1.42,
1.103,-6.31,3.83,1.29,0.03,-1.40,-1.40,
1.106,-6.31,3.83,1.29,0.04,-1.43,-1.38,
1.106,-6.28,4.04,1.11,0.04,-1.43,-1.38,
1.108,-6.28,4.04,1.11,0.04,-1.45,-1.35,
1.114,-6.28,4.04,1.11,0.04,-1.47,-1.32,
1.114,-6.27,4.19,0.92,0.04,-1.47,-1.32,
1.115,-6.27,4.19,0.92,0.04,-1.50,-1.29,
1.116,-6.25,4.32,0.77,0.04,-1.50,-1.29,
1.116,-6.25,4.32,0.77,0.03,-1.52,-1.25,
1.118,-6.25,4.32,0.77,0.03,-1.54,-1.22,
1.12,-6.22,4.42,0.62,0.03,-1.54,-1.22,
1.121,-6.22,4.42,0.62,0.02,-1.56,-1.18,
1.123,-6.22,4.42,0.62,0.01,-1.58,-1.14,
1.125,-6.22,4.42,0.62,-0.00,-1.60,-1.11,
1.126,-6.13,4.47,0.49,-0.00,-1.60,-1.11,
1.131,-6.13,4.47,0.49,-0.01,-1.62,-1.07,
1.136,-6.02,4.51,0.39,-0.01,-1.62,-1.07,
1.137,-5.90,4.46,0.32,-0.01,-1.62,-1.07,
1.138,-5.90,4.46,0.32,-0.02,-1.65,-1.03,
1.138,-5.90,4.46,0.32,-0.03,-1.66,-1.00,
1.138,-5.90,4.46,0.32,-0.03,-1.68,-0.96,
1.138,-5.90,4.46,0.32,-0.03,-1.70,-0.93,
1.141,-5.79,4.43,0.31,-0.03,-1.70,-0.93,
1.146,-5.79,4.43,0.31,-0.04,-1.71,-0.90,
1.147,-5.79,4.43,0.31,-0.03,-1.73,-0.87,
1.147,-5.67,4.37,0.29,-0.03,-1.73,-0.87,
1.175,-5.67,4.37,0.29,-0.03,-1.75,-0.84,
1.175,-5.67,4.37,0.29,-0.02,-1.77,-0.82,
1.176,-5.59,4.31,0.28,-0.02,-1.77,-0.82,
1.176,-5.59,4.31,0.28,-0.01,-1.79,-0.79,
1.176,-5.59,4.31,0.28,0.00,-1.81,-0.77,
1.177,-5.59,4.31,0.28,0.01,-1.83,-0.74,
1.177,-5.55,4.23,0.24,0.01,-1.83,-0.74,
1.177,-5.55,4.23,0.24,0.03,-1.85,-0.72,
1.177,-5.55,4.18,0.21,0.03,-1.85,-0.72,
1.178,-5.55,4.18,0.21,0.06,-1.87,-0.69,
1.178,-5.55,4.18,0.21,0.08,-1.89,-0.67,
1.178,-5.51,4.18,0.12,0.08,-1.89,-0.67,
1.178,-5.51,4.18,0.12,0.11,-1.91,-0.64,
1.179,-5.51,4.18,0.12,0.13,-1.92,-0.62,
1.179,-5.51,4.18,0.12,0.16,-1.94,-0.59,
1.179,-5.47,4.18,-0.00,0.16,-1.94,-0.59,
1.179,-5.47,4.18,-0.00,0.20,-1.95,-0.56,
1.18,-5.38,4.14,-0.16,0.20,-1.95,-0.56,
1.18,-5.38,4.14,-0.16,0.23,-1.97,-0.53,
1.18,-5.38,4.14,-0.16,0.26,-1.98,-0.50,
1.18,-5.38,4.14,-0.16,0.29,-1.99,-0.47,
1.181,-5.32,4.09,-0.39,0.29,-1.99,-0.47,
1.182,-5.32,4.09,-0.39,0.33,-2.00,-0.44,
1.185,-5.23,4.02,-0.59,0.33,-2.00,-0.44,
1.185,-5.23,4.02,-0.59,0.36,-2.00,-0.41,
1.189,-5.23,4.02,-0.59,0.39,-2.00,-0.38,
1.19,-5.23,4.02,-0.59,0.42,-2.01,-0.35,
1.191,-5.10,3.95,-0.81,0.42,-2.01,-0.35,
1.192,-5.10,3.95,-0.81,0.45,-2.01,-0.33,
1.196,-5.10,3.95,-0.81,0.49,-2.01,-0.30,
1.196,-4.94,3.89,-1.07,0.49,-2.01,-0.30,
1.197,-4.94,3.89,-1.07,0.51,-2.01,-0.28,
1.2,-4.75,3.80,-1.40,0.51,-2.01,-0.28,
1.2,-4.75,3.80,-1.40,0.54,-2.00,-0.26,
1.203,-4.75,3.80,-1.40,0.56,-1.99,-0.25,
1.204,-4.75,3.80,-1.40,0.58,-1.99,-0.24,
1.205,-4.55,3.67,-1.74,0.58,-1.99,-0.24,
1.207,-4.55,3.67,-1.74,0.59,-1.98,-0.23,
1.209,-4.55,3.67,-1.74,0.60,-1.96,-0.22,
1.21,-4.42,3.56,-2.10,0.60,-1.96,-0.22,
1.213,-4.42,3.56,-2.10,0.61,-1.95,-0.22,
1.215,-4.42,3.56,-2.10,0.62,-1.93,-0.22,
1.215,-4.26,3.46,-2.41,0.62,-1.93,-0.22,
1.217,-4.26,3.46,-2.41,0.62,-1.91,-0.23,
1.22,-4.10,3.38,-2.73,0.62,-1.91,-0.23,
1.22,-4.10,3.38,-2.73,0.62,-1.88,-0.23,
1.222,-4.10,3.38,-2.73,0.62,-1.86,-0.24,
1.224,-3.95,3.32,-3.02,0.62,-1.86,-0.24,
1.224,-3.95,3.32,-3.02,0.61,-1.83,-0.25,
1.227,-3.95,3.32,-3.02,0.61,-1.80,-0.26,
1.23,-3.90,3.27,-3.27,0.61,-1.80,-0.26,
1.23,-3.90,3.27,-3.27,0.60,-1.77,-0.28,
1.233,-3.90,3.27,-3.27,0.60,-1.73,-0.29,
1.235,-3.90,3.27,-3.27,0.59,-1.69,-0.30,
1.235,-3.87,3.22,-3.50,0.59,-1.69,-0.30,
1.237,-3.87,3.22,-3.50,0.58,-1.66,-0.32,
1.24,-3.87,3.22,-3.50,0.56,-1.61,-0.33,
1.24,-3.83,3.20,-3.74,0.56,-1.61,-0.33,
1.242,-3.83,3.20,-3.74,0.55,-1.57,-0.35,
1.246,-3.83,3.20,-3.74,0.54,-1.52,-0.37,
1.246,-3.77,3.21,-3.95,0.54,-1.52,-0.37,
1.247,-3.77,3.21,-3.95,0.52,-1.47,-0.39,
1.25,-3.77,3.21,-3.95,0.50,-1.41,-0.41,
1.25,-3.72,3.24,-4.15,0.50,-1.41,-0.41,
1.252,-3.72,3.24,-4.15,0.48,-1.36,-0.43,
1.255,-3.72,3.24,-4.15,0.46,-1.30,-0.45,
1.255,-3.77,3.29,-4.33,0.46,-1.30,-0.45,
1.256,-3.77,3.29,-4.33,0.44,-1.24,-0.47,
1.259,-3.89,3.31,-4.51,0.44,-1.24,-0.47,
1.259,-3.89,3.31,-4.51,0.41,-1.18,-0.49,
1.265,-3.89,3.31,-4.51,0.39,-1.11,-0.50,
1.265,-3.99,3.33,-4.65,0.39,-1.11,-0.50,
1.266,-3.99,3.33,-4.65,0.36,-1.03,-0.51,
1.266,-3.99,3.33,-4.65,0.33,-0.96,-0.53,
1.271,-4.08,3.36,-4.75,0.33,-0.96,-0.53,
1.271,-4.08,3.36,-4.75,0.30,-0.88,-0.54,
1.272,-4.08,3.36,-4.75,0.27,-0.79,-0.55,
1.274,-4.17,3.40,-4.77,0.27,-0.79,-0.55,
1.274,-4.17,3.40,-4.77,0.24,-0.70,-0.56,
1.276,-4.17,3.40,-4.77,0.22,-0.61,-0.56,
1.28,-4.27,3.45,-4.69,0.22,-0.61,-0.56,
1.281,-4.27,3.45,-4.69,0.19,-0.51,-0.57,
1.281,-4.27,3.45,-4.69,0.16,-0.41,-0.58,
1.284,-4.44,3.49,-4.58,0.16,-0.41,-0.58,
1.284,-4.44,3.49,-4.58,0.14,-0.31,-0.59,
1.286,-4.44,3.49,-4.58,0.12,-0.20,-0.59,
1.289,-4.63,3.50,-4.42,0.12,-0.20,-0.59,
1.291,-4.63,3.50,-4.42,0.11,-0.10,-0.59,
1.291,-4.63,3.50,-4.42,0.09,-0.00,-0.60,
1.299,-4.80,3.50,-4.15,0.09,-0.00,-0.60,
1.3,-4.80,3.50,-4.15,0.08,0.09,-0.60,
1.3,-4.98,3.51,-3.85,0.08,0.09,-0.60,
1.301,-4.98,3.51,-3.85,0.07,0.18,-0.60,
1.301,-4.98,3.51,-3.85,0.06,0.26,-0.59,
1.301,-4.98,3.51,-3.85,0.05,0.33,-0.59,
1.304,-5.19,3.54,-3.56,0.05,0.33,-0.59,
1.304,-5.19,3.54,-3.56,0.04,0.41,-0.58,
1.306,-5.19,3.54,-3.56,0.04,0.47,-0.57,
1.309,-5.19,3.54,-3.56,0.04,0.54,-0.56,
1.309,-5.36,3.54,-3.29,0.04,0.54,-0.56,
1.335,-5.36,3.54,-3.29,0.04,0.60,-0.55,
1.336,-5.49,3.54,-3.01,0.04,0.60,-0.55,
1.336,-5.49,3.54,-3.01,0.04,0.65,-0.54,
1.336,-5.49,3.54,-3.01,0.04,0.71,-0.53,
1.336,-5.49,3.54,-3.01,0.04,0.76,-0.52,
1.336,-5.59,3.58,-2.75,0.04,0.76,-0.52,
1.337,-5.59,3.58,-2.75,0.04,0.80,-0.51,
1.337,-5.59,3.58,-2.75,0.05,0.84,-0.49,
1.337,-5.73,3.60,-2.51,0.05,0.84,-0.49,
1.337,-5.73,3.60,-2.51,0.05,0.88,-0.48,
1.337,-5.73,3.60,-2.51,0.04,0.92,-0.47,
1.338,-5.85,3.64,-2.28,0.04,0.92,-0.47,
1.338,-5.85,3.64,-2.28,0.04,0.95,-0.46,
1.34,-5.85,3.64,-2.28,0.04,0.98,-0.44,
1.341,-5.99,3.66,-2.09,0.04,0.98,-0.44,
1.341,-5.99,3.66,-2.09,0.04,1.01,-0.43,
1.341,-5.99,3.66,-2.09,0.03,1.02,-0.40,
1.342,-6.10,3.70,-1.95,0.03,1.02,-0.40,
1.342,-6.10,3.70,-1.95,0.03,1.04,-0.38,
1.351,-6.10,3.70,-1.95,0.02,1.05,-0.36,
1.351,-6.23,3.80,-1.79,0.02,1.05,-0.36,
1.352,-6.23,3.80,-1.79,0.01,1.06,-0.33,
1.352,-6.23,3.80,-1.79,0.01,1.06,-0.30,
1.352,-6.28,3.88,-1.65,0.01,1.06,-0.30,
1.352,-6.28,3.88,-1.65,-0.00,1.06,-0.27,
1.353,-6.28,3.88,-1.65,-0.01,1.06,-0.24,
1.354,-6.23,3.91,-1.53,-0.01,1.06,-0.24,
1.356,-6.23,3.91,-1.53,-0.02,1.06,-0.22,
1.359,-6.17,3.93,-1.44,-0.02,1.06,-0.22,
1.359,-6.17,3.93,-1.44,-0.03,1.06,-0.19,
1.362,-6.17,3.93,-1.44,-0.05,1.06,-0.16,
1.364,-6.17,3.93,-1.44,-0.07,1.05,-0.14,
1.364,-6.11,3.91,-1.36,-0.07,1.05,-0.14,
1.366,-6.11,3.91,-1.36,-0.09,1.05,-0.12,
1.368,-6.11,3.91,-1.36,-0.11,1.05,-0.10,
1.369,-6.08,3.88,-1.28,-0.11,1.05,-0.10,
1.371,-6.08,3.88,-1.28,-0.13,1.06,-0.09,
1.373,-6.08,3.88,-1.28,-0.16,1.06,-0.07,
1.373,-6.02,3.80,-1.17,-0.16,1.06,-0.07,
1.376,-6.02,3.80,-1.17,-0.18,1.06,-0.06,
1.38,-5.96,3.67,-1.07,-0.18,1.06,-0.06,
1.387,-5.96,3.67,-1.07,-0.21,1.06,-0.05,
1.387,-5.96,3.67,-1.07,-0.23,1.07,-0.04,
1.387,-5.96,3.67,-1.07,-0.25,1.09,-0.04,
1.387,-5.92,3.55,-0.92,-0.25,1.09,-0.04,
1.387,-5.92,3.55,-0.92,-0.28,1.10,-0.04,
1.388,-5.92,3.55,-0.92,-0.30,1.11,-0.04,
1.389,-5.97,3.43,-0.74,-0.30,1.11,-0.04,
1.395,-6.06,3.33,-0.52,-0.30,1.11,-0.04,
1.395,-6.06,3.33,-0.52,-0.31,1.14,-0.05,
1.396,-6.06,3.33,-0.52,-0.32,1.16,-0.05,
1.397,-6.06,3.33,-0.52,-0.34,1.19,-0.06,
1.398,-6.06,3.33,-0.52,-0.34,1.23,-0.07,
1.399,-6.19,3.23,-0.25,-0.34,1.23,-0.07,
1.401,-6.19,3.23,-0.25,-0.34,1.27,-0.09,
1.403,-6.19,3.23,-0.25,-0.34,1.31,-0.10,
1.403,-6.39,3.10,0.01,-0.34,1.31,-0.10,
1.407,-6.39,3.10,0.01,-0.33,1.36,-0.11,
1.408,-6.39,3.10,0.01,-0.31,1.42,-0.13,
1.409,-6.69,3.00,0.29,-0.31,1.42,-0.13,
1.41,-6.69,3.00,0.29,-0.29,1.48,-0.14,
1.414,-6.69,3.00,0.29,-0.26,1.54,-0.15,
1.414,-7.15,2.89,0.51,-0.26,1.54,-0.15,
1.415,-7.15,2.89,0.51,-0.24,1.61,-0.16,
1.418,-7.15,2.89,0.51,-0.20,1.68,-0.17,
1.418,-7.65,2.74,0.77,-0.20,1.68,-0.17,
1.42,-7.65,2.74,0.77,-0.17,1.75,-0.18,
1.425,-8.16,2.58,1.00,-0.17,1.75,-0.18,
1.425,-8.16,2.58,1.00,-0.12,1.82,-0.18,
1.425,-8.16,2.58,1.00,-0.08,1.90,-0.19,
1.428,-8.16,2.58,1.00,-0.04,1.97,-0.19,
1.43,-8.65,2.44,1.23,-0.04,1.97,-0.19,
1.43,-8.65,2.44,1.23,0.02,2.04,-0.19,
1.433,-8.65,2.44,1.23,0.07,2.12,-0.19,
1.433,-9.25,2.32,1.39,0.07,2.12,-0.19,
1.435,-9.25,2.32,1.39,0.13,2.20,-0.19,
1.437,-9.88,2.27,1.59,0.13,2.20,-0.19,
1.438,-9.88,2.27,1.59,0.19,2.28,-0.19,
1.44,-9.88,2.27,1.59,0.25,2.36,-0.18,
1.443,-10.60,2.29,1.78,0.25,2.36,-0.18,
1.443,-10.60,2.29,1.78,0.32,2.44,-0.18,
1.447,-10.60,2.29,1.78,0.40,2.53,-0.17,
1.448,-10.60,2.29,1.78,0.48,2.62,-0.15,
1.448,-11.39,2.30,1.88,0.48,2.62,-0.15,
1.45,-11.39,2.30,1.88,0.56,2.72,-0.13,
1.452,-11.39,2.30,1.88,0.64,2.81,-0.11,
1.453,-12.26,2.39,1.96,0.64,2.81,-0.11,
1.455,-12.26,2.39,1.96,0.73,2.90,-0.09,
1.457,-12.26,2.39,1.96,0.82,2.98,-0.07,
1.458,-13.41,2.52,2.06,0.82,2.98,-0.07,
1.46,-13.41,2.52,2.06,0.91,3.05,-0.04,
1.463,-13.41,2.52,2.06,1.01,3.10,-0.00,
1.464,-14.70,2.78,2.16,1.01,3.10,-0.00,
1.465,-14.70,2.78,2.16,1.09,3.13,0.04,
1.468,-14.70,2.78,2.16,1.18,3.14,0.09,
1.468,-15.98,3.22,2.04,1.18,3.14,0.09,
1.47,-15.98,3.22,2.04,1.26,3.11,0.16,
1.473,-17.15,3.82,1.76,1.26,3.11,0.16,
1.473,-17.15,3.82,1.76,1.32,3.07,0.23,
1.476,-17.15,3.82,1.76,1.37,2.99,0.32,
1.491,-17.15,3.82,1.76,1.39,2.89,0.43,
1.491,-18.03,4.52,1.20,1.39,2.89,0.43,
1.492,-18.03,4.52,1.20,1.39,2.77,0.55,
1.492,-18.03,4.52,1.20,1.35,2.64,0.69,
1.492,-18.56,5.10,0.29,1.35,2.64,0.69,
1.493,-18.56,5.10,0.29,1.28,2.49,0.85,
1.493,-18.76,5.54,-0.90,1.28,2.49,0.85,
1.493,-18.76,5.54,-0.90,1.16,2.34,1.02,
1.493,-18.76,5.54,-0.90,1.00,2.20,1.21,
1.494,-18.76,5.54,-0.90,0.79,2.07,1.41,
1.494,-18.48,5.79,-2.10,0.79,2.07,1.41,
1.495,-18.48,5.79,-2.10,0.55,1.95,1.61,
1.505,-18.48,5.79,-2.10,0.26,1.85,1.82,
1.506,-17.93,5.84,-2.95,0.26,1.85,1.82,
1.506,-17.93,5.84,-2.95,-0.04,1.73,2.04,
1.507,-17.93,5.84,-2.95,-0.37,1.62,2.25,
1.507,-17.37,5.75,-3.34,-0.37,1.62,2.25,
1.507,-17.37,5.75,-3.34,-0.70,1.49,2.47,
1.508,-17.37,5.75,-3.34,-1.04,1.35,2.68,
1.508,-16.84,5.43,-3.10,-1.04,1.35,2.68,
1.51,-16.84,5.43,-3.10,-1.37,1.19,2.89,
1.515,-16.39,4.85,-2.22,-1.37,1.19,2.89,
1.516,-16.39,4.85,-2.22,-1.67,1.00,3.10,
1.516,-16.39,4.85,-2.22,-1.96,0.79,3.30,
1.517,-16.09,3.96,-0.95,-1.96,0.79,3.30,
1.518,-16.09,3.96,-0.95,-2.22,0.56,3.50,
1.519,-16.09,3.96,-0.95,-2.45,0.31,3.70,
1.522,-16.09,3.96,-0.95,-2.65,0.04,3.88,
1.523,-15.76,2.91,0.38,-2.65,0.04,3.88,
1.525,-15.76,2.91,0.38,-2.82,-0.23,4.06,
1.528,-15.29,1.74,1.57,-2.82,-0.23,4.06,
1.529,-15.29,1.74,1.57,-2.95,-0.50,4.23,
1.529,-15.29,1.74,1.57,-3.06,-0.78,4.39,
1.533,-14.73,0.60,2.56,-3.06,-0.78,4.39,
1.533,-14.73,0.60,2.56,-3.14,-1.05,4.55,
1.538,-14.73,0.60,2.56,-3.19,-1.30,4.69,
1.539,-14.73,0.60,2.56,-3.21,-1.54,4.83,
1.539,-14.25,-0.41,3.36,-3.21,-1.54,4.83,
1.54,-14.25,-0.41,3.36,-3.21,-1.76,4.96,
1.542,-14.25,-0.41,3.36,-3.18,-1.96,5.08,
1.542,-13.81,-1.33,3.96,-3.18,-1.96,5.08,
1.544,-13.81,-1.33,3.96,-3.12,-2.14,5.20,
1.548,-13.51,-2.24,4.42,-3.12,-2.14,5.20,
1.548,-13.51,-2.24,4.42,-3.04,-2.29,5.32,
1.549,-13.51,-2.24,4.42,-2.94,-2.42,5.44,
1.552,-13.29,-3.18,4.64,-2.94,-2.42,5.44,
1.552,-13.29,-3.18,4.64,-2.82,-2.53,5.54,
1.557,-13.29,-3.18,4.64,-2.69,-2.62,5.64,
1.557,-13.10,-4.19,4.60,-2.69,-2.62,5.64,
1.558,-13.10,-4.19,4.60,-2.54,-2.70,5.74,
1.559,-13.10,-4.19,4.60,-2.38,-2.75,5.83,
1.564,-13.10,-4.19,4.60,-2.22,-2.78,5.92,
1.565,-12.96,-5.23,4.36,-2.22,-2.78,5.92,
1.565,-12.96,-5.23,4.36,-2.05,-2.80,5.99,
1.569,-12.96,-5.23,4.36,-1.89,-2.80,6.07,
1.569,-12.81,-6.27,3.96,-1.89,-2.80,6.07,
1.57,-12.81,-6.27,3.96,-1.72,-2.78,6.13,
1.572,-12.81,-6.27,3.96,-1.57,-2.75,6.19,
1.572,-12.62,-7.31,3.43,-1.57,-2.75,6.19,
1.587,-12.62,-7.31,3.43,-1.42,-2.70,6.25,
1.588,-12.62,-7.31,3.43,-1.28,-2.63,6.30,
1.588,-12.38,-8.25,2.93,-1.28,-2.63,6.30,
1.589,-12.38,-8.25,2.93,-1.15,-2.53,6.35,
1.589,-12.38,-8.25,2.93,-1.02,-2.43,6.39,
1.59,-12.22,-9.21,2.42,-1.02,-2.43,6.39,
1.59,-12.22,-9.21,2.42,-0.91,-2.30,6.42,
1.596,-12.22,-9.21,2.42,-0.80,-2.16,6.45,
1.597,-12.08,-10.17,1.98,-0.80,-2.16,6.45,
1.598,-12.08,-10.17,1.98,-0.71,-2.01,6.48,
1.598,-11.93,-11.14,1.64,-0.71,-2.01,6.48,
1.598,-11.93,-11.14,1.64,-0.63,-1.85,6.50,
1.599,-11.93,-11.14,1.64,-0.57,-1.68,6.52,
1.599,-11.93,-11.14,1.64,-0.52,-1.51,6.54,
1.599,-11.59,-11.99,1.42,-0.52,-1.51,6.54,
1.599,-11.59,-11.99,1.42,-0.48,-1.33,6.55,
1.601,-11.59,-11.99,1.42,-0.45,-1.16,6.54,
1.606,-11.10,-12.63,1.34,-0.45,-1.16,6.54,
1.607,-11.10,-12.63,1.34,-0.43,-0.99,6.54,
1.607,-11.10,-12.63,1.34,-0.43,-0.83,6.52,
1.607,-10.53,-13.17,1.50,-0.43,-0.83,6.52,
1.609,-10.53,-13.17,1.50,-0.42,-0.68,6.50,
1.611,-9.88,-13.57,1.89,-0.42,-0.68,6.50,
1.612,-9.88,-13.57,1.89,-0.42,-0.54,6.47,
1.614,-9.88,-13.57,1.89,-0.42,-0.41,6.44,
1.619,-9.88,-13.57,1.89,-0.42,-0.31,6.40,
1.619,-9.24,-13.88,2.43,-0.42,-0.31,6.40,
1.619,-9.24,-13.88,2.43,-0.41,-0.22,6.35,
1.621,-9.24,-13.88,2.43,-0.40,-0.15,6.31,
1.621,-8.67,-14.08,3.04,-0.40,-0.15,6.31,
1.623,-8.67,-14.08,3.04,-0.38,-0.10,6.26,
1.626,-8.67,-14.08,3.04,-0.36,-0.06,6.21,
1.626,-8.20,-14.14,3.64,-0.36,-0.06,6.21,
1.629,-8.20,-14.14,3.64,-0.34,-0.04,6.16,
1.631,-7.85,-14.17,4.14,-0.34,-0.04,6.16,
1.632,-7.85,-14.17,4.14,-0.30,-0.02,6.12,
1.633,-7.85,-14.17,4.14,-0.26,-0.02,6.08,
1.636,-7.85,-14.17,4.14,-0.22,-0.02,6.05,
1.636,-7.54,-14.20,4.57,-0.22,-0.02,6.05,
1.638,-7.54,-14.20,4.57,-0.17,-0.03,6.02,
1.641,-7.25,-14.22,4.97,-0.17,-0.03,6.02,
1.656,-7.25,-14.22,4.97,-0.12,-0.05,5.99,
1.656,-7.25,-14.22,4.97,-0.05,-0.08,5.98,
1.656,-7.25,-14.22,4.97,0.01,-0.12,5.96,
1.656,-6.99,-14.25,5.26,0.01,-0.12,5.96,
1.656,-6.99,-14.25,5.26,0.08,-0.16,5.95,
1.656,-6.73,-14.32,5.46,0.08,-0.16,5.95,
1.656,-6.73,-14.32,5.46,0.16,-0.21,5.95,
1.657,-6.73,-14.32,5.46,0.24,-0.26,5.95,
1.657,-6.44,-14.41,5.56,0.24,-0.26,5.95,
1.657,-6.44,-14.41,5.56,0.32,-0.32,5.95,
1.66,-6.44,-14.41,5.56,0.41,-0.37,5.95,
1.67,-6.10,-14.54,5.61,0.41,-0.37,5.95,
1.671,-6.10,-14.54,5.61,0.50,-0.43,5.95,
1.671,-6.10,-14.54,5.61,0.60,-0.49,5.95,
1.671,-5.66,-14.67,5.57,0.60,-0.49,5.95,
1.672,-5.66,-14.67,5.57,0.69,-0.56,5.94,
1.672,-5.66,-14.67,5.57,0.79,-0.62,5.94,
1.672,-5.24,-14.78,5.47,0.79,-0.62,5.94,
1.672,-5.24,-14.78,5.47,0.89,-0.69,5.93,
1.673,-5.24,-14.78,5.47,0.99,-0.75,5.92,
1.676,-4.79,-14.87,5.23,0.99,-0.75,5.92,
1.676,-4.79,-14.87,5.23,1.09,-0.81,5.91,
1.678,-4.79,-14.87,5.23,1.19,-0.87,5.90,
1.681,-4.28,-14.92,4.87,1.19,-0.87,5.90,
1.681,-4.28,-14.92,4.87,1.29,-0.92,5.89,
1.684,-4.28,-14.92,4.87,1.38,-0.97,5.88,
1.686,-4.28,-14.92,4.87,1.47,-1.02,5.86,
1.687,-3.73,-14.92,4.43,1.47,-1.02,5.86,
1.688,-3.73,-14.92,4.43,1.55,-1.06,5.84,
1.691,-3.73,-14.92,4.43,1.63,-1.09,5.81,
1.691,-3.20,-14.92,3.96,1.63,-1.09,5.81,
1.693,-3.20,-14.92,3.96,1.70,-1.12,5.79,
1.696,-3.20,-14.92,3.96,1.76,-1.13,5.77,
1.697,-2.72,-14.91,3.49,1.76,-1.13,5.77,
1.7,-2.72,-14.91,3.49,1.82,-1.15,5.74,
1.701,-2.25,-14.86,3.04,1.82,-1.15,5.74,
1.701,-2.25,-14.86,3.04,1.88,-1.16,5.72,
1.703,-2.25,-14.86,3.04,1.92,-1.16,5.69,
1.708,-2.25,-14.86,3.04,1.97,-1.17,5.67,
1.708,-2.25,-14.86,3.04,2.00,-1.17,5.64,
1.708,-1.85,-14.81,2.64,2.00,-1.17,5.64,
1.713,-1.85,-14.81,2.64,2.03,-1.17,5.61,
1.713,-1.85,-14.81,2.64,2.06,-1.17,5.58,
1.716,-1.85,-14.81,2.64,2.08,-1.17,5.55,
1.716,-1.48,-14.79,2.26,2.08,-1.17,5.55,
1.716,-1.14,-14.89,1.96,2.08,-1.17,5.55,
1.719,-1.14,-14.89,1.96,2.10,-1.16,5.51,
1.72,-1.14,-14.89,1.96,2.12,-1.16,5.47,
1.72,-0.69,-14.99,1.70,2.12,-1.16,5.47,
1.723,-0.69,-14.99,1.70,2.13,-1.17,5.43,
1.726,-0.69,-14.99,1.70,2.14,-1.17,5.38,
1.726,-0.27,-15.08,1.50,2.14,-1.17,5.38,
1.728,-0.27,-15.08,1.50,2.14,-1.17,5.33,
1.73,0.10,-15.15,1.30,2.14,-1.17,5.33,
1.731,0.10,-15.15,1.30,2.15,-1.18,5.28,
1.733,0.10,-15.15,1.30,2.16,-1.17,5.22,
1.735,0.38,-15.22,1.16,2.16,-1.17,5.22,
1.735,0.38,-15.22,1.16,2.16,-1.18,5.16,
1.738,0.38,-15.22,1.16,2.16,-1.17,5.10,
1.74,0.64,-15.26,1.05,2.16,-1.17,5.10,
1.74,0.64,-15.26,1.05,2.17,-1.17,5.04,
1.742,0.64,-15.26,1.05,2.17,-1.17,4.98,
1.746,0.64,-15.26,1.05,2.18,-1.17,4.92,
1.747,0.86,-15.25,0.91,2.18,-1.17,4.92,
1.747,0.86,-15.25,0.91,2.18,-1.17,4.85,
1.75,0.86,-15.25,0.91,2.19,-1.17,4.79,
1.75,1.08,-15.19,0.80,2.19,-1.17,4.79,
1.753,1.08,-15.19,0.80,2.19,-1.17,4.73,
1.755,1.33,-15.11,0.68,2.19,-1.17,4.73,
1.756,1.33,-15.11,0.68,2.19,-1.16,4.67,
1.758,1.33,-15.11,0.68,2.19,-1.15,4.60,
1.76,1.33,-15.11,0.68,2.20,-1.15,4.54,
1.76,1.56,-15.02,0.57,2.20,-1.15,4.54,
1.762,1.56,-15.02,0.57,2.20,-1.14,4.48,
1.766,1.56,-15.02,0.57,2.20,-1.12,4.42,
1.766,1.79,-14.91,0.49,2.20,-1.12,4.42,
1.767,1.79,-14.91,0.49,2.21,-1.11,4.37,
1.77,1.99,-14.80,0.42,2.21,-1.11,4.37,
1.77,1.99,-14.80,0.42,2.21,-1.09,4.31,
1.772,1.99,-14.80,0.42,2.21,-1.07,4.26,
1.775,2.21,-14.71,0.32,2.21,-1.07,4.26,
1.776,2.21,-14.71,0.32,2.21,-1.05,4.20,
1.777,2.21,-14.71,0.32,2.22,-1.03,4.15,
1.783,2.21,-14.71,0.32,2.22,-1.01,4.10,
1.79,2.42,-14.63,0.24,2.22,-1.01,4.10,
1.79,2.42,-14.63,0.24,2.21,-0.98,4.05,
1.791,2.42,-14.63,0.24,2.21,-0.96,4.00,
1.791,2.57,-14.58,0.17,2.21,-0.96,4.00,
1.792,2.57,-14.58,0.17,2.21,-0.93,3.95,
1.792,2.57,-14.58,0.17,2.21,-0.91,3.90,
1.792,2.76,-14.53,0.13,2.21,-0.91,3.90,
1.795,2.76,-14.53,0.13,2.21,-0.88,3.85,
1.795,2.93,-14.50,0.09,2.21,-0.88,3.85,
1.796,2.93,-14.50,0.09,2.20,-0.85,3.80,
1.802,2.93,-14.50,0.09,2.20,-0.82,3.75,
1.802,2.93,-14.50,0.09,2.20,-0.78,3.70,
1.803,3.10,-14.50,0.06,2.20,-0.78,3.70,
1.803,3.10,-14.50,0.06,2.19,-0.75,3.65,
1.806,3.21,-14.51,0.04,2.19,-0.75,3.65,
1.806,3.21,-14.51,0.04,2.19,-0.72,3.60,
1.833,3.21,-14.51,0.04,2.18,-0.69,3.54,
1.833,3.33,-14.56,0.01,2.18,-0.69,3.54,
1.833,3.33,-14.56,0.01,2.18,-0.65,3.48,
1.834,3.33,-14.56,0.01,2.17,-0.63,3.43,
1.834,3.44,-14.62,0.00,2.17,-0.63,3.43,
1.835,3.44,-14.62,0.00,2.16,-0.60,3.37,
1.835,3.44,-14.62,0.00,2.15,-0.57,3.30,
1.835,3.58,-14.71,0.03,2.15,-0.57,3.30,
1.835,3.58,-14.71,0.03,2.14,-0.54,3.24,
1.836,3.58,-14.71,0.03,2.13,-0.52,3.17,
1.836,3.58,-14.71,0.03,2.12,-0.50,3.10,
1.836,3.74,-14.73,0.05,2.12,-0.50,3.10,
1.836,3.74,-14.73,0.05,2.11,-0.48,3.03,
1.836,3.74,-14.73,0.05,2.10,-0.47,2.95,
1.837,3.92,-14.73,0.10,2.10,-0.47,2.95,
1.837,3.92,-14.73,0.10,2.09,-0.45,2.88,
1.837,3.92,-14.73,0.10,2.08,-0.44,2.80,
1.837,4.11,-14.66,0.16,2.08,-0.44,2.80,
1.838,4.11,-14.66,0.16,2.07,-0.42,2.72,
1.84,4.26,-14.59,0.19,2.07,-0.42,2.72,
1.84,4.26,-14.59,0.19,2.06,-0.41,2.64,
1.843,4.26,-14.59,0.19,2.06,-0.39,2.56,
1.845,4.26,-14.59,0.19,2.06,-0.38,2.48,
1.847,4.41,-14.46,0.22,2.06,-0.38,2.48,
1.848,4.41,-14.46,0.22,2.05,-0.37,2.41,
1.851,4.41,-14.46,0.22,2.05,-0.36,2.33,
1.851,4.57,-14.33,0.25,2.05,-0.36,2.33,
1.852,4.57,-14.33,0.25,2.04,-0.35,2.25,
1.854,4.57,-14.33,0.25,2.04,-0.35,2.17,
1.855,4.70,-14.17,0.26,2.04,-0.35,2.17,
1.857,4.70,-14.17,0.26,2.03,-0.34,2.10,
1.859,4.79,-14.04,0.24,2.03,-0.34,2.10,
1.861,4.79,-14.04,0.24,2.02,-0.34,2.03,
1.862,4.79,-14.04,0.24,2.02,-0.33,1.95,
1.865,4.88,-13.90,0.20,2.02,-0.33,1.95,
1.867,4.88,-13.90,0.20,2.01,-0.32,1.88,
1.868,4.88,-13.90,0.20,2.01,-0.31,1.82,
1.869,4.88,-13.90,0.20,2.00,-0.31,1.75,
1.869,4.96,-13.80,0.15,2.00,-0.31,1.75,
1.875,4.96,-13.80,0.15,1.99,-0.30,1.68,
1.875,4.96,-13.80,0.15,1.97,-0.29,1.61,
1.875,5.04,-13.70,0.09,1.97,-0.29,1.61,
1.877,5.04,-13.70,0.09,1.96,-0.27,1.54,
1.885,5.11,-13.65,0.01,1.96,-0.27,1.54,
1.886,5.11,-13.65,0.01,1.95,-0.26,1.48,
1.89,5.11,-13.65,0.01,1.93,-0.25,1.41,
1.89,5.11,-13.65,0.01,1.91,-0.24,1.34,
1.89,5.15,-13.67,-0.03,1.91,-0.24,1.34,
1.89,5.18,-13.69,-0.08,1.91,-0.24,1.34,
1.891,5.18,-13.69,-0.08,1.89,-0.22,1.27,
1.891,5.18,-13.69,-0.08,1.87,-0.21,1.19,
1.892,5.18,-13.69,-0.08,1.85,-0.19,1.12,
1.894,5.18,-13.69,-0.08,1.82,-0.18,1.04,
1.894,5.17,-13.77,-0.11,1.82,-0.18,1.04,
1.897,5.17,-13.77,-0.11,1.80,-0.17,0.97,
1.899,5.12,-13.85,-0.14,1.80,-0.17,0.97,
1.899,5.12,-13.85,-0.14,1.78,-0.15,0.89,
1.903,5.12,-13.85,-0.14,1.75,-0.14,0.80,
1.904,5.12,-13.85,-0.14,1.72,-0.13,0.72,
1.904,5.05,-13.93,-0.12,1.72,-0.13,0.72,
1.907,5.05,-13.93,-0.12,1.70,-0.12,0.63,
1.909,5.07,-13.98,-0.08,1.70,-0.12,0.63,
1.909,5.07,-13.98,-0.08,1.67,-0.11,0.54,
1.911,5.07,-13.98,-0.08,1.64,-0.10,0.45,
1.915,5.07,-13.98,-0.08,1.62,-0.09,0.36,
1.915,5.13,-14.02,-0.04,1.62,-0.09,0.36,
1.916,5.13,-14.02,-0.04,1.59,-0.08,0.26,
1.921,5.13,-14.03,0.04,1.59,-0.08,0.26,
1.921,5.13,-14.03,0.04,1.57,-0.08,0.17,
1.921,5.13,-14.03,0.04,1.55,-0.07,0.07,
1.924,5.13,-14.03,0.04,1.53,-0.06,-0.03,
1.924,5.14,-14.06,0.11,1.53,-0.06,-0.03,
1.926,5.14,-14.06,0.11,1.51,-0.06,-0.13,
1.928,5.14,-14.06,0.11,1.50,-0.05,-0.23,
1.929,5.19,-14.06,0.21,1.50,-0.05,-0.23,
1.932,5.19,-14.06,0.21,1.48,-0.05,-0.34,
1.934,5.27,-14.02,0.31,1.48,-0.05,-0.34,
1.934,5.27,-14.02,0.31,1.47,-0.05,-0.44,
1.936,5.27,-14.02,0.31,1.46,-0.05,-0.55,
1.939,5.27,-14.02,0.31,1.46,-0.05,-0.66,
1.939,5.30,-14.00,0.39,1.46,-0.05,-0.66,
1.946,5.30,-14.00,0.39,1.45,-0.04,-0.76,
1.947,5.27,-13.99,0.42,1.45,-0.04,-0.76,
1.947,5.27,-13.99,0.42,1.45,-0.03,-0.87,
1.947,5.27,-13.99,0.42,1.45,-0.02,-0.98,
1.955,5.27,-13.99,0.42,1.45,-0.01,-1.09,
1.956,5.27,-13.99,0.42,1.46,-0.00,-1.19,
1.956,5.22,-14.02,0.48,1.46,-0.00,-1.19,
1.956,5.22,-14.02,0.48,1.46,0.01,-1.30,
1.957,5.09,-14.07,0.50,1.46,0.01,-1.30,
1.957,5.09,-14.07,0.50,1.47,0.02,-1.41,
1.958,4.97,-14.15,0.54,1.47,0.02,-1.41,
1.959,4.97,-14.15,0.54,1.47,0.03,-1.52,
1.961,4.97,-14.15,0.54,1.48,0.04,-1.63,
1.964,4.97,-14.15,0.54,1.48,0.05,-1.74,
1.964,4.85,-14.24,0.49,1.48,0.05,-1.74,
1.968,4.85,-14.24,0.49,1.48,0.05,-1.85,
1.968,4.69,-14.33,0.42,1.48,0.05,-1.85,
1.968,4.69,-14.33,0.42,1.48,0.06,-1.96,
1.971,4.69,-14.33,0.42,1.47,0.07,-2.06,
1.982,4.69,-14.33,0.42,1.46,0.08,-2.17,
1.982,4.69,-14.33,0.42,1.45,0.09,-2.28,
1.982,4.69,-14.33,0.42,1.44,0.10,-2.38,
1.982,4.50,-14.44,0.36,1.44,0.10,-2.38,
1.982,4.32,-14.59,0.34,1.44,0.10,-2.38,
1.991,4.32,-14.59,0.34,1.43,0.11,-2.49,
1.991,4.32,-14.59,0.34,1.42,0.11,-2.60,
1.991,4.32,-14.59,0.34,1.40,0.10,-2.71,
1.992,4.18,-14.78,0.36,1.40,0.10,-2.71,
1.992,4.09,-14.93,0.32,1.40,0.10,-2.71,
1.993,4.09,-14.93,0.32,1.38,0.09,-2.83,
1.993,4.09,-14.93,0.32,1.36,0.08,-2.94,
1.994,3.91,-15.02,0.30,1.36,0.08,-2.94,
1.994,3.91,-15.02,0.30,1.34,0.06,-3.06,
1.995,3.91,-15.02,0.30,1.32,0.05,-3.18,
1.998,3.91,-15.02,0.30,1.30,0.04,-3.30,
1.998,3.70,-15.06,0.26,1.30,0.04,-3.30,
2.001,3.70,-15.06,0.26,1.28,0.04,-3.42,
2.003,3.70,-15.06,0.26,1.25,0.04,-3.54,
2.004,3.43,-15.07,0.23,1.25,0.04,-3.54,
2.006,3.43,-15.07,0.23,1.23,0.04,-3.67,
2.008,3.43,-15.07,0.23,1.21,0.03,-3.79,
2.009,3.09,-15.10,0.18,1.21,0.03,-3.79,
2.01,3.09,-15.10,0.18,1.19,0.03,-3.91,
2.013,3.09,-15.10,0.18,1.17,0.02,-4.04,
2.013,2.75,-15.11,0.12,1.17,0.02,-4.04,
2.015,2.75,-15.11,0.12,1.15,0.02,-4.16,
2.018,2.75,-15.11,0.12,1.12,0.01,-4.28,
2.018,2.42,-15.08,0.05,1.12,0.01,-4.28,
2.02,2.42,-15.08,0.05,1.10,0.01,-4.41,
2.023,2.42,-15.08,0.05,1.08,-0.00,-4.53,
2.023,2.15,-15.05,-0.07,1.08,-0.00,-4.53,
2.026,2.15,-15.05,-0.07,1.06,-0.01,-4.66,
2.028,1.75,-14.96,-0.16,1.06,-0.01,-4.66,
2.028,1.75,-14.96,-0.16,1.03,-0.02,-4.78,
2.03,1.75,-14.96,-0.16,1.01,-0.02,-4.91,
2.034,1.32,-14.73,-0.20,1.01,-0.02,-4.91,
2.035,1.32,-14.73,-0.20,0.98,-0.03,-5.03,
2.035,1.32,-14.73,-0.20,0.96,-0.03,-5.14,
2.038,1.32,-14.73,-0.20,0.93,-0.02,-5.26,
2.038,0.83,-14.42,-0.24,0.93,-0.02,-5.26,
2.04,0.83,-14.42,-0.24,0.91,-0.01,-5.37,
2.043,0.83,-14.42,-0.24,0.89,0.00,-5.47,
2.043,0.28,-14.11,-0.25,0.89,0.00,-5.47,
2.045,0.28,-14.11,-0.25,0.87,0.02,-5.57,
2.05,0.28,-14.11,-0.25,0.86,0.03,-5.66,
2.05,-0.37,-13.89,-0.22,0.86,0.03,-5.66,
2.051,-0.37,-13.89,-0.22,0.85,0.05,-5.75,
2.052,-0.37,-13.89,-0.22,0.85,0.07,-5.83,
2.053,-1.13,-13.71,-0.12,0.85,0.07,-5.83,
2.055,-1.13,-13.71,-0.12,0.85,0.08,-5.90,
2.057,-1.98,-13.47,-0.01,0.85,0.08,-5.90,
2.058,-1.98,-13.47,-0.01,0.86,0.08,-5.97,
2.06,-1.98,-13.47,-0.01,0.88,0.08,-6.03,
2.063,-1.98,-13.47,-0.01,0.90,0.08,-6.08,
2.063,-2.83,-13.18,-0.01,0.90,0.08,-6.08,
2.065,-2.83,-13.18,-0.01,0.92,0.07,-6.13,
2.068,-3.67,-12.85,-0.08,0.92,0.07,-6.13,
2.068,-3.67,-12.85,-0.08,0.94,0.05,-6.17,
2.07,-3.67,-12.85,-0.08,0.97,0.04,-6.20,
2.074,-3.67,-12.85,-0.08,0.99,0.01,-6.23,
2.074,-4.40,-12.56,-0.27,0.99,0.01,-6.23,
2.075,-4.40,-12.56,-0.27,1.00,-0.02,-6.24,
2.077,-4.40,-12.56,-0.27,1.01,-0.05,-6.26,
2.077,-5.03,-12.30,-0.60,1.01,-0.05,-6.26,
2.079,-5.03,-12.30,-0.60,1.00,-0.08,-6.27,
2.088,-5.50,-12.09,-1.02,1.00,-0.08,-6.27,
2.088,-5.50,-12.09,-1.02,0.99,-0.12,-6.27,
2.089,-5.50,-12.09,-1.02,0.95,-0.17,-6.27,
2.089,-5.50,-12.09,-1.02,0.90,-0.21,-6.27,
2.089,-5.76,-11.87,-1.52,0.90,-0.21,-6.27,
2.09,-5.76,-11.87,-1.52,0.84,-0.26,-6.27,
2.092,-5.76,-11.87,-1.52,0.75,-0.32,-6.27,
2.092,-5.94,-11.70,-2.09,0.75,-0.32,-6.27,
2.095,-5.94,-11.70,-2.09,0.64,-0.37,-6.27,
2.098,-5.94,-11.70,-2.09,0.52,-0.43,-6.26,
2.098,-6.11,-11.59,-2.62,0.52,-0.43,-6.26,
2.101,-6.11,-11.59,-2.62,0.37,-0.48,-6.26,
2.102,-6.11,-11.59,-2.62,0.21,-0.54,-6.26,
2.102,-6.26,-11.58,-3.00,0.21,-0.54,-6.26,
2.104,-6.26,-11.58,-3.00,0.04,-0.60,-6.26,
2.107,-6.42,-11.72,-3.21,0.04,-0.60,-6.26,
2.107,-6.42,-11.72,-3.21,-0.15,-0.66,-6.27,
2.109,-6.42,-11.72,-3.21,-0.34,-0.73,-6.29,
2.112,-6.42,-11.72,-3.21,-0.55,-0.80,-6.30,
2.112,-6.57,-11.96,-3.25,-0.55,-0.80,-6.30,
2.115,-6.57,-11.96,-3.25,-0.76,-0.87,-6.33,
2.118,-6.66,-12.19,-3.16,-0.76,-0.87,-6.33,
2.118,-6.66,-12.19,-3.16,-0.98,-0.93,-6.36,
2.119,-6.66,-12.19,-3.16,-1.21,-1.00,-6.40,
2.122,-6.66,-12.19,-3.16,-1.43,-1.08,-6.44,
2.123,-6.67,-12.39,-2.92,-1.43,-1.08,-6.44,
2.124,-6.67,-12.39,-2.92,-1.66,-1.15,-6.48,
2.127,-6.67,-12.39,-2.92,-1.88,-1.22,-6.54,
2.127,-6.70,-12.55,-2.48,-1.88,-1.22,-6.54,
2.129,-6.70,-12.55,-2.48,-2.09,-1.30,-6.59,
2.133,-6.70,-12.55,-2.48,-2.30,-1.37,-6.65,
2.133,-6.86,-12.71,-1.91,-2.30,-1.37,-6.65,
2.135,-6.86,-12.71,-1.91,-2.50,-1.44,-6.71,
2.137,-6.86,-12.71,-1.91,-2.68,-1.50,-6.77,
2.15,-7.12,-12.86,-1.25,-2.68,-1.50,-6.77,
2.15,-7.12,-12.86,-1.25,-2.86,-1.56,-6.83,
2.15,-7.12,-12.86,-1.25,-3.02,-1.62,-6.89,
2.15,-7.42,-12.99,-0.60,-3.02,-1.62,-6.89,
2.151,-7.42,-12.99,-0.60,-3.18,-1.68,-6.95,
2.151,-7.76,-13.12,0.04,-3.18,-1.68,-6.95,
2.152,-7.76,-13.12,0.04,-3.32,-1.72,-7.01,
2.153,-7.76,-13.12,0.04,-3.45,-1.76,-7.07,
2.154,-8.15,-13.24,0.68,-3.45,-1.76,-7.07,
2.154,-8.15,-13.24,0.68,-3.56,-1.79,-7.13,
2.155,-8.15,-13.24,0.68,-3.66,-1.82,-7.18,
2.157,-8.54,-13.26,1.30,-3.66,-1.82,-7.18,
2.157,-8.54,-13.26,1.30,-3.75,-1.83,-7.24,
2.159,-8.54,-13.26,1.30,-3.83,-1.83,-7.29,
2.162,-8.54,-13.26,1.30,-3.89,-1.83,-7.34,
2.162,-8.96,-13.17,1.91,-3.89,-1.83,-7.34,
2.164,-8.96,-13.17,1.91,-3.93,-1.82,-7.39,
2.167,-8.96,-13.17,1.91,-3.97,-1.79,-7.43,
2.167,-9.71,-13.06,2.47,-3.97,-1.79,-7.43,
2.169,-9.71,-13.06,2.47,-3.99,-1.77,-7.47,
2.172,-10.58,-12.79,2.97,-3.99,-1.77,-7.47,
2.173,-10.58,-12.79,2.97,-4.00,-1.73,-7.51,
2.174,-10.58,-12.79,2.97,-3.99,-1.69,-7.53,
2.178,-10.58,-12.79,2.97,-3.97,-1.65,-7.55,
2.178,-11.33,-12.37,3.36,-3.97,-1.65,-7.55,
2.179,-11.33,-12.37,3.36,-3.94,-1.61,-7.56,
2.183,-11.33,-12.37,3.36,-3.90,-1.57,-7.57,
2.183,-11.86,-11.81,3.80,-3.90,-1.57,-7.57,
2.186,-11.86,-11.81,3.80,-3.85,-1.53,-7.58,
2.187,-11.99,-11.05,4.10,-3.85,-1.53,-7.58,
2.187,-11.99,-11.05,4.10,-3.80,-1.51,-7.59,
2.189,-11.99,-11.05,4.10,-3.74,-1.48,-7.59,
2.191,-11.99,-11.05,4.10,-3.68,-1.44,-7.59,
2.192,-12.29,-10.64,4.38,-3.68,-1.44,-7.59,
2.194,-12.29,-10.64,4.38,-3.62,-1.39,-7.58,
2.196,-12.29,-10.64,4.38,-3.54,-1.35,-7.56,
2.196,-12.81,-10.33,4.78,-3.54,-1.35,-7.56,
2.199,-12.81,-10.33,4.78,-3.47,-1.32,-7.53,
2.201,-12.81,-10.33,4.78,-3.39,-1.29,-7.51,
2.202,-13.03,-9.86,5.01,-3.39,-1.29,-7.51,
2.204,-13.03,-9.86,5.01,-3.30,-1.27,-7.49,
2.206,-13.10,-9.21,5.14,-3.30,-1.27,-7.49,
2.206,-13.10,-9.21,5.14,-3.22,-1.26,-7.48,
2.208,-13.10,-9.21,5.14,-3.14,-1.25,-7.48,
2.211,-13.10,-9.21,5.14,-3.06,-1.24,-7.48,
2.211,-13.24,-8.60,5.27,-3.06,-1.24,-7.48,
2.213,-13.24,-8.60,5.27,-2.97,-1.24,-7.49,
2.218,-13.54,-8.06,5.48,-2.97,-1.24,-7.49,
2.219,-13.54,-8.06,5.48,-2.87,-1.23,-7.50,
2.219,-13.54,-8.06,5.48,-2.77,-1.22,-7.50,
2.221,-13.98,-7.49,5.66,-2.77,-1.22,-7.50,
2.222,-13.98,-7.49,5.66,-2.66,-1.20,-7.51,
2.223,-13.98,-7.49,5.66,-2.55,-1.18,-7.51,
2.226,-14.54,-6.81,5.76,-2.55,-1.18,-7.51,
2.226,-14.54,-6.81,5.76,-2.43,-1.16,-7.52,
2.229,-14.54,-6.81,5.76,-2.31,-1.13,-7.51,
2.234,-15.17,-6.01,5.83,-2.31,-1.13,-7.51,
2.235,-15.17,-6.01,5.83,-2.18,-1.11,-7.51,
2.235,-15.17,-6.01,5.83,-2.04,-1.07,-7.50,
2.236,-15.17,-6.01,5.83,-1.90,-1.04,-7.49,
2.237,-15.83,-5.04,5.90,-1.90,-1.04,-7.49,
2.241,-16.46,-3.95,5.90,-1.90,-1.04,-7.49,
2.242,-16.46,-3.95,5.90,-1.75,-1.01,-7.48,
2.242,-16.46,-3.95,5.90,-1.60,-0.98,-7.46,
2.246,-16.46,-3.95,5.90,-1.45,-0.94,-7.43,
2.246,-17.13,-2.74,5.81,-1.45,-0.94,-7.43,
2.247,-17.13,-2.74,5.81,-1.29,-0.90,-7.40,
2.25,-17.13,-2.74,5.81,-1.14,-0.86,-7.36,
2.251,-17.13,-2.74,5.81,-0.99,-0.82,-7.30,
2.252,-17.78,-1.41,5.54,-0.99,-0.82,-7.30,
2.253,-17.78,-1.41,5.54,-0.86,-0.79,-7.23,
2.256,-18.45,0.10,5.14,-0.86,-0.79,-7.23,
2.256,-18.45,0.10,5.14,-0.73,-0.74,-7.16,
2.258,-18.45,0.10,5.14,-0.61,-0.69,-7.06,
2.261,-18.45,0.10,5.14,-0.50,-0.63,-6.96,
2.262,-19.02,1.77,4.77,-0.50,-0.63,-6.96,
2.263,-19.02,1.77,4.77,-0.41,-0.56,-6.84,
2.267,-19.02,1.77,4.77,-0.32,-0.48,-6.71,
2.267,-19.40,3.54,4.43,-0.32,-0.48,-6.71,
2.268,-19.40,3.54,4.43,-0.25,-0.40,-6.56,
2.272,-19.64,5.30,4.25,-0.25,-0.40,-6.56,
2.273,-19.64,5.30,4.25,-0.19,-0.32,-6.39,
2.273,-19.64,5.30,4.25,-0.14,-0.24,-6.22,
2.276,-19.82,6.89,4.18,-0.14,-0.24,-6.22,
2.276,-19.82,6.89,4.18,-0.10,-0.15,-6.02,
2.281,-19.82,6.89,4.18,-0.06,-0.08,-5.81,
2.282,-19.82,6.89,4.18,-0.03,-0.01,-5.59,
2.282,-19.98,8.28,4.29,-0.03,-0.01,-5.59,
2.286,-19.98,8.28,4.29,-0.01,0.05,-5.36,
2.287,-20.04,9.44,4.60,-0.01,0.05,-5.36,
2.287,-20.04,9.44,4.60,0.01,0.10,-5.11,
2.29,-20.04,9.44,4.60,0.02,0.13,-4.85,
2.29,-20.04,9.44,4.60,0.04,0.15,-4.59,
2.291,-19.99,10.32,5.10,0.04,0.15,-4.59,
2.293,-19.99,10.32,5.10,0.06,0.14,-4.32,
2.295,-19.99,10.32,5.10,0.09,0.12,-4.05,
2.296,-19.80,10.89,5.69,0.09,0.12,-4.05,
2.298,-19.80,10.89,5.69,0.13,0.09,-3.77,
2.303,-19.44,11.24,6.24,0.13,0.09,-3.77,
2.304,-19.44,11.24,6.24,0.17,0.03,-3.50,
2.32,-19.44,11.24,6.24,0.22,-0.04,-3.22,
2.32,-18.97,11.35,6.68,0.22,-0.04,-3.22,
2.321,-18.97,11.35,6.68,0.28,-0.13,-2.96,
2.321,-18.97,11.35,6.68,0.34,-0.23,-2.69,
2.321,-18.97,11.35,6.68,0.40,-0.36,-2.44,
2.321,-18.30,11.19,6.82,0.40,-0.36,-2.44,
2.322,-18.30,11.19,6.82,0.47,-0.50,-2.20,
2.322,-17.47,10.82,6.59,0.47,-0.50,-2.20,
2.322,-17.47,10.82,6.59,0.52,-0.65,-1.97,
2.323,-17.47,10.82,6.59,0.57,-0.82,-1.75,
2.323,-17.47,10.82,6.59,0.61,-0.99,-1.55,
2.323,-16.58,10.30,5.99,0.61,-0.99,-1.55,
2.323,-16.58,10.30,5.99,0.64,-1.15,-1.36,
2.325,-16.58,10.30,5.99,0.66,-1.32,-1.18,
2.327,-15.68,9.76,5.23,0.66,-1.32,-1.18,
2.327,-15.68,9.76,5.23,0.66,-1.48,-1.02,
2.33,-15.68,9.76,5.23,0.66,-1.64,-0.87,
2.331,-14.81,9.20,4.38,0.66,-1.64,-0.87,
2.334,-14.81,9.20,4.38,0.64,-1.80,-0.73,
2.336,-14.81,9.20,4.38,0.62,-1.96,-0.61,
2.336,-14.02,8.65,3.54,0.62,-1.96,-0.61,
2.338,-14.02,8.65,3.54,0.58,-2.12,-0.49,
2.341,-14.02,8.65,3.54,0.53,-2.27,-0.39,
2.342,-13.25,8.19,2.64,0.53,-2.27,-0.39,
2.343,-13.25,8.19,2.64,0.47,-2.42,-0.29,
2.346,-13.25,8.19,2.64,0.40,-2.57,-0.21,
2.346,-12.50,7.83,1.76,0.40,-2.57,-0.21,
2.347,-12.50,7.83,1.76,0.32,-2.71,-0.13,
2.351,-11.80,7.56,0.90,0.32,-2.71,-0.13,
2.351,-11.80,7.56,0.90,0.24,-2.83,-0.06,
2.352,-11.80,7.56,0.90,0.14,-2.95,0.00,
2.355,-11.80,7.56,0.90,0.04,-3.04,0.06,
2.355,-11.17,7.34,0.16,0.04,-3.04,0.06,
2.357,-11.17,7.34,0.16,-0.06,-3.12,0.12,
2.361,-10.63,7.21,-0.40,-0.06,-3.12,0.12,
2.361,-10.63,7.21,-0.40,-0.17,-3.19,0.17,
2.363,-10.63,7.21,-0.40,-0.28,-3.25,0.21,
2.365,-10.63,7.21,-0.40,-0.39,-3.29,0.25,
2.365,-10.13,7.14,-0.75,-0.39,-3.29,0.25,
2.37,-10.13,7.14,-0.75,-0.50,-3.33,0.29,
2.37,-9.67,7.16,-1.02,-0.50,-3.33,0.29,
2.371,-9.67,7.16,-1.02,-0.60,-3.36,0.32,
2.372,-9.67,7.16,-1.02,-0.70,-3.39,0.36,
2.377,-9.67,7.16,-1.02,-0.80,-3.40,0.38,
2.377,-9.22,7.25,-1.24,-0.80,-3.40,0.38,
2.377,-9.22,7.25,-1.24,-0.90,-3.40,0.41,
2.381,-9.22,7.25,-1.24,-0.99,-3.39,0.44,
2.382,-8.86,7.34,-1.42,-0.99,-3.39,0.44,
2.385,-8.86,7.34,-1.42,-1.08,-3.36,0.46,
2.388,-8.86,7.34,-1.42,-1.16,-3.32,0.49,
2.389,-8.55,7.40,-1.52,-1.16,-3.32,0.49,
2.396,-8.21,7.47,-1.57,-1.16,-3.32,0.49,
2.396,-8.21,7.47,-1.57,-1.25,-3.27,0.51,
2.397,-8.21,7.47,-1.57,-1.33,-3.21,0.54,
2.397,-8.21,7.47,-1.57,-1.40,-3.13,0.56,
2.397,-7.86,7.52,-1.49,-1.40,-3.13,0.56,
2.397,-7.86,7.52,-1.49,-1.48,-3.05,0.59,
2.403,-7.86,7.52,-1.49,-1.55,-2.96,0.61,
2.403,-7.53,7.51,-1.34,-1.55,-2.96,0.61,
2.403,-7.53,7.51,-1.34,-1.61,-2.86,0.63,
2.404,-7.53,7.51,-1.34,-1.67,-2.76,0.65,
2.405,-7.24,7.47,-1.08,-1.67,-2.76,0.65,
2.405,-7.24,7.47,-1.08,-1.72,-2.65,0.67,
2.407,-7.24,7.47,-1.08,-1.77,-2.54,0.69,
2.41,-7.05,7.41,-0.76,-1.77,-2.54,0.69,
2.41,-7.05,7.41,-0.76,-1.81,-2.42,0.72,
2.412,-7.05,7.41,-0.76,-1.85,-2.30,0.74,
2.415,-6.89,7.25,-0.37,-1.85,-2.30,0.74,
2.415,-6.89,7.25,-0.37,-1.88,-2.18,0.76,
2.419,-6.89,7.25,-0.37,-1.90,-2.05,0.78,
2.42,-6.72,7.06,0.16,-1.90,-2.05,0.78,
2.421,-6.72,7.06,0.16,-1.92,-1.93,0.80,
2.422,-6.72,7.06,0.16,-1.94,-1.80,0.82,
2.424,-6.52,6.79,0.73,-1.94,-1.80,0.82,
2.425,-6.52,6.79,0.73,-1.94,-1.69,0.84,
2.427,-6.52,6.79,0.73,-1.94,-1.57,0.85,
2.429,-6.38,6.48,1.28,-1.94,-1.57,0.85,
2.43,-6.38,6.48,1.28,-1.94,-1.46,0.87,
2.432,-6.38,6.48,1.28,-1.94,-1.35,0.88,
2.434,-6.38,6.48,1.28,-1.92,-1.25,0.89,
2.435,-6.28,6.15,1.79,-1.92,-1.25,0.89,
2.437,-6.28,6.15,1.79,-1.91,-1.14,0.90,
2.439,-6.16,5.82,2.30,-1.91,-1.14,0.90,
2.44,-6.16,5.82,2.30,-1.89,-1.04,0.90,
2.442,-6.16,5.82,2.30,-1.86,-0.94,0.91,
2.444,-6.06,5.47,2.80,-1.86,-0.94,0.91,
2.444,-6.06,5.47,2.80,-1.83,-0.84,0.91,
2.447,-6.06,5.47,2.80,-1.80,-0.74,0.90,
2.449,-6.02,5.16,3.30,-1.80,-0.74,0.90,
2.449,-6.02,5.16,3.30,-1.76,-0.65,0.90,
2.452,-6.02,5.16,3.30,-1.72,-0.56,0.89,
2.454,-6.04,4.80,3.75,-1.72,-0.56,0.89,
2.454,-6.04,4.80,3.75,-1.67,-0.48,0.87,
2.456,-6.04,4.80,3.75,-1.62,-0.39,0.86,
2.46,-6.04,4.80,3.75,-1.57,-0.32,0.83,
2.46,-6.08,4.46,4.18,-1.57,-0.32,0.83,
2.461,-6.08,4.46,4.18,-1.51,-0.25,0.81,
2.464,-6.14,4.10,4.59,-1.51,-0.25,0.81,
2.464,-6.14,4.10,4.59,-1.46,-0.18,0.78,
2.468,-6.14,4.10,4.59,-1.39,-0.11,0.75,
2.483,-6.14,4.10,4.59,-1.33,-0.05,0.72,
2.483,-6.14,4.10,4.59,-1.26,0.02,0.68,
2.483,-6.14,4.10,4.59,-1.18,0.07,0.65,
2.483,-6.25,3.81,4.99,-1.18,0.07,0.65,
2.484,-6.50,3.62,5.35,-1.18,0.07,0.65,
2.484,-6.50,3.62,5.35,-1.11,0.13,0.62,
2.484,-6.50,3.62,5.35,-1.03,0.18,0.58,
2.484,-6.92,3.45,5.67,-1.03,0.18,0.58,
2.489,-6.92,3.45,5.67,-0.95,0.23,0.55,
2.49,-6.92,3.45,5.67,-0.87,0.27,0.52,
2.49,-6.92,3.45,5.67,-0.79,0.31,0.49,
2.49,-7.41,3.34,5.94,-0.79,0.31,0.49,
2.49,-7.41,3.34,5.94,-0.70,0.34,0.46,
2.491,-7.82,3.26,6.18,-0.70,0.34,0.46,
2.491,-7.82,3.26,6.18,-0.61,0.36,0.43,
2.495,-7.82,3.26,6.18,-0.52,0.38,0.40,
2.496,-8.18,3.22,6.43,-0.52,0.38,0.40,
2.496,-8.18,3.22,6.43,-0.42,0.40,0.38,
2.5,-8.18,3.22,6.43,-0.33,0.43,0.36,
2.5,-8.61,3.23,6.60,-0.33,0.43,0.36,
2.501,-8.61,3.23,6.60,-0.22,0.45,0.35,
2.504,-8.61,3.23,6.60,-0.12,0.48,0.34,
2.505,-9.08,3.26,6.74,-0.12,0.48,0.34,
2.506,-9.08,3.26,6.74,-0.01,0.50,0.34,
2.509,-9.08,3.26,6.74,0.10,0.53,0.34,
2.51,-9.55,3.25,6.91,0.10,0.53,0.34,
2.511,-9.55,3.25,6.91,0.21,0.56,0.34,
2.514,-9.98,3.27,7.08,0.21,0.56,0.34,
2.514,-9.98,3.27,7.08,0.34,0.59,0.34,
2.516,-9.98,3.27,7.08,0.47,0.63,0.34,
2.52,-10.37,3.36,7.17,0.47,0.63,0.34,
2.52,-10.37,3.36,7.17,0.60,0.67,0.35,
2.521,-10.37,3.36,7.17,0.73,0.71,0.35,
2.523,-10.37,3.36,7.17,0.87,0.76,0.36,
2.524,-10.73,3.49,7.23,0.87,0.76,0.36,
2.526,-10.73,3.49,7.23,1.02,0.82,0.37,
2.529,-10.73,3.49,7.23,1.16,0.87,0.38,
2.53,-11.09,3.70,7.21,1.16,0.87,0.38,
2.531,-11.09,3.70,7.21,1.31,0.94,0.40,
2.536,-11.50,3.91,7.10,1.31,0.94,0.40,
2.537,-11.50,3.91,7.10,1.45,1.00,0.43,
2.537,-11.50,3.91,7.10,1.60,1.08,0.46,
2.539,-11.97,4.10,6.93,1.60,1.08,0.46,
2.539,-11.97,4.10,6.93,1.75,1.15,0.49,
2.541,-11.97,4.10,6.93,1.89,1.23,0.54,
2.543,-12.47,4.30,6.65,1.89,1.23,0.54,
2.544,-12.47,4.30,6.65,2.03,1.32,0.60,
2.546,-12.47,4.30,6.65,2.17,1.41,0.67,
2.549,-12.92,4.50,6.37,2.17,1.41,0.67,
2.549,-12.92,4.50,6.37,2.30,1.51,0.74,
2.552,-12.92,4.50,6.37,2.43,1.60,0.83,
2.553,-13.32,4.69,6.03,2.43,1.60,0.83,
2.554,-13.32,4.69,6.03,2.55,1.70,0.93,
2.556,-13.32,4.69,6.03,2.66,1.81,1.05,
2.558,-13.66,4.81,5.74,2.66,1.81,1.05,
2.559,-13.66,4.81,5.74,2.77,1.91,1.17,
2.561,-13.66,4.81,5.74,2.87,2.02,1.30,
2.563,-13.66,4.81,5.74,2.97,2.12,1.44,
2.563,-13.92,4.84,5.49,2.97,2.12,1.44,
2.569,-13.92,4.84,5.49,3.06,2.22,1.59,
2.57,-13.92,4.84,5.49,3.14,2.32,1.75,
2.57,-14.05,4.76,5.25,3.14,2.32,1.75,
2.571,-14.05,4.76,5.25,3.22,2.42,1.91,
2.573,-14.18,4.48,5.05,3.22,2.42,1.91,
2.573,-14.18,4.48,5.05,3.29,2.51,2.07,
2.575,-14.18,4.48,5.05,3.36,2.59,2.23,
2.579,-14.26,3.98,4.88,3.36,2.59,2.23,
2.579,-14.26,3.98,4.88,3.42,2.66,2.40,
2.581,-14.26,3.98,4.88,3.47,2.73,2.56,
2.584,-14.22,3.35,4.74,3.47,2.73,2.56,
2.584,-14.22,3.35,4.74,3.52,2.79,2.73,
2.587,-14.22,3.35,4.74,3.57,2.85,2.89,
2.588,-14.22,3.35,4.74,3.61,2.90,3.04,
2.588,-14.10,2.66,4.60,3.61,2.90,3.04,
2.591,-14.10,2.66,4.60,3.65,2.94,3.19,
2.593,-13.88,1.94,4.43,3.65,2.94,3.19,
2.593,-13.88,1.94,4.43,3.69,2.98,3.34,
2.596,-13.88,1.94,4.43,3.72,3.02,3.49,
2.598,-13.88,1.94,4.43,3.75,3.05,3.62,
2.598,-13.63,1.23,4.21,3.75,3.05,3.62,
2.601,-13.63,1.23,4.21,3.77,3.08,3.76,
2.604,-13.63,1.23,4.21,3.79,3.11,3.89,
2.604,-13.42,0.46,3.96,3.79,3.11,3.89,
2.608,-13.42,0.46,3.96,3.80,3.14,4.01,
2.608,-13.23,-0.33,3.71,3.80,3.14,4.01,
2.609,-13.23,-0.33,3.71,3.82,3.16,4.13,
2.61,-13.23,-0.33,3.71,3.82,3.17,4.25,
2.613,-13.23,-0.33,3.71,3.81,3.18,4.36,
2.613,-13.03,-1.16,3.42,3.81,3.18,4.36,
2.615,-13.03,-1.16,3.42,3.81,3.19,4.47,
2.618,-12.86,-2.02,3.10,3.81,3.19,4.47,
2.618,-12.86,-2.02,3.10,3.79,3.20,4.58,
2.62,-12.86,-2.02,3.10,3.77,3.22,4.68,
2.623,-12.74,-2.90,2.83,3.77,3.22,4.68,
2.623,-12.74,-2.90,2.83,3.75,3.24,4.78,
2.625,-12.74,-2.90,2.83,3.72,3.26,4.87,
2.627,-12.74,-2.90,2.83,3.69,3.30,4.97,
2.628,-12.74,-3.83,2.59,3.69,3.30,4.97,
2.63,-12.74,-3.83,2.59,3.65,3.33,5.06,
2.633,-12.80,-4.74,2.41,3.65,3.33,5.06,
2.65,-12.80,-4.74,2.41,3.60,3.38,5.15,
2.65,-12.80,-4.74,2.41,3.56,3.42,5.23,
2.65,-12.80,-4.74,2.41,3.50,3.47,5.31,
2.651,-12.78,-5.60,2.21,3.50,3.47,5.31,
2.651,-12.78,-5.60,2.21,3.44,3.51,5.39,
2.651,-12.78,-5.60,2.21,3.38,3.55,5.46,
2.652,-12.78,-5.60,2.21,3.30,3.57,5.52,
2.652,-12.56,-6.28,2.04,3.30,3.57,5.52,
2.653,-12.56,-6.28,2.04,3.21,3.60,5.58,
2.654,-12.56,-6.28,2.04,3.12,3.61,5.62,
2.654,-12.56,-6.28,2.04,3.01,3.63,5.65,
2.655,-12.13,-6.70,1.82,3.01,3.63,5.65,
2.655,-11.50,-7.14,1.56,3.01,3.63,5.65,
2.656,-11.50,-7.14,1.56,2.89,3.65,5.69,
2.657,-11.50,-7.14,1.56,2.77,3.67,5.72,
2.658,-11.29,-7.54,1.52,2.77,3.67,5.72,
2.66,-11.29,-7.54,1.52,2.63,3.68,5.75,
2.662,-11.29,-7.54,1.52,2.50,3.69,5.78,
2.663,-10.83,-7.85,1.56,2.50,3.69,5.78,
2.665,-10.83,-7.85,1.56,2.35,3.69,5.80,
2.668,-10.31,-8.16,1.72,2.35,3.69,5.80,
2.669,-10.31,-8.16,1.72,2.21,3.68,5.82,
2.671,-10.31,-8.16,1.72,2.06,3.66,5.83,
2.672,-9.72,-8.44,1.93,2.06,3.66,5.83,
2.673,-9.72,-8.44,1.93,1.91,3.63,5.83,
2.674,-9.72,-8.44,1.93,1.76,3.59,5.83,
2.679,-9.72,-8.44,1.93,1.60,3.53,5.82,
2.68,-9.12,-8.66,2.28,1.60,3.53,5.82,
2.68,-9.12,-8.66,2.28,1.46,3.46,5.80,
2.682,-9.12,-8.66,2.28,1.31,3.37,5.77,
2.683,-8.37,-8.74,2.68,1.31,3.37,5.77,
2.685,-8.37,-8.74,2.68,1.16,3.30,5.74,
2.687,-8.37,-8.74,2.68,1.02,3.26,5.67,
2.687,-7.33,-8.09,3.21,1.02,3.26,5.67,
2.689,-7.33,-8.09,3.21,0.88,3.19,5.62,
2.693,-7.33,-8.09,3.21,0.74,3.07,5.58,
2.693,-6.83,-8.62,3.49,0.74,3.07,5.58,
2.695,-6.83,-8.62,3.49,0.62,2.93,5.56,
2.698,-6.83,-8.62,3.49,0.50,2.77,5.54,
2.699,-6.51,-8.95,3.74,0.50,2.77,5.54,
2.702,-6.51,-8.95,3.74,0.39,2.60,5.54,
2.703,-6.51,-8.95,3.74,0.29,2.40,5.54,
2.705,-6.36,-9.09,4.05,0.29,2.40,5.54,
2.706,-6.36,-9.09,4.05,0.19,2.19,5.56,
2.709,-6.36,-9.09,4.05,0.09,1.98,5.58,
2.709,-6.13,-9.08,4.42,0.09,1.98,5.58,
2.71,-6.13,-9.08,4.42,-0.00,1.75,5.60,
2.712,-6.13,-9.08,4.42,-0.08,1.53,5.62,
2.712,-5.66,-8.96,4.83,-0.08,1.53,5.62,
2.714,-5.66,-8.96,4.83,-0.16,1.32,5.64,
2.72,-5.08,-8.79,5.12,-0.16,1.32,5.64,
2.72,-5.08,-8.79,5.12,-0.23,1.13,5.65,
2.72,-5.08,-8.79,5.12,-0.28,0.94,5.65,
2.722,-5.08,-8.79,5.12,-0.34,0.77,5.65,
2.722,-4.61,-8.70,5.29,-0.34,0.77,5.65,
2.724,-4.61,-8.70,5.29,-0.38,0.60,5.66,
2.727,-4.61,-8.70,5.29,-0.42,0.44,5.66,
2.727,-4.30,-8.76,5.40,-0.42,0.44,5.66,
2.729,-4.30,-8.76,5.40,-0.45,0.29,5.67,
2.732,-4.11,-8.90,5.48,-0.45,0.29,5.67,
2.732,-4.11,-8.90,5.48,-0.46,0.13,5.67,
2.735,-4.11,-8.90,5.48,-0.48,-0.03,5.69,
2.738,-4.11,-8.90,5.48,-0.48,-0.19,5.71,
2.738,-3.92,-9.13,5.49,-0.48,-0.19,5.71,
2.739,-3.92,-9.13,5.49,-0.48,-0.35,5.73,
2.742,-3.66,-9.42,5.42,-0.48,-0.35,5.73,
2.742,-3.66,-9.42,5.42,-0.48,-0.51,5.75,
2.744,-3.66,-9.42,5.42,-0.46,-0.67,5.77,
2.747,-3.66,-9.42,5.42,-0.45,-0.83,5.79,
2.747,-3.34,-9.76,5.25,-0.45,-0.83,5.79,
2.749,-3.34,-9.76,5.25,-0.43,-0.98,5.81,
2.752,-3.34,-9.76,5.25,-0.41,-1.13,5.82,
2.753,-3.00,-10.12,5.00,-0.41,-1.13,5.82,
2.754,-3.00,-10.12,5.00,-0.38,-1.27,5.84,
2.757,-3.00,-10.12,5.00,-0.35,-1.41,5.84,
2.758,-2.67,-10.49,4.67,-0.35,-1.41,5.84,
2.759,-2.67,-10.49,4.67,-0.32,-1.53,5.85,
2.762,-2.67,-10.49,4.67,-0.29,-1.64,5.85,
2.762,-2.37,-10.88,4.28,-0.29,-1.64,5.85,
2.764,-2.37,-10.88,4.28,-0.25,-1.74,5.85,
2.769,-2.37,-10.88,4.28,-0.22,-1.84,5.85,
2.769,-2.02,-11.21,3.91,-0.22,-1.84,5.85,
2.77,-2.02,-11.21,3.91,-0.18,-1.92,5.84,
2.771,-2.02,-11.21,3.91,-0.14,-2.00,5.84,
2.772,-1.63,-11.51,3.55,-0.14,-2.00,5.84,
2.774,-1.63,-11.51,3.55,-0.09,-2.07,5.83,
2.777,-1.63,-11.51,3.55,-0.05,-2.13,5.81,
2.778,-1.21,-11.76,3.16,-0.05,-2.13,5.81,
2.779,-1.21,-11.76,3.16,-0.01,-2.19,5.80,
2.781,-1.21,-11.76,3.16,0.03,-2.24,5.78,
2.782,-0.81,-12.01,2.78,0.03,-2.24,5.78,
2.799,-0.44,-12.26,2.39,0.03,-2.24,5.78,
2.8,-0.10,-12.50,2.06,0.03,-2.24,5.78,
2.8,0.30,-12.74,1.73,0.03,-2.24,5.78,
2.8,0.30,-12.74,1.73,0.08,-2.28,5.75,
2.801,0.30,-12.74,1.73,0.12,-2.32,5.72,
2.801,0.30,-12.74,1.73,0.17,-2.35,5.70,
2.802,0.30,-12.74,1.73,0.21,-2.37,5.67,
2.802,0.30,-12.74,1.73,0.26,-2.37,5.63,
2.802,0.30,-12.74,1.73,0.30,-2.38,5.59,
2.823,0.30,-12.74,1.73,0.35,-2.37,5.55,
2.823,0.30,-12.74,1.73,0.39,-2.36,5.51,
2.823,0.64,-12.91,1.42,0.39,-2.36,5.51,
2.824,0.64,-12.91,1.42,0.44,-2.34,5.46,
2.824,0.64,-12.91,1.42,0.48,-2.32,5.41,
2.825,0.94,-13.07,1.10,0.48,-2.32,5.41,
2.825,0.94,-13.07,1.10,0.52,-2.29,5.36,
2.825,0.94,-13.07,1.10,0.56,-2.26,5.31,
2.825,1.22,-13.19,0.80,0.56,-2.26,5.31,
2.826,1.22,-13.19,0.80,0.60,-2.21,5.26,
2.826,1.22,-13.19,0.80,0.64,-2.16,5.21,
2.826,1.48,-13.34,0.49,0.64,-2.16,5.21,
2.826,1.48,-13.34,0.49,0.68,-2.10,5.16,
2.827,1.48,-13.34,0.49,0.71,-2.03,5.10,
2.827,1.69,-13.53,0.19,0.71,-2.03,5.10,
2.827,1.69,-13.53,0.19,0.74,-1.97,5.05,
2.827,1.69,-13.53,0.19,0.76,-1.89,4.99,
2.828,1.83,-13.76,-0.08,0.76,-1.89,4.99,
2.832,1.83,-13.76,-0.08,0.79,-1.81,4.93,
2.833,1.83,-13.76,-0.08,0.81,-1.73,4.87,
2.833,2.02,-13.99,-0.29,0.81,-1.73,4.87,
2.834,2.02,-13.99,-0.29,0.83,-1.65,4.81,
2.836,2.02,-13.99,-0.29,0.84,-1.56,4.75,
2.836,2.23,-14.18,-0.47,0.84,-1.56,4.75,
2.838,2.23,-14.18,-0.47,0.85,-1.47,4.68,
2.841,2.35,-14.36,-0.57,0.85,-1.47,4.68,
2.841,2.35,-14.36,-0.57,0.87,-1.38,4.62,
2.843,2.35,-14.36,-0.57,0.88,-1.30,4.55,
2.849,2.46,-14.51,-0.67,0.88,-1.30,4.55,
2.849,2.46,-14.51,-0.67,0.89,-1.20,4.48,
2.849,2.46,-14.51,-0.67,0.90,-1.11,4.41,
2.854,2.57,-14.70,-0.69,0.90,-1.11,4.41,
2.854,2.57,-14.70,-0.69,0.91,-1.02,4.34,
2.856,2.57,-14.70,-0.69,0.92,-0.93,4.27,
2.857,2.70,-14.89,-0.73,0.92,-0.93,4.27,
2.857,2.70,-14.89,-0.73,0.93,-0.84,4.19,
2.86,2.70,-14.89,-0.73,0.94,-0.75,4.11,
2.862,2.88,-15.04,-0.75,0.94,-0.75,4.11,
2.863,2.88,-15.04,-0.75,0.96,-0.66,4.04,
2.863,2.88,-15.04,-0.75,0.97,-0.57,3.96,
2.867,3.01,-15.17,-0.75,0.97,-0.57,3.96,
2.867,3.01,-15.17,-0.75,0.98,-0.48,3.87,
2.87,3.01,-15.17,-0.75,0.98,-0.39,3.79,
2.871,3.01,-15.17,-0.75,0.99,-0.29,3.71,
2.871,3.11,-15.25,-0.76,0.99,-0.29,3.71,
2.873,3.11,-15.25,-0.76,0.99,-0.20,3.62,
2.876,3.20,-15.40,-0.79,0.99,-0.20,3.62,
2.876,3.20,-15.40,-0.79,1.00,-0.11,3.54,
2.878,3.20,-15.40,-0.79,0.99,-0.02,3.45,
2.88,3.20,-15.40,-0.79,0.99,0.07,3.36,
2.881,3.33,-15.50,-0.81,0.99,0.07,3.36,
2.883,3.33,-15.50,-0.81,0.98,0.15,3.26,
2.886,3.33,-15.50,-0.81,0.97,0.23,3.17,
2.886,3.49,-15.54,-0.77,0.97,0.23,3.17,
2.888,3.49,-15.54,-0.77,0.96,0.31,3.07,
2.891,3.49,-15.54,-0.77,0.94,0.39,2.98,
2.895,3.66,-15.51,-0.71,0.94,0.39,2.98,
2.897,3.78,-15.42,-0.59,0.94,0.39,2.98,
2.898,3.78,-15.42,-0.59,0.93,0.46,2.88,
2.898,3.78,-15.42,-0.59,0.92,0.53,2.78,
2.899,3.78,-15.42,-0.59,0.90,0.59,2.68,
2.902,3.78,-15.42,-0.59,0.88,0.65,2.59,
2.903,3.90,-15.27,-0.46,0.88,0.65,2.59,
2.906,3.90,-15.27,-0.46,0.86,0.70,2.49,
2.907,3.90,-15.27,-0.46,0.85,0.75,2.40,
2.907,4.07,-15.11,-0.33,0.85,0.75,2.40,
2.914,4.07,-15.11,-0.33,0.83,0.79,2.30,
2.915,4.25,-14.94,-0.27,0.83,0.79,2.30,
2.915,4.25,-14.94,-0.27,0.80,0.82,2.21,
2.915,4.25,-14.94,-0.27,0.78,0.86,2.12,
2.916,4.25,-14.94,-0.27,0.76,0.89,2.03,
2.916,4.38,-14.77,-0.18,0.76,0.89,2.03,
2.918,4.38,-14.77,-0.18,0.73,0.93,1.94,
2.92,4.38,-14.77,-0.18,0.70,0.96,1.85,
2.921,4.46,-14.66,-0.04,0.70,0.96,1.85,
2.923,4.46,-14.66,-0.04,0.68,0.99,1.76,
2.925,4.46,-14.66,-0.04,0.65,1.02,1.67,
2.926,4.49,-14.60,0.10,0.65,1.02,1.67,
2.928,4.49,-14.60,0.10,0.62,1.04,1.58,
2.93,4.49,-14.60,0.10,0.60,1.06,1.50,
2.93,4.43,-14.62,0.25,0.60,1.06,1.50,
2.933,4.43,-14.62,0.25,0.57,1.07,1.41,
2.937,4.43,-14.62,0.25,0.55,1.08,1.33,
2.937,4.31,-14.70,0.52,0.55,1.08,1.33,
2.938,4.31,-14.70,0.52,0.53,1.08,1.25,
2.94,4.18,-14.81,0.75,0.53,1.08,1.25,
2.94,4.18,-14.81,0.75,0.51,1.07,1.17,
2.943,4.18,-14.81,0.75,0.49,1.05,1.09,
2.945,4.18,-14.81,0.75,0.48,1.02,1.01,
2.946,4.10,-14.91,0.95,0.48,1.02,1.01,
2.954,4.12,-14.97,1.09,0.48,1.02,1.01,
2.954,4.12,-14.97,1.09,0.47,0.99,0.93,
2.954,4.12,-14.97,1.09,0.46,0.95,0.85,
2.954,4.12,-14.97,1.09,0.45,0.91,0.76,
2.955,4.12,-14.97,1.09,0.44,0.86,0.68,
2.955,4.24,-14.98,1.17,0.44,0.86,0.68,
2.957,4.24,-14.98,1.17,0.44,0.81,0.60,
2.96,4.41,-14.97,1.19,0.44,0.81,0.60,
2.96,4.41,-14.97,1.19,0.43,0.75,0.51,
2.963,4.41,-14.97,1.19,0.42,0.70,0.43,
2.976,4.64,-14.93,1.18,0.42,0.70,0.43,
2.976,4.64,-14.93,1.18,0.42,0.65,0.34,
2.976,4.64,-14.93,1.18,0.42,0.59,0.25,
2.977,4.64,-14.93,1.18,0.41,0.53,0.16,
2.977,4.89,-14.90,1.15,0.41,0.53,0.16,
2.977,4.89,-14.90,1.15,0.41,0.48,0.07,
2.977,4.89,-14.90,1.15,0.41,0.42,-0.03,
2.978,4.89,-14.90,1.15,0.41,0.37,-0.13,
2.978,5.20,-14.84,1.09,0.41,0.37,-0.13,
2.981,5.20,-14.84,1.09,0.40,0.31,-0.24,
2.982,5.49,-14.75,1.00,0.40,0.31,-0.24,
2.982,5.49,-14.75,1.00,0.40,0.26,-0.35,
2.986,5.84,-14.64,0.83,0.40,0.26,-0.35,
2.99,5.84,-14.64,0.83,0.40,0.20,-0.46,
2.991,6.21,-14.52,0.62,0.40,0.20,-0.46,
2.991,6.21,-14.52,0.62,0.39,0.15,-0.57,
2.991,6.21,-14.52,0.62,0.37,0.09,-0.69,
2.995,6.21,-14.52,0.62,0.36,0.04,-0.82,
2.995,6.21,-14.52,0.62,0.33,-0.00,-0.94,
2.996,6.55,-14.39,0.34,0.33,-0.00,-0.94,
2.997,6.55,-14.39,0.34,0.31,-0.04,-1.06,
3.001,6.55,-14.39,0.34,0.28,-0.08,-1.19,
3.001,6.85,-14.23,0.07,0.28,-0.08,-1.19,
3.002,6.85,-14.23,0.07,0.25,-0.11,-1.32,
3.006,6.85,-14.23,0.07,0.21,-0.14,-1.46,
3.006,7.17,-14.04,-0.21,0.21,-0.14,-1.46,
3.007,7.17,-14.04,-0.21,0.17,-0.16,-1.60,
3.01,7.17,-14.04,-0.21,0.13,-0.17,-1.73,
3.01,7.47,-13.84,-0.45,0.13,-0.17,-1.73,
3.012,7.47,-13.84,-0.45,0.09,-0.19,-1.88,
3.016,7.47,-13.84,-0.45,0.04,-0.19,-2.02,
3.016,7.68,-13.66,-0.70,0.04,-0.19,-2.02,
3.022,7.68,-13.66,-0.70,-0.02,-0.20,-2.17,
3.022,7.68,-13.66,-0.70,-0.07,-0.20,-2.31,
3.022,7.83,-13.48,-0.92,-0.07,-0.20,-2.31,
3.022,7.83,-13.48,-0.92,-0.13,-0.20,-2.46,
3.025,7.85,-13.36,-1.12,-0.13,-0.20,-2.46,
3.025,7.85,-13.36,-1.12,-0.19,-0.19,-2.61,
3.027,7.85,-13.36,-1.12,-0.25,-0.18,-2.76,
3.029,7.82,-13.27,-1.24,-0.25,-0.18,-2.76,
3.03,7.82,-13.27,-1.24,-0.31,-0.17,-2.92,
3.032,7.82,-13.27,-1.24,-0.38,-0.16,-3.07,
3.035,7.65,-13.21,-1.31,-0.38,-0.16,-3.07,
3.036,7.65,-13.21,-1.31,-0.44,-0.15,-3.23,
3.037,7.65,-13.21,-1.31,-0.51,-0.13,-3.39,
3.04,7.29,-13.17,-1.33,-0.51,-0.13,-3.39,
3.04,7.29,-13.17,-1.33,-0.58,-0.12,-3.54,
3.042,7.29,-13.17,-1.33,-0.65,-0.10,-3.70,
3.046,7.29,-13.17,-1.33,-0.71,-0.08,-3.85,
3.046,6.90,-13.11,-1.23,-0.71,-0.08,-3.85,
3.047,6.90,-13.11,-1.23,-0.77,-0.07,-4.00,
3.049,6.90,-13.11,-1.23,-0.83,-0.05,-4.15,
3.05,6.48,-12.97,-1.10,-0.83,-0.05,-4.15,
3.052,6.48,-12.97,-1.10,-0.89,-0.03,-4.30,
3.055,6.48,-12.97,-1.10,-0.94,-0.01,-4.45,
3.055,5.92,-12.80,-0.97,-0.94,-0.01,-4.45,
3.057,5.92,-12.80,-0.97,-0.99,0.01,-4.59,
3.061,5.32,-12.76,-0.82,-0.99,0.01,-4.59,
3.062,5.32,-12.76,-0.82,-1.03,0.03,-4.72,
3.063,5.32,-12.76,-0.82,-1.06,0.06,-4.85,
3.064,5.32,-12.76,-0.82,-1.09,0.08,-4.98,
3.065,4.64,-12.76,-0.55,-1.09,0.08,-4.98,
3.066,4.64,-12.76,-0.55,-1.11,0.10,-5.11,
3.07,3.92,-12.77,-0.26,-1.11,0.10,-5.11,
3.071,3.92,-12.77,-0.26,-1.12,0.11,-5.24,
3.071,3.92,-12.77,-0.26,-1.13,0.12,-5.37,
3.074,3.09,-12.70,0.05,-1.13,0.12,-5.37,
3.075,3.09,-12.70,0.05,-1.12,0.12,-5.50,
3.076,3.09,-12.70,0.05,-1.11,0.11,-5.62,
3.079,2.08,-12.50,0.26,-1.11,0.11,-5.62,
3.079,2.08,-12.50,0.26,-1.09,0.10,-5.74,
3.081,2.08,-12.50,0.26,-1.06,0.09,-5.85,
3.084,2.08,-12.50,0.26,-1.03,0.07,-5.95,
3.093,1.02,-12.17,0.33,-1.03,0.07,-5.95,
3.094,1.02,-12.17,0.33,-1.00,0.05,-6.05,
3.094,0.10,-11.77,0.23,-1.00,0.05,-6.05,
3.094,0.10,-11.77,0.23,-0.97,0.04,-6.13,
3.094,0.10,-11.77,0.23,-0.94,0.03,-6.21,
3.095,-0.73,-11.34,0.02,-0.94,0.03,-6.21,
3.095,-0.73,-11.34,0.02,-0.91,0.02,-6.27,
3.097,-0.73,-11.34,0.02,-0.88,0.02,-6.32,
3.099,-1.47,-10.87,-0.29,-0.88,0.02,-6.32,
3.099,-1.47,-10.87,-0.29,-0.86,0.02,-6.36,
3.101,-1.47,-10.87,-0.29,-0.84,0.02,-6.38,
3.104,-1.47,-10.87,-0.29,-0.83,0.03,-6.40,
3.104,-2.14,-10.35,-0.63,-0.83,0.03,-6.40,
3.106,-2.14,-10.35,-0.63,-0.83,0.04,-6.41,
3.109,-2.69,-9.80,-1.00,-0.83,0.04,-6.41,
3.109,-2.69,-9.80,-1.00,-0.83,0.06,-6.40,
3.111,-2.69,-9.80,-1.00,-0.85,0.08,-6.39,
3.114,-2.69,-9.80,-1.00,-0.87,0.11,-6.37,
3.114,-3.14,-9.30,-1.40,-0.87,0.11,-6.37,
3.116,-3.14,-9.30,-1.40,-0.91,0.14,-6.34,
3.121,-3.57,-8.85,-1.80,-0.91,0.14,-6.34,
3.121,-3.57,-8.85,-1.80,-0.95,0.18,-6.31,
3.121,-3.57,-8.85,-1.80,-1.00,0.22,-6.27,
3.124,-3.57,-8.85,-1.80,-1.07,0.26,-6.23,
3.124,-3.86,-8.52,-2.08,-1.07,0.26,-6.23,
3.126,-3.86,-8.52,-2.08,-1.14,0.31,-6.19,
3.128,-3.86,-8.52,-2.08,-1.21,0.36,-6.14,
3.14,-4.04,-8.32,-2.27,-1.21,0.36,-6.14,
3.14,-4.04,-8.32,-2.27,-1.30,0.40,-6.10,
3.14,-4.04,-8.32,-2.27,-1.39,0.45,-6.06,
3.14,-4.24,-8.23,-2.38,-1.39,0.45,-6.06,
3.14,-4.24,-8.23,-2.38,-1.49,0.48,-6.02,
3.14,-4.47,-8.35,-2.31,-1.49,0.48,-6.02,
3.141,-4.47,-8.35,-2.31,-1.59,0.51,-5.99,
3.142,-4.47,-8.35,-2.31,-1.70,0.53,-5.96,
3.144,-4.47,-8.35,-2.31,-1.81,0.55,-5.94,
3.144,-4.72,-8.56,-2.07,-1.81,0.55,-5.94,
3.147,-4.72,-8.56,-2.07,-1.91,0.55,-5.93,
3.149,-4.91,-8.80,-1.73,-1.91,0.55,-5.93,
3.15,-4.91,-8.80,-1.73,-2.02,0.55,-5.92,
3.152,-4.91,-8.80,-1.73,-2.13,0.54,-5.93,
3.154,-5.12,-9.00,-1.39,-2.13,0.54,-5.93,
3.155,-5.12,-9.00,-1.39,-2.24,0.53,-5.94,
3.156,-5.12,-9.00,-1.39,-2.35,0.53,-5.95,
3.158,-5.12,-9.00,-1.39,-2.45,0.52,-5.97,
3.158,-5.48,-9.19,-0.97,-2.45,0.52,-5.97,
3.16,-5.48,-9.19,-0.97,-2.54,0.52,-5.99,
3.163,-5.48,-9.19,-0.97,-2.64,0.52,-6.02,
3.163,-5.89,-9.44,-0.51,-2.64,0.52,-6.02,
3.166,-5.89,-9.44,-0.51,-2.72,0.51,-6.05,
3.169,-6.37,-9.70,0.02,-2.72,0.51,-6.05,
3.169,-6.37,-9.70,0.02,-2.81,0.50,-6.08,
3.17,-6.37,-9.70,0.02,-2.88,0.49,-6.12,
3.174,-6.89,-9.89,0.59,-2.88,0.49,-6.12,
3.174,-6.89,-9.89,0.59,-2.95,0.48,-6.16,
3.175,-6.89,-9.89,0.59,-3.02,0.46,-6.21,
3.178,-6.89,-9.89,0.59,-3.08,0.44,-6.26,
3.178,-7.45,-9.96,1.17,-3.08,0.44,-6.26,
3.18,-7.45,-9.96,1.17,-3.13,0.41,-6.31,
3.183,-7.45,-9.96,1.17,-3.18,0.38,-6.36,
3.183,-8.08,-10.01,1.70,-3.18,0.38,-6.36,
3.188,-8.08,-10.01,1.70,-3.22,0.33,-6.42,
3.189,-8.80,-9.95,2.30,-3.22,0.33,-6.42,
3.193,-9.48,-9.72,2.97,-3.22,0.33,-6.42,
3.196,-9.48,-9.72,2.97,-3.26,0.29,-6.47,
3.197,-9.48,-9.72,2.97,-3.29,0.23,-6.52,
3.197,-9.48,-9.72,2.97,-3.31,0.17,-6.58,
3.197,-9.48,-9.72,2.97,-3.32,0.10,-6.63,
3.198,-9.48,-9.72,2.97,-3.33,0.03,-6.67,
3.198,-10.06,-9.36,3.53,-3.33,0.03,-6.67,
3.2,-10.06,-9.36,3.53,-3.33,-0.05,-6.72,
3.204,-10.06,-9.36,3.53,-3.32,-0.12,-6.76,
3.205,-10.60,-8.84,4.01,-3.32,-0.12,-6.76,
3.205,-10.60,-8.84,4.01,-3.31,-0.20,-6.80,
3.208,-10.60,-8.84,4.01,-3.30,-0.27,-6.83,
3.208,-11.10,-8.16,4.44,-3.30,-0.27,-6.83,
3.21,-11.10,-8.16,4.44,-3.27,-0.35,-6.86,
3.213,-11.10,-8.16,4.44,-3.24,-0.42,-6.88,
3.213,-11.60,-7.39,4.86,-3.24,-0.42,-6.88,
3.215,-11.60,-7.39,4.86,-3.21,-0.48,-6.90,
3.221,-11.60,-7.39,4.86,-3.17,-0.55,-6.91,
3.221,-12.06,-6.46,5.21,-3.17,-0.55,-6.91,
3.221,-12.06,-6.46,5.21,-3.13,-0.61,-6.92,
3.223,-12.06,-6.46,5.21,-3.08,-0.68,-6.92,
3.223,-12.52,-5.48,5.47,-3.08,-0.68,-6.92,
3.225,-12.52,-5.48,5.47,-3.03,-0.75,-6.91,
3.228,-12.52,-5.48,5.47,-2.98,-0.82,-6.89,
3.228,-12.99,-4.45,5.70,-2.98,-0.82,-6.89,
3.23,-12.99,-4.45,5.70,-2.93,-0.88,-6.87,
3.233,-12.99,-4.45,5.70,-2.88,-0.95,-6.84,
3.233,-13.46,-3.42,5.83,-2.88,-0.95,-6.84,
3.237,-13.46,-3.42,5.83,-2.82,-1.02,-6.81,
3.238,-13.46,-3.42,5.83,-2.77,-1.08,-6.77,
3.238,-13.90,-2.36,5.94,-2.77,-1.08,-6.77,
3.24,-13.90,-2.36,5.94,-2.71,-1.13,-6.72,
3.243,-13.90,-2.36,5.94,-2.65,-1.19,-6.67,
3.243,-14.22,-1.25,6.06,-2.65,-1.19,-6.67,
3.245,-14.22,-1.25,6.06,-2.58,-1.24,-6.60,
3.247,-14.22,-1.25,6.06,-2.52,-1.29,-6.53,
3.249,-14.45,-0.03,6.16,-2.52,-1.29,-6.53,
3.251,-14.45,-0.03,6.16,-2.45,-1.33,-6.45,
3.253,-14.45,-0.03,6.16,-2.37,-1.37,-6.35,
3.254,-14.64,1.23,6.21,-2.37,-1.37,-6.35,
3.255,-14.64,1.23,6.21,-2.30,-1.40,-6.25,
3.257,-14.64,1.23,6.21,-2.23,-1.42,-6.14,
3.258,-14.69,2.51,6.11,-2.23,-1.42,-6.14,
3.26,-14.69,2.51,6.11,-2.15,-1.43,-6.02,
3.262,-14.67,3.75,5.99,-2.15,-1.43,-6.02,
3.263,-14.67,3.75,5.99,-2.08,-1.42,-5.88,
3.265,-14.67,3.75,5.99,-2.00,-1.41,-5.74,
3.268,-14.59,4.88,5.81,-2.00,-1.41,-5.74,
3.268,-14.59,4.88,5.81,-1.93,-1.38,-5.58,
3.27,-14.59,4.88,5.81,-1.86,-1.33,-5.42,
3.273,-14.59,4.88,5.81,-1.80,-1.28,-5.24,
3.273,-14.49,5.85,5.69,-1.80,-1.28,-5.24,
3.275,-14.49,5.85,5.69,-1.73,-1.22,-5.07,
3.277,-14.37,6.64,5.64,-1.73,-1.22,-5.07,
3.278,-14.37,6.64,5.64,-1.67,-1.15,-4.88,
3.28,-14.37,6.64,5.64,-1.60,-1.09,-4.69,
3.282,-14.27,7.24,5.71,-1.60,-1.09,-4.69,
3.283,-14.27,7.24,5.71,-1.54,-1.02,-4.49,
3.285,-14.27,7.24,5.71,-1.47,-0.95,-4.29,
3.288,-14.27,7.24,5.71,-1.41,-0.90,-4.09,
3.288,-14.16,7.77,5.89,-1.41,-0.90,-4.09,
3.289,-14.16,7.77,5.89,-1.34,-0.85,-3.88,
3.292,-14.16,7.77,5.89,-1.26,-0.82,-3.66,
3.293,-14.03,8.24,6.16,-1.26,-0.82,-3.66,
3.305,-14.03,8.24,6.16,-1.18,-0.80,-3.44,
3.305,-13.79,8.57,6.44,-1.18,-0.80,-3.44,
3.306,-13.79,8.57,6.44,-1.10,-0.79,-3.22,
3.306,-13.79,8.57,6.44,-1.01,-0.79,-3.00,
3.306,-13.47,8.76,6.65,-1.01,-0.79,-3.00,
3.306,-13.47,8.76,6.65,-0.92,-0.80,-2.79,
3.307,-13.47,8.76,6.65,-0.83,-0.81,-2.57,
3.311,-13.09,8.83,6.78,-0.83,-0.81,-2.57,
3.313,-12.63,8.74,6.71,-0.83,-0.81,-2.57,
3.318,-12.08,8.61,6.53,-0.83,-0.81,-2.57,
3.319,-12.08,8.61,6.53,-0.74,-0.84,-2.36,
3.319,-12.08,8.61,6.53,-0.65,-0.87,-2.15,
3.319,-12.08,8.61,6.53,-0.56,-0.90,-1.94,
3.319,-12.08,8.61,6.53,-0.48,-0.95,-1.75,
3.319,-12.08,8.61,6.53,-0.40,-0.99,-1.55,
3.32,-12.08,8.61,6.53,-0.33,-1.05,-1.37,
3.322,-11.44,8.35,6.22,-0.33,-1.05,-1.37,
3.322,-11.44,8.35,6.22,-0.26,-1.10,-1.20,
3.324,-11.44,8.35,6.22,-0.20,-1.16,-1.04,
3.333,-11.44,8.35,6.22,-0.15,-1.21,-0.88,
3.333,-11.44,8.35,6.22,-0.10,-1.28,-0.74,
3.333,-11.44,8.35,6.22,-0.06,-1.34,-0.61,
3.333,-10.74,8.01,5.82,-0.06,-1.34,-0.61,
3.334,-10.08,7.64,5.37,-0.06,-1.34,-0.61,
3.334,-10.08,7.64,5.37,-0.03,-1.40,-0.49,
3.337,-9.45,7.33,4.96,-0.03,-1.40,-0.49,
3.337,-9.45,7.33,4.96,-0.00,-1.46,-0.38,
3.339,-9.45,7.33,4.96,0.02,-1.51,-0.28,
3.342,-8.84,7.02,4.53,0.02,-1.51,-0.28,
3.342,-8.84,7.02,4.53,0.04,-1.57,-0.18,
3.344,-8.84,7.02,4.53,0.05,-1.62,-0.10,
3.347,-8.19,6.69,4.12,0.05,-1.62,-0.10,
3.347,-8.19,6.69,4.12,0.06,-1.68,-0.03,
3.349,-8.19,6.69,4.12,0.07,-1.73,0.03,
3.353,-8.19,6.69,4.12,0.07,-1.78,0.09,
3.353,-7.65,6.40,3.68,0.07,-1.78,0.09,
3.354,-7.65,6.40,3.68,0.07,-1.83,0.13,
3.357,-7.65,6.40,3.68,0.07,-1.88,0.17,
3.357,-7.07,6.11,3.24,0.07,-1.88,0.17,
3.359,-7.07,6.11,3.24,0.06,-1.92,0.20,
3.362,-7.07,6.11,3.24,0.05,-1.95,0.22,
3.362,-6.56,5.93,2.79,0.05,-1.95,0.22,
3.364,-6.56,5.93,2.79,0.04,-1.98,0.24,
3.367,-6.15,5.79,2.34,0.04,-1.98,0.24,
3.367,-6.15,5.79,2.34,0.02,-1.99,0.25,
3.369,-6.15,5.79,2.34,0.00,-2.00,0.26,
3.372,-6.15,5.79,2.34,-0.02,-2.00,0.27,
3.372,-5.83,5.68,1.95,-0.02,-2.00,0.27,
3.374,-5.83,5.68,1.95,-0.04,-1.99,0.28,
3.377,-5.57,5.57,1.64,-0.04,-1.99,0.28,
3.377,-5.57,5.57,1.64,-0.07,-1.97,0.28,
3.384,-5.25,5.46,1.40,-0.07,-1.97,0.28,
3.388,-4.89,5.41,1.21,-0.07,-1.97,0.28,
3.388,-4.89,5.41,1.21,-0.09,-1.95,0.28,
3.389,-4.89,5.41,1.21,-0.12,-1.92,0.27,
3.389,-4.89,5.41,1.21,-0.15,-1.89,0.27,
3.389,-4.89,5.41,1.21,-0.18,-1.86,0.26,
3.39,-4.89,5.41,1.21,-0.21,-1.82,0.25,
3.392,-4.89,5.41,1.21,-0.24,-1.77,0.23,
3.392,-4.61,5.43,1.07,-0.24,-1.77,0.23,
3.394,-4.61,5.43,1.07,-0.27,-1.72,0.22,
3.396,-4.61,5.43,1.07,-0.30,-1.67,0.20,
3.397,-4.38,5.44,0.94,-0.30,-1.67,0.20,
3.399,-4.38,5.44,0.94,-0.33,-1.61,0.19,
3.401,-4.25,5.42,0.85,-0.33,-1.61,0.19,
3.403,-4.25,5.42,0.85,-0.36,-1.55,0.18,
3.404,-4.25,5.42,0.85,-0.39,-1.48,0.16,
3.406,-4.15,5.39,0.81,-0.39,-1.48,0.16,
3.406,-4.15,5.39,0.81,-0.42,-1.41,0.15,
3.409,-4.15,5.39,0.81,-0.45,-1.34,0.14,
3.411,-4.15,5.39,0.81,-0.47,-1.27,0.13,
3.411,-4.06,5.30,0.81,-0.47,-1.27,0.13,
3.413,-4.06,5.30,0.81,-0.50,-1.19,0.12,
3.416,-4.00,5.18,0.87,-0.50,-1.19,0.12,
3.416,-4.00,5.18,0.87,-0.53,-1.12,0.11,
3.418,-4.00,5.18,0.87,-0.56,-1.05,0.09,
3.421,-4.00,5.18,0.87,-0.59,-0.98,0.08,
3.422,-3.96,5.06,0.95,-0.59,-0.98,0.08,
3.424,-3.96,5.06,0.95,-0.62,-0.91,0.06,
3.426,-3.91,4.93,1.09,-0.62,-0.91,0.06,
3.426,-3.91,4.93,1.09,-0.65,-0.84,0.04,
3.429,-3.91,4.93,1.09,-0.68,-0.77,0.02,
3.431,-3.91,4.93,1.09,-0.70,-0.70,0.01,
3.431,-3.94,4.77,1.29,-0.70,-0.70,0.01,
3.433,-3.94,4.77,1.29,-0.73,-0.64,-0.02,
3.437,-4.00,4.60,1.52,-0.73,-0.64,-0.02,
3.437,-4.00,4.60,1.52,-0.75,-0.57,-0.04,
3.439,-4.00,4.60,1.52,-0.77,-0.51,-0.06,
3.441,-4.00,4.60,1.52,-0.78,-0.44,-0.08,
3.441,-4.13,4.47,1.82,-0.78,-0.44,-0.08,
3.445,-4.13,4.47,1.82,-0.80,-0.38,-0.10,
3.446,-4.34,4.35,2.13,-0.80,-0.38,-0.10,
3.446,-4.34,4.35,2.13,-0.81,-0.32,-0.12,
3.448,-4.34,4.35,2.13,-0.82,-0.27,-0.15,
3.451,-4.34,4.35,2.13,-0.83,-0.23,-0.17,
3.452,-4.60,4.22,2.45,-0.83,-0.23,-0.17,
3.454,-4.60,4.22,2.45,-0.83,-0.18,-0.19,
3.456,-4.60,4.22,2.45,-0.84,-0.15,-0.22,
3.456,-4.90,4.10,2.71,-0.84,-0.15,-0.22,
3.458,-4.90,4.10,2.71,-0.84,-0.12,-0.24,
3.471,-4.90,4.10,2.71,-0.84,-0.10,-0.26,
3.471,-5.21,4.03,2.95,-0.84,-0.10,-0.26,
3.472,-5.21,4.03,2.95,-0.85,-0.08,-0.28,
3.472,-5.50,4.04,3.12,-0.85,-0.08,-0.28,
3.472,-5.50,4.04,3.12,-0.85,-0.07,-0.29,
3.472,-5.50,4.04,3.12,-0.84,-0.05,-0.30,
3.472,-5.50,4.04,3.12,-0.84,-0.02,-0.31,
3.473,-5.84,4.08,3.27,-0.84,-0.02,-0.31,
3.474,-5.84,4.08,3.27,-0.84,0.00,-0.32,
3.476,-5.84,4.08,3.27,-0.82,0.04,-0.32,
3.476,-6.19,4.05,3.41,-0.82,0.04,-0.32,
3.478,-6.19,4.05,3.41,-0.81,0.08,-0.32,
3.48,-6.19,4.05,3.41,-0.79,0.12,-0.31,
3.481,-6.62,3.93,3.60,-0.79,0.12,-0.31,
3.483,-6.62,3.93,3.60,-0.76,0.18,-0.30,
3.487,-7.09,3.76,3.88,-0.76,0.18,-0.30,
3.488,-7.09,3.76,3.88,-0.73,0.23,-0.30,
3.488,-7.09,3.76,3.88,-0.69,0.28,-0.29,
3.491,-7.48,3.56,4.18,-0.69,0.28,-0.29,
3.493,-7.48,3.56,4.18,-0.65,0.34,-0.29,
3.495,-7.92,3.37,4.52,-0.65,0.34,-0.29,
3.497,-7.92,3.37,4.52,-0.60,0.39,-0.29,
3.497,-7.92,3.37,4.52,-0.54,0.44,-0.30,
3.498,-7.92,3.37,4.52,-0.48,0.48,-0.30,
3.5,-7.92,3.37,4.52,-0.42,0.52,-0.31,
3.5,-8.38,3.20,4.82,-0.42,0.52,-0.31,
3.503,-8.38,3.20,4.82,-0.34,0.55,-0.33,
3.505,-8.83,3.11,5.04,-0.34,0.55,-0.33,
3.507,-8.83,3.11,5.04,-0.27,0.59,-0.34,
3.508,-8.83,3.11,5.04,-0.19,0.63,-0.36,
3.51,-8.83,3.11,5.04,-0.10,0.67,-0.38,
3.51,-9.21,3.13,5.25,-0.10,0.67,-0.38,
3.512,-9.21,3.13,5.25,-0.01,0.72,-0.40,
3.515,-9.64,3.27,5.39,-0.01,0.72,-0.40,
3.516,-9.64,3.27,5.39,0.08,0.77,-0.41,
3.517,-9.64,3.27,5.39,0.18,0.83,-0.43,
3.52,-9.64,3.27,5.39,0.28,0.89,-0.44,
3.521,-10.13,3.51,5.42,0.28,0.89,-0.44,
3.524,-10.13,3.51,5.42,0.37,0.96,-0.44,
3.525,-10.73,3.86,5.31,0.37,0.96,-0.44,
3.525,-10.73,3.86,5.31,0.47,1.04,-0.44,
3.527,-10.73,3.86,5.31,0.56,1.13,-0.43,
3.53,-11.32,4.23,5.13,0.56,1.13,-0.43,
3.531,-11.32,4.23,5.13,0.65,1.23,-0.41,
3.532,-11.32,4.23,5.13,0.73,1.34,-0.38,
3.535,-11.32,4.23,5.13,0.81,1.44,-0.34,
3.535,-11.90,4.62,4.99,0.81,1.44,-0.34,
3.538,-11.90,4.62,4.99,0.88,1.56,-0.29,
3.54,-12.51,5.01,4.84,0.88,1.56,-0.29,
3.541,-12.51,5.01,4.84,0.95,1.67,-0.22,
3.542,-12.51,5.01,4.84,1.01,1.78,-0.15,
3.546,-13.10,5.33,4.77,1.01,1.78,-0.15,
3.546,-13.10,5.33,4.77,1.06,1.89,-0.07,
3.55,-13.10,5.33,4.77,1.10,2.00,0.03,
3.552,-13.10,5.33,4.77,1.14,2.11,0.14,
3.553,-13.76,5.57,4.79,1.14,2.11,0.14,
3.555,-13.76,5.57,4.79,1.17,2.21,0.26,
3.557,-14.47,5.73,4.95,1.17,2.21,0.26,
3.557,-14.47,5.73,4.95,1.20,2.30,0.39,
3.559,-14.47,5.73,4.95,1.23,2.38,0.54,
3.56,-15.22,5.74,5.29,1.23,2.38,0.54,
3.56,-15.22,5.74,5.29,1.25,2.45,0.69,
3.562,-15.22,5.74,5.29,1.28,2.49,0.86,
3.565,-15.22,5.74,5.29,1.31,2.53,1.03,
3.566,-15.89,5.66,5.82,1.31,2.53,1.03,
3.567,-15.89,5.66,5.82,1.34,2.54,1.21,
3.57,-15.89,5.66,5.82,1.38,2.54,1.40,
3.571,-16.39,5.49,6.43,1.38,2.54,1.40,
3.574,-16.39,5.49,6.43,1.42,2.53,1.59,
3.575,-16.70,5.25,7.04,1.42,2.53,1.59,
3.576,-16.70,5.25,7.04,1.47,2.49,1.79,
3.577,-16.70,5.25,7.04,1.53,2.45,1.98,
3.58,-16.70,5.25,7.04,1.60,2.38,2.19,
3.58,-16.90,4.92,7.55,1.60,2.38,2.19,
3.585,-16.90,4.92,7.55,1.67,2.31,2.39,
3.587,-16.90,4.92,7.55,1.74,2.23,2.60,
3.587,-16.96,4.42,7.92,1.74,2.23,2.60,
3.588,-16.96,4.42,7.92,1.82,2.15,2.80,
3.591,-16.92,3.75,8.11,1.82,2.15,2.80,
3.592,-16.92,3.75,8.11,1.91,2.06,3.01,
3.595,-16.77,2.92,8.15,1.91,2.06,3.01,
3.596,-16.77,2.92,8.15,2.00,1.98,3.21,
3.596,-16.77,2.92,8.15,2.09,1.89,3.41,
3.599,-16.77,2.92,8.15,2.18,1.80,3.61,
3.607,-16.77,2.92,8.15,2.27,1.72,3.80,
3.613,-16.77,2.92,8.15,2.36,1.63,3.99,
3.613,-16.51,1.96,7.95,2.36,1.63,3.99,
3.614,-16.16,0.91,7.63,2.36,1.63,3.99,
3.615,-15.78,-0.20,7.17,2.36,1.63,3.99,
3.615,-15.78,-0.20,7.17,2.45,1.55,4.16,
3.616,-15.78,-0.20,7.17,2.54,1.47,4.34,
3.616,-15.78,-0.20,7.17,2.62,1.40,4.50,
3.616,-15.78,-0.20,7.17,2.69,1.34,4.66,
3.617,-15.43,-1.35,6.64,2.69,1.34,4.66,
3.618,-15.43,-1.35,6.64,2.77,1.28,4.81,
3.618,-15.43,-1.35,6.64,2.84,1.23,4.95,
3.62,-15.43,-1.35,6.64,2.90,1.19,5.09,
3.621,-15.12,-2.53,6.16,2.90,1.19,5.09,
3.622,-15.12,-2.53,6.16,2.96,1.16,5.21,
3.625,-14.76,-3.68,5.72,2.96,1.16,5.21,
3.647,-14.76,-3.68,5.72,3.02,1.13,5.34,
3.647,-14.76,-3.68,5.72,3.07,1.11,5.45,
3.648,-14.76,-3.68,5.72,3.12,1.09,5.55,
3.648,-14.32,-4.68,5.27,3.12,1.09,5.55,
3.648,-13.81,-5.55,4.84,3.12,1.09,5.55,
3.649,-13.81,-5.55,4.84,3.17,1.06,5.64,
3.649,-13.81,-5.55,4.84,3.20,1.04,5.73,
3.649,-13.81,-5.55,4.84,3.24,1.01,5.81,
3.65,-13.81,-5.55,4.84,3.26,0.99,5.88,
3.65,-13.81,-5.55,4.84,3.28,0.96,5.95,
3.65,-13.25,-6.31,4.44,3.28,0.96,5.95,
3.651,-13.25,-6.31,4.44,3.30,0.94,6.00,
3.651,-12.58,-6.91,3.97,3.30,0.94,6.00,
3.651,-12.58,-6.91,3.97,3.31,0.92,6.05,
3.652,-12.58,-6.91,3.97,3.31,0.89,6.09,
3.652,-11.87,-7.40,3.54,3.31,0.89,6.09,
3.656,-11.87,-7.40,3.54,3.30,0.88,6.12,
3.657,-11.87,-7.40,3.54,3.29,0.86,6.15,
3.657,-11.14,-7.80,3.09,3.29,0.86,6.15,
3.658,-11.14,-7.80,3.09,3.26,0.85,6.17,
3.659,-10.45,-8.12,2.64,3.26,0.85,6.17,
3.66,-10.45,-8.12,2.64,3.22,0.84,6.19,
3.663,-10.45,-8.12,2.64,3.18,0.83,6.21,
3.664,-9.89,-8.39,2.28,3.18,0.83,6.21,
3.664,-9.89,-8.39,2.28,3.12,0.83,6.23,
3.668,-9.89,-8.39,2.28,3.06,0.83,6.25,
3.67,-9.89,-8.39,2.28,2.99,0.82,6.28,
3.671,-9.42,-8.61,2.00,2.99,0.82,6.28,
3.671,-9.42,-8.61,2.00,2.91,0.82,6.30,
3.674,-9.00,-8.82,1.86,2.91,0.82,6.30,
3.674,-9.00,-8.82,1.86,2.83,0.80,6.32,
3.676,-9.00,-8.82,1.86,2.75,0.79,6.34,
3.681,-8.58,-9.07,1.83,2.75,0.79,6.34,
3.682,-8.58,-9.07,1.83,2.66,0.77,6.36,
3.682,-8.58,-9.07,1.83,2.58,0.74,6.38,
3.684,-8.58,-9.07,1.83,2.50,0.71,6.40,
3.685,-8.10,-9.32,1.91,2.50,0.71,6.40,
3.689,-8.10,-9.32,1.91,2.42,0.67,6.41,
3.689,-8.10,-9.32,1.91,2.34,0.63,6.43,
3.689,-7.58,-9.58,2.05,2.34,0.63,6.43,
3.691,-7.58,-9.58,2.05,2.27,0.58,6.44,
3.694,-7.58,-9.58,2.05,2.21,0.53,6.44,
3.694,-7.09,-9.83,2.18,2.21,0.53,6.44,
3.696,-7.09,-9.83,2.18,2.14,0.47,6.44,
3.699,-7.09,-9.83,2.18,2.09,0.41,6.44,
3.699,-6.64,-10.10,2.31,2.09,0.41,6.44,
3.702,-6.64,-10.10,2.31,2.04,0.35,6.44,
3.705,-6.64,-10.10,2.31,2.01,0.29,6.44,
3.706,-6.32,-10.36,2.46,2.01,0.29,6.44,
3.708,-6.32,-10.36,2.46,1.97,0.23,6.44,
3.709,-6.32,-10.36,2.46,1.95,0.16,6.43,
3.712,-6.32,-10.36,2.46,1.93,0.10,6.42,
3.713,-6.02,-10.64,2.52,1.93,0.10,6.42,
3.714,-6.02,-10.64,2.52,1.91,0.03,6.41,
3.714,-5.73,-10.87,2.53,1.91,0.03,6.41,
3.716,-5.73,-10.87,2.53,1.90,-0.04,6.40,
3.719,-5.73,-10.87,2.53,1.90,-0.10,6.39,
3.719,-5.39,-11.10,2.45,1.90,-0.10,6.39,
3.721,-5.39,-11.10,2.45,1.90,-0.16,6.37,
3.724,-5.05,-11.31,2.27,1.90,-0.16,6.37,
3.724,-5.05,-11.31,2.27,1.89,-0.23,6.36,
3.726,-5.05,-11.31,2.27,1.89,-0.29,6.34,
3.729,-5.05,-11.31,2.27,1.89,-0.34,6.32,
3.729,-4.62,-11.45,2.00,1.89,-0.34,6.32,
3.731,-4.62,-11.45,2.00,1.89,-0.40,6.30,
3.734,-4.62,-11.45,2.00,1.88,-0.44,6.27,
3.734,-4.14,-11.58,1.65,1.88,-0.44,6.27,
3.736,-4.14,-11.58,1.65,1.87,-0.48,6.25,
3.74,-3.62,-11.66,1.26,1.87,-0.48,6.25,
3.741,-3.62,-11.66,1.26,1.85,-0.52,6.22,
3.741,-3.62,-11.66,1.26,1.83,-0.55,6.20,
3.743,-3.62,-11.66,1.26,1.80,-0.57,6.17,
3.744,-3.11,-11.75,0.89,1.80,-0.57,6.17,
3.746,-3.11,-11.75,0.89,1.77,-0.59,6.14,
3.749,-3.11,-11.75,0.89,1.74,-0.60,6.11,
3.751,-2.61,-11.80,0.56,1.74,-0.60,6.11,
3.752,-2.61,-11.80,0.56,1.70,-0.62,6.08,
3.755,-2.61,-11.80,0.56,1.66,-0.62,6.05,
3.755,-2.13,-11.81,0.29,1.66,-0.62,6.05,
3.756,-2.13,-11.81,0.29,1.61,-0.63,6.03,
3.759,-2.13,-11.81,0.29,1.57,-0.63,5.99,
3.759,-1.67,-11.84,0.09,1.57,-0.63,5.99,
3.761,-1.67,-11.84,0.09,1.51,-0.63,5.96,
3.764,-1.67,-11.84,0.09,1.46,-0.64,5.93,
3.764,-1.23,-11.91,-0.07,1.46,-0.64,5.93,
3.771,-1.23,-11.91,-0.07,1.41,-0.64,5.90,
3.772,-1.23,-11.91,-0.07,1.36,-0.64,5.86,
3.772,-0.86,-11.97,-0.16,1.36,-0.64,5.86,
3.772,-0.86,-11.97,-0.16,1.30,-0.64,5.82,
3.773,-0.48,-12.05,-0.23,1.30,-0.64,5.82,
3.774,-0.48,-12.05,-0.23,1.25,-0.64,5.79,
3.776,-0.48,-12.05,-0.23,1.20,-0.64,5.75,
3.779,-0.10,-12.09,-0.23,1.20,-0.64,5.75,
3.78,-0.10,-12.09,-0.23,1.15,-0.64,5.71,
3.78,-0.10,-12.09,-0.23,1.10,-0.64,5.67,
3.783,-0.10,-12.09,-0.23,1.06,-0.63,5.63,
3.784,0.22,-12.17,-0.20,1.06,-0.63,5.63,
3.785,0.22,-12.17,-0.20,1.01,-0.63,5.59,
3.788,0.49,-12.26,-0.16,1.01,-0.63,5.59,
3.789,0.49,-12.26,-0.16,0.97,-0.62,5.55,
3.803,0.49,-12.26,-0.16,0.94,-0.61,5.51,
3.803,0.49,-12.26,-0.16,0.91,-0.61,5.46,
3.803,0.75,-12.36,-0.11,0.91,-0.61,5.46,
3.803,0.75,-12.36,-0.11,0.87,-0.60,5.42,
3.803,0.75,-12.36,-0.11,0.85,-0.60,5.38,
3.803,0.95,-12.49,-0.02,0.85,-0.60,5.38,
3.804,0.95,-12.49,-0.02,0.83,-0.59,5.34,
3.81,1.14,-12.63,0.08,0.83,-0.59,5.34,
3.811,1.14,-12.63,0.08,0.81,-0.58,5.30,
3.811,1.14,-12.63,0.08,0.80,-0.57,5.26,
3.811,1.27,-12.79,0.17,0.80,-0.57,5.26,
3.812,1.27,-12.79,0.17,0.80,-0.56,5.21,
3.812,1.27,-12.79,0.17,0.79,-0.55,5.17,
3.813,1.40,-12.97,0.25,0.79,-0.55,5.17,
3.813,1.40,-12.97,0.25,0.80,-0.54,5.12,
3.815,1.40,-12.97,0.25,0.80,-0.52,5.08,
3.819,1.40,-12.97,0.25,0.81,-0.51,5.03,
3.819,1.50,-13.14,0.30,0.81,-0.51,5.03,
3.821,1.50,-13.14,0.30,0.82,-0.50,4.99,
3.824,1.58,-13.27,0.31,0.82,-0.50,4.99,
3.825,1.58,-13.27,0.31,0.84,-0.48,4.94,
3.825,1.58,-13.27,0.31,0.86,-0.46,4.90,
3.828,1.69,-13.39,0.26,0.86,-0.46,4.90,
3.828,1.69,-13.39,0.26,0.87,-0.45,4.85,
3.83,1.69,-13.39,0.26,0.89,-0.42,4.81,
3.833,1.84,-13.49,0.26,0.89,-0.42,4.81,
3.833,1.84,-13.49,0.26,0.91,-0.40,4.77,
3.835,1.84,-13.49,0.26,0.93,-0.38,4.72,
3.838,1.84,-13.49,0.26,0.95,-0.35,4.68,
3.838,2.06,-13.57,0.19,0.95,-0.35,4.68,
3.84,2.06,-13.57,0.19,0.97,-0.32,4.63,
3.843,2.06,-13.57,0.19,0.99,-0.30,4.59,
3.843,2.30,-13.64,0.09,0.99,-0.30,4.59,
3.845,2.30,-13.64,0.09,1.01,-0.27,4.54,
3.848,2.30,-13.64,0.09,1.03,-0.24,4.50,
3.848,2.52,-13.69,-0.03,1.03,-0.24,4.50,
3.85,2.52,-13.69,-0.03,1.04,-0.21,4.45,
3.852,2.52,-13.69,-0.03,1.06,-0.18,4.40,
3.853,2.74,-13.79,-0.12,1.06,-0.18,4.40,
3.855,2.74,-13.79,-0.12,1.07,-0.14,4.35,
3.858,2.74,-13.79,-0.12,1.08,-0.11,4.30,
3.858,3.03,-13.90,-0.24,1.08,-0.11,4.30,
3.86,3.03,-13.90,-0.24,1.09,-0.08,4.24,
3.863,3.33,-13.99,-0.36,1.09,-0.08,4.24,
3.863,3.33,-13.99,-0.36,1.09,-0.05,4.18,
3.865,3.33,-13.99,-0.36,1.09,-0.02,4.11,
3.868,3.33,-13.99,-0.36,1.09,0.01,4.05,
3.868,3.66,-14.10,-0.44,1.09,0.01,4.05,
3.87,3.66,-14.10,-0.44,1.08,0.04,3.98,
3.872,4.02,-14.18,-0.53,1.08,0.04,3.98,
3.873,4.02,-14.18,-0.53,1.07,0.07,3.90,
3.875,4.02,-14.18,-0.53,1.06,0.09,3.82,
3.877,4.02,-14.18,-0.53,1.05,0.12,3.74,
3.878,4.36,-14.18,-0.60,1.05,0.12,3.74,
3.88,4.36,-14.18,-0.60,1.04,0.14,3.66,
3.882,4.36,-14.18,-0.60,1.02,0.17,3.57,
3.882,4.73,-14.18,-0.67,1.02,0.17,3.57,
3.886,4.73,-14.18,-0.67,1.00,0.20,3.48,
3.89,4.73,-14.18,-0.67,0.99,0.22,3.39,
3.89,5.07,-14.15,-0.73,0.99,0.22,3.39,
3.89,5.07,-14.15,-0.73,0.97,0.25,3.30,
3.892,5.45,-14.08,-0.76,0.97,0.25,3.30,
3.892,5.45,-14.08,-0.76,0.94,0.28,3.20,
3.894,5.45,-14.08,-0.76,0.92,0.31,3.10,
3.897,5.45,-14.08,-0.76,0.89,0.35,3.01,
3.897,5.75,-14.03,-0.83,0.89,0.35,3.01,
3.899,5.75,-14.03,-0.83,0.87,0.38,2.90,
3.902,6.02,-13.92,-0.82,0.87,0.38,2.90,
3.903,6.02,-13.92,-0.82,0.84,0.41,2.80,
3.908,6.02,-13.92,-0.82,0.81,0.44,2.70,
3.912,6.24,-13.85,-0.81,0.81,0.44,2.70,
3.912,6.24,-13.85,-0.81,0.78,0.48,2.59,
3.912,6.24,-13.85,-0.81,0.75,0.51,2.49,
3.913,6.24,-13.85,-0.81,0.72,0.54,2.38,
3.913,6.40,-13.77,-0.76,0.72,0.54,2.38,
3.914,6.40,-13.77,-0.76,0.69,0.57,2.27,
3.917,6.40,-13.77,-0.76,0.66,0.60,2.16,
3.917,6.49,-13.77,-0.68,0.66,0.60,2.16,
3.92,6.49,-13.77,-0.68,0.64,0.63,2.05,
3.922,6.49,-13.77,-0.68,0.61,0.66,1.94,
3.923,6.54,-13.74,-0.58,0.61,0.66,1.94,
3.925,6.54,-13.74,-0.58,0.59,0.68,1.82,
3.927,6.59,-13.78,-0.49,0.59,0.68,1.82,
3.927,6.59,-13.78,-0.49,0.56,0.71,1.70,
3.929,6.59,-13.78,-0.49,0.54,0.73,1.59,
3.932,6.61,-13.77,-0.37,0.54,0.73,1.59,
3.932,6.61,-13.77,-0.37,0.52,0.75,1.47,
3.934,6.61,-13.77,-0.37,0.50,0.76,1.35,
3.937,6.61,-13.77,-0.37,0.48,0.77,1.22,
3.938,6.62,-13.76,-0.27,0.48,0.77,1.22,
3.942,6.62,-13.76,-0.27,0.46,0.78,1.10,
3.943,6.63,-13.72,-0.21,0.46,0.78,1.10,
3.943,6.63,-13.72,-0.21,0.45,0.78,0.98,
3.944,6.63,-13.72,-0.21,0.43,0.79,0.85,
3.947,6.63,-13.72,-0.21,0.42,0.79,0.73,
3.947,6.63,-13.64,-0.16,0.42,0.79,0.73,
3.949,6.63,-13.64,-0.16,0.40,0.80,0.60,
3.952,6.63,-13.64,-0.16,0.39,0.80,0.48,
3.952,6.64,-13.59,-0.16,0.39,0.80,0.48,
3.954,6.64,-13.59,-0.16,0.38,0.81,0.36,
3.966,6.62,-13.51,-0.15,0.38,0.81,0.36,
3.966,6.62,-13.51,-0.15,0.36,0.81,0.24,
3.966,6.62,-13.51,-0.15,0.35,0.82,0.11,
3.966,6.62,-13.51,-0.15,0.33,0.83,-0.01,
3.966,6.62,-13.45,-0.19,0.33,0.83,-0.01,
3.967,6.62,-13.45,-0.19,0.32,0.83,-0.13,
3.967,6.58,-13.42,-0.24,0.32,0.83,-0.13,
3.967,6.58,-13.42,-0.24,0.30,0.84,-0.25,
3.973,6.58,-13.42,-0.24,0.28,0.85,-0.37,
3.973,6.52,-13.44,-0.26,0.28,0.85,-0.37,
3.974,6.52,-13.44,-0.26,0.26,0.85,-0.50,
3.974,6.52,-13.44,-0.26,0.24,0.86,-0.62,
3.978,6.46,-13.52,-0.29,0.24,0.86,-0.62,
3.983,6.46,-13.52,-0.29,0.22,0.86,-0.75,
3.983,6.46,-13.52,-0.29,0.19,0.86,-0.88,
3.983,6.46,-13.52,-0.29,0.15,0.86,-1.01,
3.984,6.43,-13.55,-0.33,0.15,0.86,-1.01,
3.984,6.43,-13.55,-0.33,0.12,0.87,-1.14,
3.987,6.43,-13.55,-0.33,0.08,0.87,-1.27,
3.987,6.43,-13.56,-0.37,0.08,0.87,-1.27,
3.991,6.43,-13.56,-0.37,0.04,0.87,-1.41,
3.992,6.37,-13.59,-0.44,0.04,0.87,-1.41,
3.992,6.37,-13.59,-0.44,0.00,0.88,-1.54,
3.994,6.37,-13.59,-0.44,-0.04,0.89,-1.68,
3.996,6.37,-13.59,-0.44,-0.09,0.89,-1.81,
3.997,6.21,-13.60,-0.46,-0.09,0.89,-1.81,
3.999,6.21,-13.60,-0.46,-0.14,0.90,-1.94,
4.001,6.21,-13.60,-0.46,-0.19,0.91,-2.08,
4.001,5.99,-13.63,-0.44,-0.19,0.91,-2.08,
4.004,5.99,-13.63,-0.44,-0.25,0.91,-2.21,
4.007,5.76,-13.59,-0.38,-0.25,0.91,-2.21,
4.007,5.76,-13.59,-0.38,-0.31,0.91,-2.34,
4.009,5.76,-13.59,-0.38,-0.37,0.92,-2.46,
4.011,5.51,-13.56,-0.32,-0.37,0.92,-2.46,
4.012,5.51,-13.56,-0.32,-0.43,0.92,-2.59,
4.013,5.51,-13.56,-0.32,-0.49,0.92,-2.72,
4.016,5.51,-13.56,-0.32,-0.55,0.91,-2.84,
4.016,5.23,-13.51,-0.18,-0.55,0.91,-2.84,
4.018,5.23,-13.51,-0.18,-0.61,0.91,-2.96,
4.023,4.99,-13.44,-0.02,-0.61,0.91,-2.96,
4.023,4.99,-13.44,-0.02,-0.67,0.90,-3.08,
4.024,4.99,-13.44,-0.02,-0.73,0.90,-3.20,
4.026,4.99,-13.44,-0.02,-0.79,0.89,-3.32,
4.027,4.74,-13.36,0.17,-0.79,0.89,-3.32,
4.028,4.74,-13.36,0.17,-0.85,0.87,-3.43,
4.031,4.74,-13.36,0.17,-0.90,0.86,-3.55,
4.031,4.52,-13.28,0.34,-0.90,0.86,-3.55,
4.033,4.52,-13.28,0.34,-0.96,0.84,-3.67,
4.036,4.52,-13.28,0.34,-1.01,0.82,-3.79,
4.036,4.22,-13.21,0.54,-1.01,0.82,-3.79,
4.04,4.22,-13.21,0.54,-1.05,0.80,-3.90,
4.041,4.22,-13.21,0.54,-1.10,0.78,-4.02,
4.041,3.93,-13.13,0.75,-1.10,0.78,-4.02,
4.043,3.93,-13.13,0.75,-1.14,0.76,-4.13,
4.046,3.93,-13.13,0.75,-1.18,0.74,-4.25,
4.046,3.56,-13.09,0.96,-1.18,0.74,-4.25,
4.048,3.56,-13.09,0.96,-1.21,0.72,-4.36,
4.051,3.56,-13.09,0.96,-1.24,0.69,-4.48,
4.051,3.14,-13.04,1.16,-1.24,0.69,-4.48,
4.053,3.14,-13.04,1.16,-1.27,0.66,-4.59,
4.057,2.59,-13.00,1.30,-1.27,0.66,-4.59,
4.058,2.59,-13.00,1.30,-1.29,0.64,-4.70,
4.058,2.59,-13.00,1.30,-1.31,0.61,-4.81,
4.061,2.59,-13.00,1.30,-1.32,0.58,-4.92,
4.061,1.91,-12.99,1.42,-1.32,0.58,-4.92,
4.063,1.91,-12.99,1.42,-1.34,0.55,-5.02,
4.066,1.91,-12.99,1.42,-1.34,0.51,-5.12,
4.066,1.20,-13.02,1.54,-1.34,0.51,-5.12,
4.068,1.20,-13.02,1.54,-1.35,0.48,-5.22,
4.071,1.20,-13.02,1.54,-1.36,0.44,-5.31,
4.071,0.56,-12.91,1.59,-1.36,0.44,-5.31,
4.074,0.56,-12.91,1.59,-1.36,0.39,-5.40,
4.076,-0.11,-12.71,1.60,-1.36,0.39,-5.40,
4.076,-0.11,-12.71,1.60,-1.36,0.35,-5.48,
4.078,-0.11,-12.71,1.60,-1.37,0.30,-5.55,
4.081,-0.11,-12.71,1.60,-1.37,0.26,-5.61,
4.081,-0.77,-12.49,1.52,-1.37,0.26,-5.61,
4.083,-0.77,-12.49,1.52,-1.38,0.21,-5.67,
4.086,-0.77,-12.49,1.52,-1.39,0.17,-5.72,
4.086,-1.41,-12.31,1.39,-1.39,0.17,-5.72,
4.092,-1.41,-12.31,1.39,-1.41,0.13,-5.76,
4.092,-2.01,-12.15,1.24,-1.41,0.13,-5.76,
4.097,-2.01,-12.15,1.24,-1.43,0.10,-5.79,
4.097,-2.01,-12.15,1.24,-1.45,0.07,-5.82,
4.097,-2.01,-12.15,1.24,-1.48,0.03,-5.85,
4.097,-2.50,-11.99,1.13,-1.48,0.03,-5.85,
4.099,-2.50,-11.99,1.13,-1.51,0.01,-5.87,
4.101,-2.50,-11.99,1.13,-1.53,-0.01,-5.88,
4.101,-2.92,-11.84,1.05,-1.53,-0.01,-5.88,
4.103,-2.92,-11.84,1.05,-1.57,-0.03,-5.90,
4.106,-2.92,-11.84,1.05,-1.60,-0.05,-5.91,
4.106,-3.30,-11.70,1.02,-1.60,-0.05,-5.91,
4.11,-3.30,-11.70,1.02,-1.63,-0.06,-5.92,
4.111,-3.71,-11.61,1.03,-1.63,-0.06,-5.92,
4.111,-3.71,-11.61,1.03,-1.66,-0.07,-5.93,
4.113,-3.71,-11.61,1.03,-1.68,-0.08,-5.94,
4.115,-3.71,-11.61,1.03,-1.71,-0.09,-5.95,
4.116,-4.07,-11.56,1.11,-1.71,-0.09,-5.95,
4.118,-4.07,-11.56,1.11,-1.73,-0.10,-5.96,
4.12,-4.07,-11.56,1.11,-1.75,-0.10,-5.97,
4.133,-4.41,-11.52,1.17,-1.75,-0.10,-5.97,
4.133,-4.41,-11.52,1.17,-1.77,-0.11,-5.97,
4.133,-4.71,-11.49,1.27,-1.77,-0.11,-5.97,
4.133,-4.71,-11.49,1.27,-1.78,-0.11,-5.98,
4.133,-4.71,-11.49,1.27,-1.79,-0.12,-6.00,
4.135,-5.00,-11.43,1.37,-1.79,-0.12,-6.00,
4.136,-5.36,-11.38,1.45,-1.79,-0.12,-6.00,
4.142,-5.36,-11.38,1.45,-1.81,-0.12,-6.01,
4.142,-5.36,-11.38,1.45,-1.82,-0.12,-6.02,
4.143,-5.36,-11.38,1.45,-1.82,-0.12,-6.03,
4.143,-5.36,-11.38,1.45,-1.83,-0.12,-6.05,
4.143,-5.70,-11.32,1.53,-1.83,-0.12,-6.05,
4.143,-5.70,-11.32,1.53,-1.83,-0.12,-6.06,
4.143,-5.70,-11.32,1.53,-1.84,-0.12,-6.08,
4.146,-5.70,-11.32,1.53,-1.84,-0.12,-6.09,
4.146,-6.08,-11.21,1.60,-1.84,-0.12,-6.09,
4.149,-6.08,-11.21,1.60,-1.84,-0.12,-6.10,
4.15,-6.08,-11.21,1.60,-1.84,-0.12,-6.11,
4.151,-6.49,-11.09,1.69,-1.84,-0.12,-6.11,
4.153,-6.49,-11.09,1.69,-1.84,-0.12,-6.13,
4.157,-6.49,-11.09,1.69,-1.84,-0.13,-6.14,
4.157,-6.80,-10.94,1.81,-1.84,-0.13,-6.14,
4.158,-6.80,-10.94,1.81,-1.83,-0.13,-6.15,
4.161,-7.02,-10.68,1.93,-1.83,-0.13,-6.15,
4.161,-7.02,-10.68,1.93,-1.82,-0.15,-6.16,
4.162,-7.02,-10.68,1.93,-1.82,-0.15,-6.17,
4.166,-7.02,-10.68,1.93,-1.81,-0.16,-6.19,
4.166,-7.20,-10.38,2.03,-1.81,-0.16,-6.19,
4.167,-7.20,-10.38,2.03,-1.80,-0.17,-6.20,
4.17,-7.36,-10.03,2.14,-1.80,-0.17,-6.20,
4.17,-7.36,-10.03,2.14,-1.79,-0.18,-6.21,
4.174,-7.36,-10.03,2.14,-1.78,-0.19,-6.22,
4.175,-7.51,-9.70,2.24,-1.78,-0.19,-6.22,
4.175,-7.51,-9.70,2.24,-1.77,-0.19,-6.24,
4.177,-7.51,-9.70,2.24,-1.76,-0.19,-6.25,
4.18,-7.61,-9.37,2.35,-1.76,-0.19,-6.25,
4.18,-7.61,-9.37,2.35,-1.76,-0.20,-6.26,
4.182,-7.61,-9.37,2.35,-1.75,-0.20,-6.27,
4.185,-7.74,-9.05,2.53,-1.75,-0.20,-6.27,
4.185,-7.74,-9.05,2.53,-1.74,-0.21,-6.29,
4.187,-7.74,-9.05,2.53,-1.73,-0.22,-6.30,
4.19,-7.91,-8.84,2.83,-1.73,-0.22,-6.30,
4.19,-7.91,-8.84,2.83,-1.72,-0.23,-6.32,
4.196,-7.91,-8.84,2.83,-1.71,-0.25,-6.33,
4.196,-7.91,-8.84,2.83,-1.70,-0.28,-6.36,
4.196,-8.03,-8.65,3.24,-1.70,-0.28,-6.36,
4.201,-8.03,-8.65,3.24,-1.68,-0.32,-6.39,
4.201,-8.03,-8.65,3.24,-1.66,-0.36,-6.42,
4.201,-8.07,-8.45,3.69,-1.66,-0.36,-6.42,
4.203,-8.07,-8.45,3.69,-1.64,-0.41,-6.46,
4.206,-8.07,-8.45,3.69,-1.62,-0.46,-6.50,
4.206,-8.06,-8.05,4.06,-1.62,-0.46,-6.50,
4.209,-8.06,-8.05,4.06,-1.60,-0.52,-6.55,
4.21,-8.09,-7.53,4.41,-1.60,-0.52,-6.55,
4.21,-8.09,-7.53,4.41,-1.57,-0.57,-6.59,
4.212,-8.09,-7.53,4.41,-1.54,-0.64,-6.64,
4.215,-8.10,-7.04,4.70,-1.54,-0.64,-6.64,
4.215,-8.10,-7.04,4.70,-1.51,-0.72,-6.68,
4.217,-8.10,-7.04,4.70,-1.48,-0.80,-6.73,
4.22,-8.10,-7.04,4.70,-1.46,-0.89,-6.77,
4.22,-8.13,-6.52,4.88,-1.46,-0.89,-6.77,
4.222,-8.13,-6.52,4.88,-1.44,-0.97,-6.82,
4.225,-8.13,-6.52,4.88,-1.42,-1.06,-6.86,
4.225,-8.25,-5.91,4.95,-1.42,-1.06,-6.86,
4.227,-8.25,-5.91,4.95,-1.42,-1.15,-6.89,
4.229,-8.25,-5.91,4.95,-1.41,-1.24,-6.92,
4.23,-8.44,-5.29,4.91,-1.41,-1.24,-6.92,
4.232,-8.44,-5.29,4.91,-1.42,-1.32,-6.94,
4.234,-8.44,-5.29,4.91,-1.42,-1.40,-6.96,
4.235,-8.77,-4.64,4.80,-1.42,-1.40,-6.96,
4.237,-8.77,-4.64,4.80,-1.44,-1.47,-6.97,
4.239,-8.77,-4.64,4.80,-1.45,-1.55,-6.97,
4.24,-9.20,-3.99,4.69,-1.45,-1.55,-6.97,
4.242,-9.20,-3.99,4.69,-1.47,-1.61,-6.96,
4.244,-9.20,-3.99,4.69,-1.50,-1.67,-6.94,
4.245,-9.65,-3.34,4.63,-1.50,-1.67,-6.94,
4.247,-9.65,-3.34,4.63,-1.51,-1.74,-6.91,
4.249,-9.65,-3.34,4.63,-1.53,-1.79,-6.88,
4.249,-10.09,-2.68,4.65,-1.53,-1.79,-6.88,
4.252,-10.09,-2.68,4.65,-1.54,-1.85,-6.85,
4.254,-10.09,-2.68,4.65,-1.55,-1.89,-6.80,
4.255,-10.49,-2.01,4.72,-1.55,-1.89,-6.80,
4.257,-10.49,-2.01,4.72,-1.55,-1.94,-6.75,
4.261,-10.86,-1.37,4.79,-1.55,-1.94,-6.75,
4.261,-10.86,-1.37,4.79,-1.55,-1.97,-6.69,
4.261,-10.86,-1.37,4.79,-1.54,-2.00,-6.63,
4.264,-10.86,-1.37,4.79,-1.53,-2.03,-6.56,
4.265,-11.36,-0.77,4.87,-1.53,-2.03,-6.56,
4.268,-11.36,-0.77,4.87,-1.51,-2.04,-6.48,
4.27,-11.36,-0.77,4.87,-1.48,-2.05,-6.40,
4.27,-11.98,-0.08,4.88,-1.48,-2.05,-6.40,
4.273,-11.98,-0.08,4.88,-1.45,-2.05,-6.31,
4.275,-11.98,-0.08,4.88,-1.40,-2.03,-6.21,
4.275,-12.54,0.71,4.95,-1.40,-2.03,-6.21,
4.276,-12.54,0.71,4.95,-1.35,-2.00,-6.11,
4.279,-12.54,0.71,4.95,-1.28,-1.96,-6.00,
4.279,-12.98,1.60,5.02,-1.28,-1.96,-6.00,
4.282,-12.98,1.60,5.02,-1.20,-1.91,-5.89,
4.285,-13.38,2.54,5.11,-1.20,-1.91,-5.89,
4.285,-13.38,2.54,5.11,-1.12,-1.85,-5.77,
4.298,-13.38,2.54,5.11,-1.02,-1.78,-5.64,
4.298,-13.72,3.53,5.19,-1.02,-1.78,-5.64,
4.298,-13.72,3.53,5.19,-0.91,-1.70,-5.51,
4.299,-13.72,3.53,5.19,-0.79,-1.61,-5.37,
4.299,-13.72,3.53,5.19,-0.67,-1.51,-5.21,
4.299,-13.95,4.50,5.16,-0.67,-1.51,-5.21,
4.299,-13.95,4.50,5.16,-0.54,-1.41,-5.05,
4.3,-13.95,4.50,5.16,-0.41,-1.31,-4.88,
4.3,-14.06,5.46,5.04,-0.41,-1.31,-4.88,
4.303,-14.06,5.46,5.04,-0.28,-1.19,-4.70,
4.306,-14.07,6.35,4.86,-0.28,-1.19,-4.70,
4.307,-14.07,6.35,4.86,-0.14,-1.07,-4.52,
4.307,-14.07,6.35,4.86,-0.01,-0.95,-4.33,
4.313,-14.02,7.12,4.61,-0.01,-0.95,-4.33,
4.314,-14.02,7.12,4.61,0.12,-0.83,-4.14,
4.314,-14.02,7.12,4.61,0.24,-0.71,-3.93,
4.314,-14.02,7.12,4.61,0.36,-0.59,-3.72,
4.314,-13.90,7.77,4.24,0.36,-0.59,-3.72,
4.317,-13.90,7.77,4.24,0.47,-0.47,-3.52,
4.319,-13.72,8.26,3.84,0.47,-0.47,-3.52,
4.32,-13.72,8.26,3.84,0.57,-0.35,-3.30,
4.323,-13.72,8.26,3.84,0.66,-0.24,-3.08,
4.324,-13.46,8.50,3.43,0.66,-0.24,-3.08,
4.325,-13.46,8.50,3.43,0.74,-0.13,-2.86,
4.33,-13.05,8.56,3.11,0.74,-0.13,-2.86,
4.33,-13.05,8.56,3.11,0.80,-0.04,-2.64,
4.331,-13.05,8.56,3.11,0.86,0.05,-2.43,
4.331,-13.05,8.56,3.11,0.90,0.12,-2.21,
4.334,-13.05,8.56,3.11,0.93,0.18,-2.01,
4.334,-12.52,8.46,2.81,0.93,0.18,-2.01,
4.336,-12.52,8.46,2.81,0.96,0.23,-1.81,
4.339,-12.52,8.46,2.81,0.97,0.26,-1.62,
4.339,-12.00,8.24,2.58,0.97,0.26,-1.62,
4.341,-12.00,8.24,2.58,0.98,0.29,-1.45,
4.344,-12.00,8.24,2.58,0.97,0.31,-1.28,
4.345,-11.50,7.98,2.33,0.97,0.31,-1.28,
4.346,-11.50,7.98,2.33,0.96,0.32,-1.12,
4.348,-11.50,7.98,2.33,0.94,0.32,-0.96,
4.349,-11.07,7.63,2.07,0.94,0.32,-0.96,
4.351,-11.07,7.63,2.07,0.91,0.32,-0.81,
4.354,-11.07,7.63,2.07,0.88,0.30,-0.67,
4.354,-10.67,7.26,1.83,0.88,0.30,-0.67,
4.357,-10.67,7.26,1.83,0.83,0.27,-0.53,
4.359,-10.67,7.26,1.83,0.78,0.23,-0.40,
4.36,-10.33,6.86,1.57,0.78,0.23,-0.40,
4.361,-10.33,6.86,1.57,0.73,0.19,-0.28,
4.364,-10.33,6.86,1.57,0.66,0.13,-0.16,
4.364,-10.02,6.47,1.31,0.66,0.13,-0.16,
4.366,-10.02,6.47,1.31,0.60,0.07,-0.04,
4.373,-10.02,6.47,1.31,0.53,0.01,0.06,
4.373,-10.02,6.47,1.31,0.45,-0.07,0.16,
4.374,-9.75,6.04,1.13,0.45,-0.07,0.16,
4.374,-9.75,6.04,1.13,0.37,-0.15,0.26,
4.374,-9.51,5.59,0.99,0.37,-0.15,0.26,
4.376,-9.51,5.59,0.99,0.29,-0.24,0.35,
4.38,-9.23,5.26,0.89,0.29,-0.24,0.35,
4.38,-9.23,5.26,0.89,0.21,-0.33,0.42,
4.38,-9.23,5.26,0.89,0.13,-0.44,0.49,
4.384,-9.23,5.26,0.89,0.04,-0.55,0.55,
4.384,-8.87,4.94,0.79,0.04,-0.55,0.55,
4.387,-8.87,4.94,0.79,-0.05,-0.67,0.60,
4.388,-8.53,4.68,0.67,-0.05,-0.67,0.60,
4.388,-8.53,4.68,0.67,-0.14,-0.79,0.65,
4.391,-8.53,4.68,0.67,-0.24,-0.92,0.69,
4.396,-8.53,4.68,0.67,-0.34,-1.04,0.72,
4.396,-8.53,4.68,0.67,-0.43,-1.18,0.74,
4.397,-8.17,4.47,0.52,-0.43,-1.18,0.74,
4.402,-8.17,4.47,0.52,-0.53,-1.31,0.76,
4.402,-7.79,4.31,0.34,-0.53,-1.31,0.76,
4.402,-7.79,4.31,0.34,-0.64,-1.45,0.77,
4.404,-7.79,4.31,0.34,-0.74,-1.58,0.78,
4.409,-7.36,4.18,0.14,-0.74,-1.58,0.78,
4.41,-6.88,4.14,-0.03,-0.74,-1.58,0.78,
4.41,-6.88,4.14,-0.03,-0.85,-1.71,0.78,
4.41,-6.88,4.14,-0.03,-0.96,-1.84,0.78,
4.411,-6.88,4.14,-0.03,-1.07,-1.97,0.78,
4.414,-6.88,4.14,-0.03,-1.18,-2.10,0.78,
4.414,-6.41,4.10,-0.22,-1.18,-2.10,0.78,
4.416,-6.41,4.10,-0.22,-1.29,-2.21,0.77,
4.418,-5.98,4.09,-0.32,-1.29,-2.21,0.77,
4.418,-5.98,4.09,-0.32,-1.40,-2.32,0.76,
4.422,-5.98,4.09,-0.32,-1.51,-2.42,0.74,
4.423,-5.52,4.16,-0.35,-1.51,-2.42,0.74,
4.423,-5.52,4.16,-0.35,-1.61,-2.51,0.72,
4.425,-5.52,4.16,-0.35,-1.70,-2.59,0.70,
4.428,-5.52,4.16,-0.35,-1.79,-2.66,0.68,
4.429,-5.06,4.22,-0.33,-1.79,-2.66,0.68,
4.43,-5.06,4.22,-0.33,-1.88,-2.72,0.65,
4.433,-5.06,4.22,-0.33,-1.96,-2.76,0.61,
4.433,-4.65,4.26,-0.24,-1.96,-2.76,0.61,
4.435,-4.65,4.26,-0.24,-2.03,-2.80,0.58,
4.438,-4.65,4.26,-0.24,-2.09,-2.83,0.54,
4.438,-4.28,4.31,-0.13,-2.09,-2.83,0.54,
4.44,-4.28,4.31,-0.13,-2.15,-2.85,0.50,
4.443,-4.28,4.31,-0.13,-2.20,-2.87,0.46,
4.444,-4.01,4.33,0.01,-2.20,-2.87,0.46,
4.445,-4.01,4.33,0.01,-2.24,-2.87,0.41,
4.448,-4.01,4.33,0.01,-2.28,-2.87,0.36,
4.448,-3.82,4.32,0.18,-2.28,-2.87,0.36,
4.45,-3.82,4.32,0.18,-2.31,-2.85,0.31,
4.467,-3.82,4.32,0.18,-2.34,-2.83,0.26,
4.467,-3.82,4.32,0.18,-2.35,-2.80,0.20,
4.468,-3.71,4.29,0.36,-2.35,-2.80,0.20,
4.468,-3.65,4.26,0.57,-2.35,-2.80,0.20,
4.468,-3.65,4.26,0.57,-2.36,-2.77,0.15,
4.468,-3.65,4.26,0.57,-2.36,-2.72,0.10,
4.469,-3.65,4.26,0.57,-2.36,-2.66,0.04,
4.469,-3.63,4.28,0.80,-2.36,-2.66,0.04,
4.469,-3.63,4.28,0.80,-2.35,-2.59,-0.02,
4.47,-3.63,4.28,0.80,-2.33,-2.51,-0.07,
4.471,-3.71,4.30,1.02,-2.33,-2.51,-0.07,
4.471,-3.71,4.30,1.02,-2.30,-2.43,-0.13,
4.476,-3.71,4.30,1.02,-2.27,-2.34,-0.18,
4.485,-3.86,4.40,1.35,-2.27,-2.34,-0.18,
4.485,-3.86,4.40,1.35,-2.23,-2.25,-0.23,
4.485,-3.86,4.40,1.35,-2.18,-2.15,-0.28,
4.485,-3.86,4.40,1.35,-2.12,-2.04,-0.33,
4.486,-4.06,4.54,1.72,-2.12,-2.04,-0.33,
4.491,-4.34,4.64,1.98,-2.12,-2.04,-0.33,
4.491,-4.34,4.64,1.98,-2.06,-1.93,-0.38,
4.492,-4.34,4.64,1.98,-2.00,-1.82,-0.43,
4.492,-4.34,4.64,1.98,-1.93,-1.71,-0.48,
4.492,-4.79,4.74,2.23,-1.93,-1.71,-0.48,
4.492,-4.79,4.74,2.23,-1.86,-1.60,-0.52,
4.492,-4.79,4.74,2.23,-1.79,-1.49,-0.56,
4.492,-5.31,4.81,2.42,-1.79,-1.49,-0.56,
4.5,-5.31,4.81,2.42,-1.72,-1.37,-0.59,
4.5,-5.31,4.81,2.42,-1.64,-1.26,-0.62,
4.501,-5.84,4.90,2.54,-1.64,-1.26,-0.62,
4.505,-5.84,4.90,2.54,-1.57,-1.15,-0.64,
4.505,-5.84,4.90,2.54,-1.50,-1.04,-0.66,
4.505,-6.41,4.99,2.62,-1.50,-1.04,-0.66,
4.507,-6.41,4.99,2.62,-1.42,-0.92,-0.68,
4.508,-6.41,4.99,2.62,-1.34,-0.81,-0.69,
4.508,-7.05,5.09,2.73,-1.34,-0.81,-0.69,
4.51,-7.05,5.09,2.73,-1.27,-0.69,-0.69,
4.515,-7.05,5.09,2.73,-1.19,-0.57,-0.70,
4.516,-7.67,5.25,2.81,-1.19,-0.57,-0.70,
4.516,-7.67,5.25,2.81,-1.11,-0.44,-0.70,
4.521,-7.67,5.25,2.81,-1.03,-0.32,-0.69,
4.521,-8.31,5.43,2.88,-1.03,-0.32,-0.69,
4.521,-8.31,5.43,2.88,-0.95,-0.19,-0.68,
4.523,-8.31,5.43,2.88,-0.87,-0.06,-0.67,
4.523,-8.98,5.60,2.93,-0.87,-0.06,-0.67,
4.525,-8.98,5.60,2.93,-0.78,0.07,-0.66,
4.527,-8.98,5.60,2.93,-0.70,0.20,-0.64,
4.528,-9.65,5.73,2.94,-0.70,0.20,-0.64,
4.53,-9.65,5.73,2.94,-0.62,0.33,-0.62,
4.532,-9.65,5.73,2.94,-0.55,0.46,-0.59,
4.533,-10.29,5.83,2.97,-0.55,0.46,-0.59,
4.535,-10.29,5.83,2.97,-0.47,0.60,-0.55,
4.537,-10.88,5.88,3.00,-0.47,0.60,-0.55,
4.538,-10.88,5.88,3.00,-0.39,0.74,-0.51,
4.54,-10.88,5.88,3.00,-0.32,0.87,-0.47,
4.692,-11.48,5.86,3.10,-0.32,0.87,-0.47,
4.693,-11.48,5.86,3.10,-0.25,1.01,-0.42,
4.693,-12.07,5.79,3.31,-0.25,1.01,-0.42,
4.694,-12.07,5.79,3.31,-0.18,1.15,-0.36,
4.694,-12.07,5.79,3.31,-0.11,1.28,-0.31,
4.694,-12.07,5.79,3.31,-0.04,1.42,-0.25,
4.694,-12.07,5.79,3.31,0.03,1.55,-0.19,
4.694,-12.68,5.62,3.56,0.03,1.55,-0.19,
4.694,-12.68,5.62,3.56,0.10,1.67,-0.14,
4.695,-12.68,5.62,3.56,0.17,1.79,-0.08,
4.695,-13.29,5.45,3.86,0.17,1.79,-0.08,
4.695,-13.29,5.45,3.86,0.24,1.89,-0.02,
4.695,-13.29,5.45,3.86,0.31,1.99,0.05,
4.695,-13.90,5.30,4.22,0.31,1.99,0.05,
4.695,-13.90,5.30,4.22,0.38,2.08,0.11,
4.695,-13.90,5.30,4.22,0.45,2.16,0.18,
4.696,-14.49,5.25,4.58,0.45,2.16,0.18,
4.696,-14.49,5.25,4.58,0.52,2.23,0.25,
4.696,-15.08,5.29,4.98,0.52,2.23,0.25,
4.696,-15.08,5.29,4.98,0.59,2.28,0.32,
4.696,-15.08,5.29,4.98,0.67,2.32,0.40,
4.696,-15.08,5.29,4.98,0.74,2.35,0.49,
4.697,-15.62,5.41,5.29,0.74,2.35,0.49,
4.697,-15.62,5.41,5.29,0.81,2.37,0.59,
4.697,-15.62,5.41,5.29,0.88,2.37,0.70,
4.697,-16.11,5.59,5.50,0.88,2.37,0.70,
4.697,-16.11,5.59,5.50,0.94,2.36,0.81,
4.697,-16.52,5.73,5.65,0.94,2.36,0.81,
4.698,-16.52,5.73,5.65,1.00,2.34,0.94,
4.698,-16.52,5.73,5.65,1.06,2.31,1.08,
4.698,-16.52,5.73,5.65,1.11,2.28,1.24,
4.698,-16.78,5.75,5.75,1.11,2.28,1.24,
4.698,-16.78,5.75,5.75,1.15,2.23,1.40,
4.698,-16.93,5.71,5.84,1.15,2.23,1.40,
4.699,-16.93,5.71,5.84,1.20,2.18,1.58,
4.699,-16.93,5.71,5.84,1.24,2.13,1.77,
4.699,-16.93,5.71,5.84,1.28,2.08,1.96,
4.699,-16.95,5.49,5.94,1.28,2.08,1.96,
4.699,-16.95,5.49,5.94,1.32,2.02,2.17,
4.699,-16.95,5.49,5.94,1.37,1.97,2.38,
4.7,-16.79,5.14,6.05,1.37,1.97,2.38,
4.7,-16.79,5.14,6.05,1.42,1.91,2.59,
4.7,-16.79,5.14,6.05,1.47,1.84,2.80,
4.7,-16.53,4.64,6.25,1.47,1.84,2.80,
4.7,-16.53,4.64,6.25,1.53,1.78,3.01,
4.7,-16.53,4.64,6.25,1.59,1.71,3.21,
4.714,-16.12,3.95,6.38,1.59,1.71,3.21,
4.715,-16.12,3.95,6.38,1.66,1.64,3.42,
4.715,-16.12,3.95,6.38,1.74,1.57,3.61,
4.716,-15.59,3.14,6.51,1.74,1.57,3.61,
4.716,-15.59,3.14,6.51,1.82,1.49,3.79,
4.716,-15.59,3.14,6.51,1.91,1.42,3.97,
4.716,-15.03,2.18,6.49,1.91,1.42,3.97,
4.717,-15.03,2.18,6.49,2.00,1.35,4.13,
4.717,-15.03,2.18,6.49,2.10,1.28,4.29,
4.717,-14.46,1.15,6.35,2.10,1.28,4.29,
4.717,-14.46,1.15,6.35,2.19,1.22,4.44,
4.718,-13.86,0.11,6.12,2.19,1.22,4.44,
4.718,-13.86,0.11,6.12,2.29,1.16,4.57,
4.718,-13.86,0.11,6.12,2.39,1.12,4.69,
4.719,-13.86,0.11,6.12,2.50,1.08,4.81,
4.719,-13.22,-0.96,5.80,2.50,1.08,4.81,
4.719,-13.22,-0.96,5.80,2.60,1.04,4.91,
4.719,-13.22,-0.96,5.80,2.70,1.02,5.00,
4.719,-12.67,-1.97,5.45,2.70,1.02,5.00,
4.72,-12.67,-1.97,5.45,2.79,1.00,5.08,
4.72,-12.67,-1.97,5.45,2.89,0.99,5.16,
4.72,-12.25,-3.02,5.04,2.89,0.99,5.16,
4.72,-12.25,-3.02,5.04,2.98,0.99,5.23,
4.721,-12.25,-3.02,5.04,3.07,0.99,5.28,
4.721,-11.94,-4.06,4.62,3.07,0.99,5.28,
4.721,-11.94,-4.06,4.62,3.15,1.00,5.34,
4.721,-11.94,-4.06,4.62,3.23,1.02,5.38,
4.722,-11.62,-5.11,4.19,3.23,1.02,5.38,
4.722,-11.62,-5.11,4.19,3.30,1.04,5.42,
4.722,-11.62,-5.11,4.19,3.37,1.07,5.45,
4.722,-11.36,-6.08,3.72,3.37,1.07,5.45,
4.722,-11.36,-6.08,3.72,3.43,1.10,5.48,
4.723,-11.16,-7.03,3.19,3.43,1.10,5.48,
4.723,-11.16,-7.03,3.19,3.48,1.14,5.50,
4.723,-11.16,-7.03,3.19,3.53,1.19,5.51,
4.723,-11.16,-7.03,3.19,3.56,1.24,5.52,
4.723,-11.07,-7.96,2.69,3.56,1.24,5.52,
4.724,-11.07,-7.96,2.69,3.59,1.30,5.53,
4.724,-11.07,-7.96,2.69,3.60,1.36,5.54,
4.724,-11.03,-8.77,2.21,3.60,1.36,5.54,
4.724,-11.03,-8.77,2.21,3.60,1.43,5.54,
4.725,-10.90,-9.41,1.85,3.60,1.43,5.54,
4.725,-10.90,-9.41,1.85,3.59,1.49,5.54,
4.725,-10.57,-9.77,1.53,3.59,1.49,5.54,
4.725,-10.57,-9.77,1.53,3.57,1.55,5.53,
4.726,-10.57,-9.77,1.53,3.54,1.60,5.52,
4.726,-10.57,-9.77,1.53,3.50,1.64,5.50,
4.726,-10.57,-9.77,1.53,3.44,1.67,5.49,
4.726,-10.11,-9.88,1.22,3.44,1.67,5.49,
4.726,-10.11,-9.88,1.22,3.38,1.70,5.47,
4.727,-10.11,-9.88,1.22,3.30,1.71,5.45,
4.727,-9.64,-9.83,0.93,3.30,1.71,5.45,
4.727,-9.64,-9.83,0.93,3.21,1.73,5.43,
4.727,-9.64,-9.83,0.93,3.11,1.75,5.42,
4.727,-9.17,-9.67,0.62,3.11,1.75,5.42,
4.727,-9.17,-9.67,0.62,3.00,1.76,5.41,
4.728,-9.17,-9.67,0.62,2.88,1.78,5.41,
4.728,-8.77,-9.49,0.43,2.88,1.78,5.41,
4.728,-8.77,-9.49,0.43,2.76,1.79,5.41,
4.728,-8.77,-9.49,0.43,2.63,1.80,5.42,
4.728,-8.47,-9.33,0.33,2.63,1.80,5.42,
4.729,-8.47,-9.33,0.33,2.49,1.80,5.43,
4.729,-8.47,-9.33,0.33,2.36,1.80,5.45,
4.729,-8.28,-9.21,0.39,2.36,1.80,5.45,
4.729,-8.28,-9.21,0.39,2.21,1.80,5.48,
4.73,-8.28,-9.21,0.39,2.07,1.78,5.51,
4.73,-8.13,-9.12,0.53,2.07,1.78,5.51,
4.73,-8.13,-9.12,0.53,1.93,1.75,5.55,
4.733,-8.13,-9.12,0.53,1.79,1.72,5.59,
4.734,-7.94,-9.07,0.77,1.79,1.72,5.59,
4.735,-7.94,-9.07,0.77,1.65,1.67,5.63,
4.737,-7.64,-9.05,1.10,1.65,1.67,5.63,
4.737,-7.64,-9.05,1.10,1.52,1.62,5.68,
4.738,-7.64,-9.05,1.10,1.39,1.56,5.73,
4.742,-7.64,-9.05,1.10,1.27,1.49,5.78,
4.743,-7.26,-9.11,1.49,1.27,1.49,5.78,
4.746,-7.26,-9.11,1.49,1.16,1.42,5.83,
4.748,-6.76,-9.26,1.88,1.16,1.42,5.83,
4.748,-6.76,-9.26,1.88,1.05,1.34,5.88,
4.753,-6.76,-9.26,1.88,0.96,1.26,5.92,
4.753,-6.76,-9.26,1.88,0.87,1.16,5.97,
4.753,-6.22,-9.44,2.25,0.87,1.16,5.97,
4.753,-6.22,-9.44,2.25,0.79,1.07,6.01,
4.757,-6.22,-9.44,2.25,0.72,0.96,6.04,
4.757,-5.65,-9.70,2.58,0.72,0.96,6.04,
4.762,-5.65,-9.70,2.58,0.66,0.86,6.07,
4.763,-5.65,-9.70,2.58,0.60,0.75,6.09,
4.763,-4.99,-9.93,2.83,0.60,0.75,6.09,
4.763,-4.99,-9.93,2.83,0.56,0.64,6.11,
4.765,-4.99,-9.93,2.83,0.52,0.54,6.12,
4.766,-4.29,-10.16,2.99,0.52,0.54,6.12,
4.768,-4.29,-10.16,2.99,0.48,0.43,6.13,
4.77,-3.59,-10.37,3.04,0.48,0.43,6.13,
4.771,-3.59,-10.37,3.04,0.46,0.33,6.13,
4.773,-3.59,-10.37,3.04,0.43,0.24,6.12,
4.778,-2.88,-10.57,2.98,0.43,0.24,6.12,
4.78,-2.88,-10.57,2.98,0.41,0.14,6.12,
4.78,-2.88,-10.57,2.98,0.39,0.06,6.10,
4.781,-2.21,-10.76,2.89,0.39,0.06,6.10,
4.781,-2.21,-10.76,2.89,0.37,-0.02,6.09,
4.793,-2.21,-10.76,2.89,0.36,-0.09,6.07,
4.794,-1.58,-10.89,2.77,0.36,-0.09,6.07,
4.794,-1.58,-10.89,2.77,0.34,-0.16,6.05,
4.794,-1.58,-10.89,2.77,0.33,-0.23,6.03,
4.795,-0.99,-11.02,2.63,0.33,-0.23,6.03,
4.796,-0.44,-11.11,2.53,0.33,-0.23,6.03,
4.796,-0.44,-11.11,2.53,0.32,-0.29,6.00,
4.796,-0.44,-11.11,2.53,0.32,-0.34,5.97,
4.8,-0.44,-11.11,2.53,0.31,-0.40,5.93,
4.801,-0.44,-11.11,2.53,0.31,-0.45,5.89,
4.801,-0.44,-11.11,2.53,0.31,-0.49,5.86,
4.801,0.07,-11.14,2.43,0.31,-0.49,5.86,
4.803,0.07,-11.14,2.43,0.31,-0.53,5.81,
4.808,0.07,-11.14,2.43,0.32,-0.56,5.77,
4.808,0.48,-11.16,2.33,0.32,-0.56,5.77,
4.808,0.48,-11.16,2.33,0.33,-0.60,5.73,
4.811,0.48,-11.16,2.33,0.34,-0.63,5.69,
4.811,0.87,-11.15,2.23,0.34,-0.63,5.69,
4.813,0.87,-11.15,2.23,0.35,-0.66,5.64,
4.815,0.87,-11.15,2.23,0.36,-0.69,5.60,
4.815,1.26,-11.16,2.11,0.36,-0.69,5.60,
4.82,1.26,-11.16,2.11,0.38,-0.72,5.55,
4.821,1.26,-11.16,2.11,0.39,-0.74,5.50,
4.821,1.63,-11.14,1.97,0.39,-0.74,5.50,
4.822,1.63,-11.14,1.97,0.41,-0.77,5.46,
4.827,1.98,-11.14,1.85,0.41,-0.77,5.46,
4.836,2.31,-11.17,1.73,0.41,-0.77,5.46,
4.84,2.31,-11.17,1.73,0.42,-0.79,5.41,
4.84,2.31,-11.17,1.73,0.44,-0.81,5.36,
4.84,2.31,-11.17,1.73,0.45,-0.83,5.31,
4.841,2.31,-11.17,1.73,0.47,-0.85,5.26,
4.841,2.31,-11.17,1.73,0.49,-0.87,5.20,
4.841,2.71,-11.23,1.61,0.49,-0.87,5.20,
4.841,2.71,-11.23,1.61,0.51,-0.89,5.15,
4.846,3.05,-11.27,1.52,0.51,-0.89,5.15,
4.847,3.05,-11.27,1.52,0.53,-0.90,5.09,
4.847,3.05,-11.27,1.52,0.55,-0.91,5.03,
4.847,3.05,-11.27,1.52,0.58,-0.92,4.96,
4.848,3.38,-11.29,1.46,0.58,-0.92,4.96,
4.85,3.38,-11.29,1.46,0.61,-0.93,4.90,
4.85,3.38,-11.29,1.46,0.64,-0.94,4.84,
4.85,3.63,-11.28,1.41,0.64,-0.94,4.84,
4.852,3.63,-11.28,1.41,0.68,-0.94,4.78,
4.855,3.85,-11.29,1.32,0.68,-0.94,4.78,
4.855,3.85,-11.29,1.32,0.72,-0.94,4.71,
4.857,3.85,-11.29,1.32,0.76,-0.94,4.65,
4.861,3.85,-11.29,1.32,0.80,-0.93,4.58,
4.862,4.02,-11.34,1.19,0.80,-0.93,4.58,
4.864,4.02,-11.34,1.19,0.84,-0.92,4.51,
4.865,4.02,-11.34,1.19,0.89,-0.91,4.45,
4.865,4.16,-11.39,1.02,0.89,-0.91,4.45,
4.867,4.16,-11.39,1.02,0.93,-0.89,4.38,
4.872,4.30,-11.45,0.81,0.93,-0.89,4.38,
4.872,4.30,-11.45,0.81,0.97,-0.87,4.32,
4.876,4.30,-11.45,0.81,1.00,-0.85,4.25,
4.876,4.30,-11.45,0.81,1.04,-0.83,4.18,
4.876,4.47,-11.47,0.60,1.04,-0.83,4.18,
