
time,ax,ay,az,wx,wy,wz,
0.001,0.01,-0.13,0.34,0.05,0.01,-0.01,
0.001,0.01,-0.13,0.34,0.05,0.01,-0.01,
0.002,-0.21,-0.10,0.27,0.05,0.01,-0.01,
0.002,-0.21,-0.10,0.27,0.05,0.01,-0.00,
0.003,-0.21,-0.10,0.27,0.05,0.01,0.00,
0.003,-0.32,-0.05,0.20,0.05,0.01,0.00,
0.005,-0.32,-0.05,0.20,0.04,0.00,0.01,
0.008,-0.32,-0.05,0.20,0.04,0.00,0.01,
0.008,-0.32,-0.05,0.21,0.04,0.00,0.01,
0.01,-0.32,-0.05,0.21,0.04,-0.00,0.01,
0.013,-0.32,-0.05,0.21,0.04,-0.01,0.01,
0.013,-0.20,-0.07,0.17,0.04,-0.01,0.01,
0.015,-0.20,-0.07,0.17,0.04,-0.01,0.01,
0.017,-0.20,-0.07,0.17,0.04,-0.01,0.01,
0.018,-0.05,-0.12,0.09,0.04,-0.01,0.01,
0.02,-0.05,-0.12,0.09,0.04,-0.01,0.01,
0.023,-0.05,-0.12,0.09,0.04,-0.00,0.01,
0.024,0.01,-0.11,0.06,0.04,-0.00,0.01,
0.026,0.01,-0.11,0.06,0.04,-0.00,0.01,
0.029,0.01,-0.11,0.06,0.04,0.01,0.00,
0.03,0.05,-0.12,0.07,0.04,0.01,0.00,
0.031,0.05,-0.12,0.07,0.04,0.01,0.00,
0.033,0.05,-0.12,0.07,0.04,0.01,0.00,
0.033,0.08,-0.12,0.09,0.04,0.01,0.00,
0.036,0.08,-0.12,0.09,0.04,0.02,-0.00,
0.037,0.08,-0.12,0.09,0.04,0.02,-0.00,
0.038,0.08,-0.08,0.12,0.04,0.02,-0.00,
0.04,0.08,-0.08,0.12,0.04,0.02,-0.00,
0.043,0.08,-0.08,0.12,0.04,0.02,-0.01,
0.043,0.05,-0.06,0.06,0.04,0.02,-0.01,
0.045,0.05,-0.06,0.06,0.04,0.02,-0.01,
0.048,0.05,-0.06,0.06,0.04,0.02,-0.01,
0.048,-0.08,-0.02,0.03,0.04,0.02,-0.01,
0.05,-0.08,-0.02,0.03,0.04,0.02,-0.01,
0.053,-0.08,-0.02,0.03,0.04,0.02,-0.01,
0.053,-0.24,0.01,-0.01,0.04,0.02,-0.01,
0.055,-0.24,0.01,-0.01,0.04,0.02,-0.01,
0.057,-0.24,0.01,-0.01,0.04,0.02,-0.00,
0.057,-0.29,0.04,0.01,0.04,0.02,-0.00,
0.061,-0.29,0.04,0.01,0.03,0.02,-0.01,
0.064,-0.29,0.04,0.01,0.03,0.01,-0.00,
0.065,-0.29,0.04,0.01,0.03,0.00,0.00,
0.067,-0.29,0.04,0.01,0.03,-0.01,0.01,
0.069,-0.33,0.03,0.03,0.03,-0.01,0.01,
0.07,-0.35,-0.04,0.00,0.03,-0.01,0.01,
0.07,-0.35,-0.04,0.00,0.03,-0.01,0.01,
0.072,-0.35,-0.04,0.00,0.03,-0.01,0.02,
0.073,-0.28,-0.12,0.01,0.03,-0.01,0.02,
0.074,-0.28,-0.12,0.01,0.02,-0.01,0.02,
0.078,-0.17,-0.17,-0.06,0.02,-0.01,0.02,
0.078,-0.17,-0.17,-0.06,0.02,-0.01,0.02,
0.081,-0.17,-0.17,-0.06,0.02,-0.01,0.02,
0.082,-0.17,-0.17,-0.06,0.02,-0.01,0.02,
0.082,-0.09,-0.14,-0.08,0.02,-0.01,0.02,
0.084,-0.09,-0.14,-0.08,0.01,-0.01,0.02,
0.087,-0.03,-0.07,-0.06,0.01,-0.01,0.02,
0.087,-0.03,-0.07,-0.06,0.01,-0.01,0.02,
0.09,-0.03,-0.07,-0.06,0.01,-0.01,0.02,
0.093,-0.03,-0.04,-0.02,0.01,-0.01,0.02,
0.093,-0.03,-0.04,-0.02,0.01,-0.00,0.02,
0.094,-0.03,-0.04,-0.02,0.00,-0.00,0.02,
0.097,-0.03,-0.04,-0.02,0.00,-0.01,0.02,
0.097,-0.18,0.01,0.05,0.00,-0.01,0.02,
0.099,-0.18,0.01,0.05,0.00,-0.00,0.02,
0.102,-0.18,0.01,0.05,0.01,-0.00,0.02,
0.102,-0.05,-0.06,0.12,0.01,-0.00,0.02,
0.104,-0.05,-0.06,0.12,0.01,-0.01,0.02,
0.107,-0.05,-0.06,0.12,0.01,-0.01,0.02,
0.107,0.00,-0.12,0.12,0.01,-0.01,0.02,
0.112,0.00,-0.12,0.12,0.01,-0.00,0.02,
0.113,-0.10,-0.14,0.15,0.01,-0.00,0.02,
0.113,-0.10,-0.14,0.15,0.01,-0.00,0.02,
0.115,-0.10,-0.14,0.15,0.01,0.00,0.02,
0.117,-0.01,-0.09,0.11,0.01,0.00,0.02,
0.117,-0.01,-0.09,0.11,0.01,0.01,0.02,
0.119,-0.01,-0.09,0.11,0.01,0.01,0.01,
0.122,-0.01,-0.09,0.11,0.01,0.01,0.01,
0.122,-0.08,-0.05,0.08,0.01,0.01,0.01,
0.124,-0.08,-0.05,0.08,0.01,0.00,0.01,
0.127,-0.08,-0.05,0.08,0.00,0.01,0.01,
0.128,-0.20,-0.07,0.05,0.00,0.01,0.01,
0.129,-0.20,-0.07,0.05,0.00,0.01,0.02,
0.132,-0.20,-0.07,0.05,0.01,0.02,0.02,
0.132,-0.22,-0.13,0.15,0.01,0.02,0.02,
0.134,-0.22,-0.13,0.15,0.01,0.02,0.02,
0.137,-0.22,-0.13,0.15,0.01,0.01,0.02,
0.137,-0.31,-0.08,0.13,0.01,0.01,0.02,
0.139,-0.31,-0.08,0.13,0.01,0.00,0.02,
0.142,-0.31,-0.08,0.13,0.00,0.00,0.02,
0.142,-0.34,-0.02,0.11,0.00,0.00,0.02,
0.145,-0.34,-0.02,0.11,0.00,0.00,0.03,
0.147,-0.34,-0.02,0.11,0.00,0.01,0.03,
0.147,-0.29,-0.02,0.17,0.00,0.01,0.03,
0.149,-0.29,-0.02,0.17,0.01,0.01,0.03,
0.152,-0.29,-0.02,0.17,0.01,0.01,0.03,
0.152,-0.23,-0.04,0.24,0.01,0.01,0.03,
0.154,-0.23,-0.04,0.24,0.01,0.01,0.03,
0.157,-0.23,-0.04,0.24,0.01,0.01,0.04,
0.157,-0.18,-0.06,0.24,0.01,0.01,0.04,
0.159,-0.18,-0.06,0.24,0.02,0.00,0.04,
0.175,-0.12,-0.08,0.24,0.02,0.00,0.04,
0.176,-0.12,-0.08,0.24,0.01,0.01,0.03,
0.176,-0.12,-0.08,0.24,0.01,0.01,0.03,
0.176,-0.09,-0.08,0.21,0.01,0.01,0.03,
0.176,-0.09,-0.08,0.21,0.02,0.01,0.03,
0.176,-0.09,-0.08,0.21,0.02,0.01,0.03,
0.177,-0.09,-0.08,0.21,0.02,0.02,0.03,
0.177,-0.09,-0.07,0.18,0.02,0.02,0.03,
0.177,-0.09,-0.07,0.18,0.02,0.02,0.03,
0.177,-0.09,-0.07,0.18,0.02,0.02,0.03,
0.177,-0.11,-0.07,0.18,0.02,0.02,0.03,
0.179,-0.11,-0.07,0.18,0.02,0.02,0.03,
0.182,-0.11,-0.07,0.18,0.02,0.02,0.03,
0.182,-0.12,-0.09,0.19,0.02,0.02,0.03,
0.184,-0.12,-0.09,0.19,0.02,0.02,0.03,
0.186,-0.12,-0.09,0.19,0.02,0.02,0.03,
0.187,-0.12,-0.09,0.23,0.02,0.02,0.03,
0.189,-0.12,-0.09,0.23,0.02,0.02,0.03,
0.191,-0.12,-0.09,0.23,0.02,0.02,0.03,
0.192,-0.09,-0.11,0.26,0.02,0.02,0.03,
0.195,-0.09,-0.11,0.26,0.02,0.02,0.03,
0.196,-0.09,-0.11,0.26,0.03,0.02,0.03,
0.196,-0.05,-0.12,0.26,0.03,0.02,0.03,
0.201,-0.05,-0.12,0.26,0.02,0.02,0.03,
0.202,-0.05,-0.12,0.26,0.03,0.02,0.03,
0.202,-0.02,-0.10,0.21,0.03,0.02,0.03,
0.203,-0.02,-0.10,0.21,0.03,0.01,0.02,
0.206,-0.02,-0.10,0.21,0.03,0.01,0.02,
0.206,-0.05,-0.11,0.14,0.03,0.01,0.02,
0.209,-0.05,-0.11,0.14,0.02,0.01,0.02,
0.213,-0.05,-0.11,0.14,0.03,0.02,0.02,
0.213,-0.05,-0.11,0.10,0.03,0.02,0.02,
0.213,-0.05,-0.11,0.10,0.02,0.02,0.02,
0.216,-0.05,-0.11,0.10,0.02,0.01,0.02,
0.216,-0.06,-0.12,0.05,0.02,0.01,0.02,
0.218,-0.06,-0.12,0.05,0.02,0.01,0.02,
0.221,-0.06,-0.12,0.05,0.02,0.01,0.03,
0.221,-0.08,-0.10,0.03,0.02,0.01,0.03,
0.224,-0.08,-0.10,0.03,0.02,0.00,0.03,
0.227,-0.08,-0.10,0.03,0.02,-0.00,0.03,
0.227,-0.09,-0.11,0.04,0.02,-0.00,0.03,
0.23,-0.09,-0.11,0.04,0.02,-0.01,0.03,
0.231,-0.09,-0.11,0.04,0.02,-0.00,0.03,
0.231,-0.05,-0.10,-0.01,0.02,-0.00,0.03,
0.233,-0.05,-0.10,-0.01,0.02,-0.00,0.03,
0.236,-0.05,-0.10,-0.01,0.02,-0.00,0.03,
0.236,-0.01,-0.10,0.00,0.02,-0.00,0.03,
0.238,-0.01,-0.10,0.00,0.02,-0.00,0.03,
0.241,-0.01,-0.10,0.00,0.02,0.00,0.03,
0.241,0.01,-0.09,0.07,0.02,0.00,0.03,
0.243,0.01,-0.09,0.07,0.02,0.00,0.03,
0.246,0.00,-0.08,0.19,0.02,0.00,0.03,
0.246,0.00,-0.08,0.19,0.02,0.01,0.03,
0.248,0.00,-0.08,0.19,0.02,0.01,0.03,
0.251,0.00,-0.08,0.19,0.02,0.01,0.02,
0.251,-0.09,-0.07,0.22,0.02,0.01,0.02,
0.253,-0.09,-0.07,0.22,0.02,0.02,0.02,
0.256,-0.09,-0.07,0.22,0.02,0.03,0.02,
0.256,-0.18,-0.05,0.23,0.02,0.03,0.02,
0.258,-0.18,-0.05,0.23,0.02,0.03,0.02,
0.261,-0.18,-0.05,0.23,0.02,0.03,0.02,
0.262,-0.46,-0.03,0.24,0.02,0.03,0.02,
0.263,-0.46,-0.03,0.24,0.02,0.03,0.04,
0.265,-0.46,-0.03,0.24,0.02,0.03,0.05,
0.265,-0.50,-0.01,0.39,0.02,0.03,0.05,
0.268,-0.50,-0.01,0.39,0.03,0.02,0.05,
0.27,-0.50,-0.01,0.39,0.03,0.01,0.05,
0.27,-0.23,-0.06,0.50,0.03,0.01,0.05,
0.273,-0.23,-0.06,0.50,0.04,0.01,0.05,
0.275,-0.23,-0.06,0.50,0.04,-0.00,0.05,
0.276,-0.09,-0.11,0.37,0.04,-0.00,0.05,
0.278,-0.09,-0.11,0.37,0.05,-0.01,0.04,
0.28,-0.09,-0.11,0.37,0.05,-0.00,0.04,
0.281,0.02,-0.10,0.26,0.05,-0.00,0.04,
0.283,0.02,-0.10,0.26,0.05,0.00,0.04,
0.285,0.02,-0.10,0.26,0.05,0.01,0.03,
0.286,0.00,-0.10,0.14,0.05,0.01,0.03,
0.288,0.00,-0.10,0.14,0.05,0.02,0.03,
0.29,0.00,-0.10,0.14,0.05,0.03,0.03,
0.29,-0.03,-0.09,0.16,0.05,0.03,0.03,
0.293,-0.03,-0.09,0.16,0.04,0.04,0.03,
0.297,-0.06,-0.09,0.22,0.04,0.04,0.03,
0.297,-0.06,-0.09,0.22,0.05,0.04,0.03,
0.298,-0.06,-0.09,0.22,0.05,0.04,0.03,
0.3,-0.06,-0.09,0.22,0.05,0.04,0.02,
0.301,0.02,-0.21,0.28,0.05,0.04,0.02,
0.303,0.02,-0.21,0.28,0.05,0.04,0.02,
0.305,0.13,-0.33,0.31,0.05,0.04,0.02,
0.306,0.13,-0.33,0.31,0.06,0.05,0.02,
0.307,0.13,-0.33,0.31,0.06,0.05,0.02,
0.311,0.13,-0.33,0.31,0.07,0.05,0.01,
0.311,0.01,-0.26,0.25,0.07,0.05,0.01,
0.314,0.01,-0.26,0.25,0.07,0.05,0.02,
0.315,0.01,-0.26,0.25,0.08,0.04,0.04,
0.315,-0.66,-0.17,0.32,0.08,0.04,0.04,
0.318,-0.66,-0.17,0.32,0.07,0.03,0.07,
0.32,-0.66,-0.17,0.32,0.06,0.06,0.08,
0.32,0.12,-0.35,-0.18,0.06,0.06,0.08,
0.324,0.12,-0.35,-0.18,0.05,0.11,0.06,
0.326,1.00,-0.15,-0.22,0.05,0.11,0.06,
0.339,1.00,-0.15,-0.22,0.04,0.11,0.03,
0.339,1.00,-0.15,-0.22,0.03,0.04,-0.00,
0.339,0.32,0.29,-0.20,0.03,0.04,-0.00,
0.339,0.32,0.29,-0.20,0.03,-0.03,-0.02,
0.339,0.32,0.29,-0.20,0.03,-0.06,-0.03,
0.34,0.32,0.29,-0.20,0.03,-0.02,-0.03,
0.34,-0.43,0.42,-0.20,0.03,-0.02,-0.03,
0.34,-0.43,0.42,-0.20,0.03,0.06,-0.02,
0.34,-0.43,0.42,-0.20,0.03,0.12,0.00,
0.34,-0.44,0.35,-0.12,0.03,0.12,0.00,
0.342,-0.44,0.35,-0.12,0.03,0.14,0.02,
0.346,-0.44,0.35,-0.12,0.03,0.13,0.03,
0.347,-0.19,0.31,-0.17,0.03,0.13,0.03,
0.347,-0.19,0.31,-0.17,0.03,0.10,0.03,
0.35,-0.19,0.31,-0.17,0.03,0.07,0.02,
0.35,-0.00,0.09,-0.07,0.03,0.07,0.02,
0.352,-0.00,0.09,-0.07,0.03,0.04,0.01,
0.355,-0.00,0.09,-0.07,0.04,0.02,-0.00,
0.356,0.07,-0.15,0.08,0.04,0.02,-0.00,
0.357,0.07,-0.15,0.08,0.04,0.02,-0.01,
0.36,0.07,-0.15,0.08,0.05,0.04,-0.00,
0.36,-0.06,-0.22,0.20,0.05,0.04,-0.00,
0.363,-0.06,-0.22,0.20,0.05,0.06,0.00,
0.365,-0.06,-0.22,0.20,0.05,0.08,0.01,
0.365,-0.03,-0.30,0.24,0.05,0.08,0.01,
0.367,-0.03,-0.30,0.24,0.05,0.10,0.01,
0.37,-0.03,-0.30,0.24,0.05,0.12,0.01,
0.371,0.30,-0.36,0.24,0.05,0.12,0.01,
0.372,0.30,-0.36,0.24,0.05,0.12,-0.00,
0.376,0.30,-0.36,0.24,0.05,0.12,-0.02,
0.376,0.49,-0.27,0.20,0.05,0.12,-0.02,
0.378,0.49,-0.27,0.20,0.05,0.12,-0.04,
0.38,0.49,-0.27,0.20,0.06,0.13,-0.05,
0.38,0.50,-0.02,0.23,0.06,0.13,-0.05,
0.382,0.50,-0.02,0.23,0.06,0.14,-0.06,
0.384,0.50,-0.02,0.23,0.06,0.15,-0.07,
0.385,0.30,0.28,0.35,0.06,0.15,-0.07,
0.387,0.30,0.28,0.35,0.06,0.17,-0.08,
0.389,0.30,0.28,0.35,0.06,0.20,-0.08,
0.39,0.16,0.42,0.22,0.06,0.20,-0.08,
0.392,0.16,0.42,0.22,0.07,0.23,-0.09,
0.394,0.16,0.42,0.22,0.08,0.24,-0.10,
0.395,0.20,0.38,0.38,0.08,0.24,-0.10,
0.397,0.20,0.38,0.38,0.09,0.23,-0.11,
0.4,0.20,0.38,0.38,0.09,0.20,-0.13,
0.4,0.37,0.37,0.38,0.09,0.20,-0.13,
0.402,0.37,0.37,0.38,0.09,0.17,-0.15,
0.405,0.37,0.37,0.38,0.09,0.15,-0.17,
0.405,0.37,0.37,-0.01,0.09,0.15,-0.17,
0.407,0.37,0.37,-0.01,0.08,0.15,-0.18,
0.409,0.37,0.37,-0.01,0.08,0.17,-0.18,
0.409,0.22,0.28,-0.25,0.08,0.17,-0.18,
0.413,0.22,0.28,-0.25,0.07,0.20,-0.17,
0.415,0.03,0.01,-0.09,0.07,0.20,-0.17,
0.415,0.03,0.01,-0.09,0.07,0.23,-0.17,
0.417,0.03,0.01,-0.09,0.07,0.26,-0.16,
0.419,0.03,0.01,-0.09,0.08,0.28,-0.15,
0.42,-0.18,-0.33,0.35,0.08,0.28,-0.15,
0.422,-0.18,-0.33,0.35,0.08,0.28,-0.14,
0.424,-0.18,-0.33,0.35,0.10,0.28,-0.13,
0.424,-0.35,-0.64,0.69,0.10,0.28,-0.13,
0.427,-0.35,-0.64,0.69,0.10,0.25,-0.13,
0.43,-0.35,-0.64,0.69,0.11,0.22,-0.13,
0.43,-0.52,-0.83,0.64,0.11,0.22,-0.13,
0.431,-0.52,-0.83,0.64,0.11,0.18,-0.13,
0.434,-0.52,-0.83,0.64,0.11,0.15,-0.13,
0.434,-0.71,-0.79,0.31,0.11,0.15,-0.13,
0.436,-0.71,-0.79,0.31,0.10,0.11,-0.13,
0.439,-0.71,-0.79,0.31,0.10,0.08,-0.12,
0.439,-0.76,-0.49,0.07,0.10,0.08,-0.12,
0.441,-0.76,-0.49,0.07,0.09,0.06,-0.11,
0.444,-0.76,-0.49,0.07,0.08,0.05,-0.10,
0.445,-0.83,-0.09,-0.23,0.08,0.05,-0.10,
0.453,-0.83,-0.09,-0.23,0.08,0.04,-0.08,
0.453,-0.83,-0.09,-0.23,0.07,0.04,-0.06,
0.453,-0.73,0.34,-0.20,0.07,0.04,-0.06,
0.454,-0.73,0.34,-0.20,0.07,0.03,-0.04,
0.454,-0.73,0.34,-0.20,0.08,0.03,-0.03,
0.454,-0.57,0.57,0.03,0.08,0.03,-0.03,
0.457,-0.57,0.57,0.03,0.08,0.03,-0.02,
0.459,-0.57,0.57,0.03,0.08,0.03,-0.01,
0.459,-0.07,0.37,0.11,0.08,0.03,-0.01,
0.462,-0.07,0.37,0.11,0.09,0.04,-0.01,
0.464,-0.07,0.37,0.11,0.10,0.04,-0.02,
0.464,0.31,0.11,0.12,0.10,0.04,-0.02,
0.466,0.31,0.11,0.12,0.10,0.05,-0.02,
0.469,0.31,0.11,0.12,0.09,0.05,-0.02,
0.469,0.31,-0.22,-0.05,0.09,0.05,-0.02,
0.471,0.31,-0.22,-0.05,0.09,0.06,-0.03,
0.474,0.31,-0.22,-0.05,0.09,0.10,-0.04,
0.474,0.57,-0.35,-0.03,0.09,0.10,-0.04,
0.476,0.57,-0.35,-0.03,0.09,0.15,-0.05,
0.479,0.33,-0.25,0.41,0.09,0.15,-0.05,
0.479,0.33,-0.25,0.41,0.10,0.17,-0.06,
0.481,0.33,-0.25,0.41,0.10,0.16,-0.07,
0.483,0.33,-0.25,0.41,0.10,0.16,-0.08,
0.484,0.42,-0.19,0.38,0.10,0.16,-0.08,
0.486,0.42,-0.19,0.38,0.10,0.17,-0.09,
0.488,0.42,-0.19,0.38,0.10,0.17,-0.10,
0.488,0.30,-0.09,0.41,0.10,0.17,-0.10,
0.498,0.30,-0.09,0.41,0.11,0.18,-0.11,
0.498,0.30,-0.09,0.41,0.11,0.17,-0.11,
0.498,0.11,-0.11,0.46,0.11,0.17,-0.11,
0.499,0.11,-0.11,0.46,0.12,0.16,-0.12,
0.499,0.11,-0.11,0.46,0.13,0.15,-0.13,
0.499,-0.06,-0.07,0.70,0.13,0.15,-0.13,
0.502,-0.06,-0.07,0.70,0.13,0.14,-0.13,
0.505,-0.17,-0.21,0.38,0.13,0.14,-0.13,
0.506,-0.17,-0.21,0.38,0.13,0.11,-0.13,
0.506,-0.17,-0.21,0.38,0.12,0.09,-0.13,
0.509,-0.17,-0.21,0.38,0.11,0.07,-0.12,
0.51,-0.63,-0.27,-0.00,0.11,0.07,-0.12,
0.512,-0.63,-0.27,-0.00,0.11,0.07,-0.10,
0.513,-0.94,-0.38,-0.09,0.11,0.07,-0.10,
0.514,-0.94,-0.38,-0.09,0.11,0.08,-0.08,
0.516,-0.94,-0.38,-0.09,0.11,0.11,-0.05,
0.519,-0.94,-0.38,-0.09,0.11,0.14,-0.04,
0.519,-0.79,-0.59,0.14,0.11,0.14,-0.04,
0.521,-0.79,-0.59,0.14,0.11,0.15,-0.02,
0.523,-0.79,-0.59,0.14,0.11,0.16,-0.02,
0.523,-0.45,-0.75,0.15,0.11,0.16,-0.02,
0.525,-0.45,-0.75,0.15,0.10,0.16,-0.01,
0.528,-0.38,-0.57,0.17,0.10,0.16,-0.01,
0.529,-0.38,-0.57,0.17,0.10,0.16,-0.01,
0.531,-0.38,-0.57,0.17,0.10,0.15,-0.01,
0.533,-0.38,-0.57,0.17,0.11,0.14,-0.01,
0.533,-0.25,-0.27,0.37,0.11,0.14,-0.01,
0.536,-0.25,-0.27,0.37,0.11,0.13,-0.01,
0.539,-0.25,-0.27,0.37,0.12,0.11,-0.01,
0.539,-0.08,0.03,0.61,0.12,0.11,-0.01,
0.54,-0.08,0.03,0.61,0.12,0.10,-0.01,
0.544,-0.08,0.03,0.61,0.12,0.09,-0.00,
0.544,-0.19,-0.01,0.52,0.12,0.09,-0.00,
0.547,-0.19,-0.01,0.52,0.12,0.09,0.00,
0.549,-0.19,-0.01,0.52,0.12,0.10,0.01,
0.55,-0.33,-0.19,0.34,0.12,0.10,0.01,
0.55,-0.33,-0.19,0.34,0.11,0.11,0.02,
0.553,-0.33,-0.19,0.34,0.11,0.11,0.03,
0.553,-0.38,-0.39,0.34,0.11,0.11,0.03,
0.555,-0.38,-0.39,0.34,0.11,0.11,0.03,
0.558,-0.38,-0.39,0.34,0.11,0.11,0.04,
0.558,-0.45,-0.41,0.42,0.11,0.11,0.04,
0.561,-0.45,-0.41,0.42,0.12,0.11,0.05,
0.564,-0.45,-0.41,0.42,0.12,0.10,0.05,
0.565,-0.38,-0.29,0.51,0.12,0.10,0.05,
0.565,-0.38,-0.29,0.51,0.13,0.09,0.05,
0.568,-0.38,-0.29,0.51,0.14,0.08,0.06,
0.568,-0.29,-0.15,0.47,0.14,0.08,0.06,
0.57,-0.29,-0.15,0.47,0.14,0.08,0.06,
0.573,-0.29,-0.15,0.47,0.14,0.07,0.06,
0.573,-0.25,-0.05,0.35,0.14,0.07,0.06,
0.575,-0.25,-0.05,0.35,0.15,0.07,0.06,
0.578,-0.26,-0.05,0.26,0.15,0.07,0.06,
0.579,-0.26,-0.05,0.26,0.15,0.07,0.06,
0.58,-0.26,-0.05,0.26,0.15,0.07,0.06,
0.583,-0.26,-0.05,0.26,0.15,0.07,0.07,
0.583,-0.36,-0.09,0.34,0.15,0.07,0.07,
0.585,-0.36,-0.09,0.34,0.16,0.08,0.07,
0.588,-0.36,-0.09,0.34,0.16,0.08,0.08,
0.588,-0.52,-0.24,0.42,0.16,0.08,0.08,
0.59,-0.52,-0.24,0.42,0.16,0.07,0.08,
0.593,-0.52,-0.24,0.42,0.16,0.06,0.08,
0.593,-0.72,-0.33,0.42,0.16,0.06,0.08,
0.596,-0.72,-0.33,0.42,0.16,0.04,0.09,
0.603,-0.72,-0.33,0.42,0.17,0.02,0.09,
0.604,-0.88,-0.32,0.38,0.17,0.02,0.09,
0.604,-0.88,-0.32,0.38,0.17,-0.00,0.10,
0.605,-0.88,-0.32,0.38,0.17,-0.03,0.11,
0.606,-0.88,-0.32,0.38,0.17,-0.06,0.12,
0.606,-0.96,-0.22,0.35,0.17,-0.06,0.12,
0.608,-0.96,-0.22,0.35,0.17,-0.08,0.13,
0.608,-0.83,-0.07,0.25,0.17,-0.08,0.13,
0.61,-0.83,-0.07,0.25,0.17,-0.11,0.14,
0.615,-0.44,0.01,0.08,0.17,-0.11,0.14,
0.616,-0.44,0.01,0.08,0.17,-0.13,0.14,
0.617,-0.44,0.01,0.08,0.17,-0.14,0.15,
0.618,-0.00,0.03,-0.16,0.17,-0.14,0.15,
0.619,-0.00,0.03,-0.16,0.17,-0.14,0.15,
0.62,-0.00,0.03,-0.16,0.17,-0.13,0.14,
0.623,-0.00,0.03,-0.16,0.17,-0.12,0.14,
0.623,0.27,-0.01,-0.35,0.17,-0.12,0.14,
0.625,0.27,-0.01,-0.35,0.16,-0.09,0.14,
0.628,0.53,-0.02,-0.48,0.16,-0.09,0.14,
0.63,0.53,-0.02,-0.48,0.16,-0.07,0.13,
0.631,0.53,-0.02,-0.48,0.15,-0.05,0.11,
0.633,0.67,0.05,-0.50,0.15,-0.05,0.11,
0.633,0.67,0.05,-0.50,0.15,-0.03,0.10,
0.635,0.67,0.05,-0.50,0.14,-0.03,0.09,
0.638,0.67,0.05,-0.50,0.14,-0.02,0.07,
0.638,0.61,0.10,-0.42,0.14,-0.02,0.07,
0.64,0.61,0.10,-0.42,0.13,-0.01,0.06,
0.643,0.61,0.10,-0.42,0.13,0.00,0.05,
0.643,0.56,0.14,-0.26,0.13,0.00,0.05,
0.645,0.56,0.14,-0.26,0.13,0.01,0.04,
0.648,0.60,0.14,0.00,0.13,0.01,0.04,
0.649,0.60,0.14,0.00,0.13,0.02,0.02,
0.651,0.60,0.14,0.00,0.13,0.04,0.01,
0.653,0.44,0.13,0.16,0.13,0.04,0.01,
0.653,0.44,0.13,0.16,0.14,0.04,0.00,
0.655,0.44,0.13,0.16,0.14,0.04,-0.00,
0.68,0.12,0.10,0.08,0.14,0.04,-0.00,
0.681,0.12,0.10,0.08,0.14,0.03,-0.01,
0.681,0.12,0.10,0.08,0.14,0.03,-0.01,
0.681,-0.10,0.06,-0.10,0.14,0.03,-0.01,
0.682,-0.10,0.06,-0.10,0.13,0.03,-0.01,
0.682,-0.10,0.06,-0.10,0.13,0.03,-0.00,
0.682,-0.10,0.06,-0.10,0.13,0.03,0.00,
0.682,-0.27,0.06,-0.19,0.13,0.03,0.00,
0.683,-0.27,0.06,-0.19,0.13,0.03,0.00,
0.683,-0.27,0.06,-0.19,0.13,0.02,0.00,
0.683,-0.41,0.09,-0.18,0.13,0.02,0.00,
0.683,-0.41,0.09,-0.18,0.13,0.00,0.01,
0.683,-0.41,0.09,-0.18,0.13,-0.02,0.02,
0.683,-0.62,0.06,-0.31,0.13,-0.02,0.02,
0.684,-0.62,0.06,-0.31,0.13,-0.05,0.03,
0.684,-0.62,0.06,-0.31,0.13,-0.06,0.04,
0.684,-0.56,0.02,-0.29,0.13,-0.06,0.04,
0.685,-0.56,0.02,-0.29,0.13,-0.06,0.05,
0.688,-0.56,0.02,-0.29,0.13,-0.05,0.06,
0.688,-0.49,-0.02,-0.00,0.13,-0.05,0.06,
0.689,-0.49,-0.02,-0.00,0.13,-0.05,0.07,
0.693,-0.26,-0.08,0.22,0.13,-0.05,0.07,
0.693,-0.26,-0.08,0.22,0.13,-0.04,0.07,
0.697,-0.26,-0.08,0.22,0.14,-0.04,0.07,
0.697,-0.18,-0.11,0.21,0.14,-0.04,0.07,
0.697,-0.18,-0.11,0.21,0.14,-0.05,0.06,
0.7,-0.18,-0.11,0.21,0.14,-0.06,0.06,
0.703,-0.35,-0.08,0.07,0.14,-0.06,0.06,
0.703,-0.35,-0.08,0.07,0.14,-0.07,0.06,
0.704,-0.35,-0.08,0.07,0.13,-0.08,0.06,
0.707,-0.65,-0.09,0.12,0.13,-0.08,0.06,
0.707,-0.65,-0.09,0.12,0.13,-0.09,0.06,
0.709,-0.65,-0.09,0.12,0.13,-0.10,0.07,
0.72,-0.65,-0.09,0.12,0.12,-0.10,0.09,
0.721,-1.20,-0.07,0.27,0.12,-0.10,0.09,
0.721,-1.20,-0.07,0.27,0.12,-0.11,0.12,
0.722,-1.20,-0.07,0.27,0.13,-0.11,0.15,
0.722,-1.59,-0.01,0.49,0.13,-0.11,0.15,
0.722,-1.59,-0.01,0.49,0.13,-0.12,0.17,
0.723,-1.57,-0.01,0.68,0.13,-0.12,0.17,
0.723,-1.57,-0.01,0.68,0.14,-0.14,0.20,
0.724,-1.57,-0.01,0.68,0.15,-0.16,0.22,
0.727,-1.16,-0.07,0.66,0.15,-0.16,0.22,
0.727,-1.16,-0.07,0.66,0.15,-0.18,0.24,
0.733,-1.16,-0.07,0.66,0.16,-0.21,0.25,
0.734,-0.63,-0.13,0.46,0.16,-0.21,0.25,
0.734,-0.63,-0.13,0.46,0.16,-0.23,0.25,
0.735,-0.63,-0.13,0.46,0.16,-0.24,0.26,
0.737,-0.63,-0.13,0.46,0.16,-0.24,0.25,
0.737,-0.10,-0.10,0.27,0.16,-0.24,0.25,
0.739,-0.10,-0.10,0.27,0.16,-0.24,0.25,
0.742,-0.10,-0.10,0.27,0.16,-0.23,0.25,
0.743,0.32,-0.08,0.11,0.16,-0.23,0.25,
0.745,0.32,-0.08,0.11,0.16,-0.21,0.24,
0.747,0.58,-0.07,-0.08,0.16,-0.21,0.24,
0.747,0.58,-0.07,-0.08,0.16,-0.20,0.24,
0.751,0.66,-0.07,-0.27,0.16,-0.20,0.24,
0.752,0.66,-0.07,-0.27,0.16,-0.18,0.23,
0.752,0.66,-0.07,-0.27,0.16,-0.15,0.23,
0.754,0.66,-0.07,-0.27,0.15,-0.13,0.22,
0.756,0.74,-0.15,-0.31,0.15,-0.13,0.22,
0.756,0.74,-0.15,-0.31,0.14,-0.11,0.22,
0.759,0.74,-0.15,-0.31,0.14,-0.09,0.21,
0.761,0.74,-0.15,-0.31,0.14,-0.07,0.20,
0.762,0.89,-0.24,-0.26,0.14,-0.07,0.20,
0.765,0.89,-0.24,-0.26,0.13,-0.06,0.18,
0.766,1.05,-0.25,-0.17,0.13,-0.06,0.18,
0.767,1.05,-0.25,-0.17,0.13,-0.05,0.17,
0.769,1.05,-0.25,-0.17,0.13,-0.05,0.15,
0.771,1.05,-0.25,-0.17,0.12,-0.05,0.14,
0.772,1.05,-0.22,-0.18,0.12,-0.05,0.14,
0.774,1.05,-0.22,-0.18,0.12,-0.04,0.12,
0.776,0.88,-0.14,-0.31,0.12,-0.04,0.12,
0.777,0.88,-0.14,-0.31,0.11,-0.03,0.11,
0.781,0.88,-0.14,-0.31,0.10,-0.02,0.09,
0.781,0.88,-0.14,-0.31,0.10,-0.01,0.07,
0.782,0.76,-0.04,-0.31,0.10,-0.01,0.07,
0.784,0.76,-0.04,-0.31,0.09,0.00,0.05,
0.786,0.70,0.09,-0.23,0.09,0.00,0.05,
0.787,0.70,0.09,-0.23,0.09,0.01,0.03,
0.788,0.70,0.09,-0.23,0.09,0.02,0.01,
0.791,0.70,0.09,-0.23,0.08,0.02,-0.01,
0.791,0.52,0.24,-0.14,0.08,0.02,-0.01,
0.793,0.52,0.24,-0.14,0.08,0.01,-0.03,
0.802,0.52,0.24,-0.14,0.08,0.01,-0.03,
0.802,0.13,0.33,-0.08,0.08,0.01,-0.03,
0.803,0.13,0.33,-0.08,0.07,-0.00,-0.04,
0.805,-0.26,0.26,0.03,0.07,-0.00,-0.04,
0.806,-0.26,0.26,0.03,0.07,-0.01,-0.04,
0.806,-0.26,0.26,0.03,0.08,-0.02,-0.04,
0.81,-0.26,0.26,0.03,0.08,-0.03,-0.03,
0.81,-0.26,0.26,0.03,0.08,-0.05,-0.02,
0.811,-0.78,0.11,0.14,0.08,-0.05,-0.02,
0.818,-1.15,-0.02,0.27,0.08,-0.05,-0.02,
0.818,-1.15,-0.02,0.27,0.08,-0.07,-0.00,
0.819,-1.15,-0.02,0.27,0.09,-0.10,0.01,
0.819,-1.23,0.02,0.26,0.09,-0.10,0.01,
0.819,-1.23,0.02,0.26,0.09,-0.12,0.03,
0.819,-1.23,0.02,0.26,0.09,-0.16,0.04,
0.821,-1.12,0.15,0.23,0.09,-0.16,0.04,
0.844,-1.12,0.15,0.23,0.09,-0.20,0.05,
0.845,-1.12,0.15,0.23,0.08,-0.24,0.07,
0.845,-1.12,0.15,0.23,0.08,-0.28,0.08,
0.845,-0.97,0.27,0.26,0.08,-0.28,0.08,
0.845,-0.97,0.27,0.26,0.08,-0.32,0.09,
0.846,-0.97,0.27,0.26,0.07,-0.35,0.09,
0.846,-0.80,0.35,0.35,0.07,-0.35,0.09,
0.846,-0.80,0.35,0.35,0.08,-0.38,0.10,
0.846,-0.80,0.35,0.35,0.08,-0.40,0.10,
0.847,-0.58,0.31,0.33,0.08,-0.40,0.10,
0.847,-0.58,0.31,0.33,0.08,-0.41,0.10,
0.847,-0.58,0.31,0.33,0.07,-0.40,0.10,
0.847,-0.32,0.15,0.03,0.07,-0.40,0.10,
0.847,-0.32,0.15,0.03,0.07,-0.39,0.10,
0.848,-0.32,0.15,0.03,0.06,-0.36,0.11,
0.848,-0.13,-0.06,-0.22,0.06,-0.36,0.11,
0.848,-0.13,-0.06,-0.22,0.05,-0.32,0.11,
0.852,-0.13,-0.06,-0.22,0.05,-0.28,0.11,
0.853,0.08,-0.28,-0.21,0.05,-0.28,0.11,
0.853,0.08,-0.28,-0.21,0.05,-0.24,0.10,
0.856,0.08,-0.28,-0.21,0.05,-0.20,0.09,
0.856,0.28,-0.39,-0.03,0.05,-0.20,0.09,
0.858,0.28,-0.39,-0.03,0.05,-0.17,0.09,
0.86,0.28,-0.39,-0.03,0.05,-0.15,0.08,
0.861,0.51,-0.26,0.11,0.05,-0.15,0.08,
0.863,0.51,-0.26,0.11,0.05,-0.13,0.07,
0.866,0.51,-0.26,0.11,0.05,-0.11,0.06,
0.866,0.64,0.01,0.07,0.05,-0.11,0.06,
0.868,0.64,0.01,0.07,0.05,-0.10,0.05,
0.87,0.64,0.01,0.07,0.05,-0.08,0.05,
0.871,0.63,0.14,-0.08,0.05,-0.08,0.05,
0.873,0.63,0.14,-0.08,0.05,-0.05,0.04,
0.875,0.63,0.14,-0.08,0.06,-0.03,0.03,
0.875,0.46,0.07,-0.22,0.06,-0.03,0.03,
0.878,0.46,0.07,-0.22,0.05,-0.00,0.03,
0.88,0.46,0.07,-0.22,0.05,0.03,0.02,
0.88,0.35,-0.10,-0.21,0.05,0.03,0.02,
0.882,0.35,-0.10,-0.21,0.05,0.05,0.02,
0.885,0.35,-0.10,-0.21,0.05,0.08,0.02,
0.885,0.15,-0.35,-0.01,0.05,0.08,0.02,
0.887,0.15,-0.35,-0.01,0.05,0.09,0.02,
0.891,0.15,-0.35,-0.01,0.05,0.10,0.02,
0.891,-0.03,-0.55,0.22,0.05,0.10,0.02,
0.892,-0.03,-0.55,0.22,0.05,0.10,0.02,
0.896,-0.02,-0.59,0.53,0.05,0.10,0.02,
0.896,-0.02,-0.59,0.53,0.05,0.08,0.02,
0.906,-0.02,-0.59,0.53,0.06,0.05,0.02,
0.906,-0.02,-0.59,0.53,0.06,0.03,0.02,
0.906,-0.22,-0.57,0.70,0.06,0.03,0.02,
0.907,-0.22,-0.57,0.70,0.07,0.00,0.03,
0.907,-0.46,-0.45,0.66,0.07,0.00,0.03,
0.907,-0.46,-0.45,0.66,0.08,-0.01,0.03,
0.907,-0.46,-0.45,0.66,0.09,-0.03,0.04,
0.91,-0.46,-0.45,0.66,0.09,-0.04,0.05,
0.91,-0.60,-0.25,0.53,0.09,-0.04,0.05,
0.913,-0.60,-0.25,0.53,0.09,-0.06,0.06,
0.915,-0.59,-0.09,0.32,0.09,-0.06,0.06,
0.915,-0.59,-0.09,0.32,0.09,-0.09,0.07,
0.917,-0.59,-0.09,0.32,0.09,-0.12,0.07,
0.92,-0.65,0.00,0.12,0.09,-0.12,0.07,
0.92,-0.65,0.00,0.12,0.08,-0.16,0.08,
0.923,-0.65,0.00,0.12,0.08,-0.18,0.09,
0.925,-0.65,0.00,0.12,0.07,-0.20,0.10,
0.925,-0.79,-0.00,0.11,0.07,-0.20,0.10,
0.927,-0.79,-0.00,0.11,0.07,-0.21,0.12,
0.93,-0.71,-0.03,0.15,0.07,-0.21,0.12,
0.931,-0.71,-0.03,0.15,0.07,-0.21,0.13,
0.932,-0.71,-0.03,0.15,0.07,-0.22,0.15,
0.935,-0.71,-0.03,0.15,0.07,-0.23,0.16,
0.935,-0.51,-0.09,-0.04,0.07,-0.23,0.16,
0.937,-0.51,-0.09,-0.04,0.06,-0.24,0.17,
0.94,-0.51,-0.09,-0.04,0.06,-0.24,0.17,
0.94,-0.03,-0.16,-0.32,0.06,-0.24,0.17,
0.942,-0.03,-0.16,-0.32,0.05,-0.24,0.16,
0.946,0.36,-0.22,-0.62,0.05,-0.24,0.16,
0.946,0.36,-0.22,-0.62,0.03,-0.24,0.15,
0.947,0.36,-0.22,-0.62,0.02,-0.22,0.14,
0.95,0.36,-0.22,-0.62,0.00,-0.20,0.12,
0.95,0.80,-0.07,-0.84,0.00,-0.20,0.12,
0.952,0.80,-0.07,-0.84,-0.02,-0.18,0.09,
0.955,0.80,-0.07,-0.84,-0.05,-0.17,0.06,
0.955,0.96,1.01,-0.78,-0.05,-0.17,0.06,
0.957,0.96,1.01,-0.78,-0.01,-0.05,0.04,
0.959,0.96,1.01,-0.78,0.08,0.20,0.06,
0.96,-0.38,2.01,1.28,0.08,0.20,0.06,
0.963,-0.38,2.01,1.28,0.11,0.32,0.10,
0.966,-0.38,2.01,1.28,0.11,0.32,0.12,
0.967,0.28,0.01,0.05,0.11,0.32,0.12,
0.967,0.28,0.01,0.05,0.09,0.28,0.10,
0.97,0.28,0.01,0.05,0.05,0.23,0.07,
0.97,0.77,-1.06,-1.45,0.05,0.23,0.07,
0.972,0.77,-1.06,-1.45,0.02,0.21,0.03,
0.975,0.77,-1.06,-1.45,-0.01,0.20,0.01,
0.976,0.51,-1.15,-1.27,-0.01,0.20,0.01,
0.978,0.51,-1.15,-1.27,-0.04,0.19,0.00,
0.98,0.51,-1.15,-1.27,-0.05,0.19,-0.00,
0.981,0.19,-1.17,-0.21,-0.05,0.19,-0.00,
0.982,0.19,-1.17,-0.21,-0.04,0.21,-0.00,
0.984,0.19,-1.17,-0.21,-0.02,0.23,0.00,
0.985,-0.14,-0.62,0.85,-0.02,0.23,0.00,
1.013,-0.14,-0.62,0.85,0.01,0.24,0.01,
1.013,-0.14,-0.62,0.85,0.03,0.23,0.02,
1.013,-0.27,0.01,1.24,0.03,0.23,0.02,
1.013,-0.27,0.01,1.24,0.04,0.21,0.02,
1.014,-0.27,0.01,1.24,0.05,0.18,0.03,
1.014,-0.30,0.24,0.92,0.05,0.18,0.03,
1.014,-0.30,0.24,0.92,0.05,0.14,0.03,
1.014,-0.30,0.24,0.92,0.04,0.09,0.03,
1.015,-0.43,0.19,0.75,0.04,0.09,0.03,
1.015,-0.43,0.19,0.75,0.04,0.04,0.04,
1.015,-0.43,0.19,0.75,0.04,-0.01,0.04,
1.015,-0.50,-0.01,0.88,0.04,-0.01,0.04,
1.016,-0.50,-0.01,0.88,0.05,-0.05,0.04,
1.016,-0.50,-0.01,0.88,0.05,-0.07,0.05,
1.016,-0.48,-0.09,0.77,0.05,-0.07,0.05,
1.016,-0.48,-0.09,0.77,0.06,-0.08,0.06,
1.017,-0.48,-0.09,0.77,0.07,-0.06,0.06,
1.017,-0.29,-0.13,0.22,0.07,-0.06,0.06,
1.017,-0.29,-0.13,0.22,0.07,-0.05,0.07,
1.023,-0.29,-0.13,0.22,0.07,-0.03,0.07,
1.023,0.08,-0.09,-0.21,0.07,-0.03,0.07,
1.024,0.08,-0.09,-0.21,0.07,-0.01,0.07,
1.024,0.41,0.11,-0.52,0.07,-0.01,0.07,
1.024,0.41,0.11,-0.52,0.07,0.00,0.06,
1.026,0.41,0.11,-0.52,0.05,0.01,0.06,
1.039,0.41,0.11,-0.52,0.05,0.02,0.05,
1.039,0.81,0.53,-0.99,0.05,0.02,0.05,
1.04,0.81,0.53,-0.99,0.03,0.03,0.03,
1.04,0.81,0.53,-0.99,0.01,0.04,0.02,
1.04,0.90,0.41,-1.33,0.01,0.04,0.02,
1.04,0.90,0.41,-1.33,-0.00,0.07,0.01,
1.04,0.90,0.41,-1.33,-0.01,0.12,-0.01,
1.041,1.27,-0.16,-1.50,-0.01,0.12,-0.01,
1.041,1.27,-0.16,-1.50,-0.03,0.18,-0.03,
1.045,1.27,-0.16,-1.50,-0.05,0.24,-0.05,
1.045,1.58,-0.40,-1.43,-0.05,0.24,-0.05,
1.047,1.58,-0.40,-1.43,-0.06,0.29,-0.08,
1.049,1.65,-0.38,-1.14,-0.06,0.29,-0.08,
1.049,1.65,-0.38,-1.14,-0.07,0.34,-0.10,
1.051,1.65,-0.38,-1.14,-0.08,0.39,-0.13,
1.054,1.65,-0.38,-1.14,-0.08,0.42,-0.16,
1.055,1.43,-0.24,-0.50,-0.08,0.42,-0.16,
1.057,1.43,-0.24,-0.50,-0.08,0.44,-0.19,
1.059,1.43,-0.24,-0.50,-0.07,0.45,-0.21,
1.059,0.74,-0.15,0.46,-0.07,0.45,-0.21,
1.061,0.74,-0.15,0.46,-0.06,0.45,-0.22,
1.064,0.01,-0.11,1.41,-0.06,0.45,-0.22,
1.065,0.01,-0.11,1.41,-0.04,0.44,-0.22,
1.066,0.01,-0.11,1.41,-0.03,0.41,-0.22,
1.069,0.01,-0.11,1.41,-0.01,0.36,-0.22,
1.069,-0.80,-0.12,2.04,-0.01,0.36,-0.22,
1.071,-0.80,-0.12,2.04,0.01,0.31,-0.21,
1.074,-1.43,-0.28,2.14,0.01,0.31,-0.21,
1.074,-1.43,-0.28,2.14,0.02,0.24,-0.19,
1.076,-1.43,-0.28,2.14,0.03,0.15,-0.18,
1.08,-1.61,-0.73,1.47,0.03,0.15,-0.18,
1.08,-1.61,-0.73,1.47,0.02,0.04,-0.16,
1.081,-1.61,-0.73,1.47,0.03,-0.03,-0.15,
1.084,-1.61,-0.73,1.47,0.03,-0.07,-0.12,
1.084,-2.42,-0.82,1.19,0.03,-0.07,-0.12,
1.086,-2.42,-0.82,1.19,0.03,-0.08,-0.07,
1.088,-2.42,-0.82,1.19,0.04,-0.09,-0.02,
1.089,-2.76,-0.33,0.90,0.04,-0.09,-0.02,
1.091,-2.76,-0.33,0.90,0.05,-0.10,0.03,
1.093,-2.76,-0.33,0.90,0.06,-0.10,0.08,
1.094,-1.98,0.22,0.30,0.06,-0.10,0.08,
1.099,-1.98,0.22,0.30,0.06,-0.11,0.11,
1.099,-1.98,0.22,0.30,0.06,-0.12,0.12,
1.1,-0.52,0.51,-0.35,0.06,-0.12,0.12,
1.102,-0.52,0.51,-0.35,0.05,-0.12,0.13,
1.103,0.75,0.72,-0.91,0.05,-0.12,0.13,
1.104,0.75,0.72,-0.91,0.05,-0.11,0.12,
1.107,0.75,0.72,-0.91,0.04,-0.07,0.10,
1.108,0.75,0.72,-0.91,0.04,-0.02,0.08,
1.109,1.71,0.59,-0.96,0.04,-0.02,0.08,
1.111,1.71,0.59,-0.96,0.03,0.04,0.05,
1.114,2.25,0.08,-0.66,0.03,0.04,0.05,
1.114,2.25,0.08,-0.66,0.03,0.10,0.01,
1.117,2.25,0.08,-0.66,0.04,0.16,-0.02,
1.118,2.25,0.08,-0.66,0.04,0.22,-0.05,
1.118,2.26,-0.30,-0.43,0.04,0.22,-0.05,
1.12,2.26,-0.30,-0.43,0.03,0.29,-0.09,
1.123,1.91,-0.46,-0.34,0.03,0.29,-0.09,
1.123,1.91,-0.46,-0.34,0.04,0.36,-0.12,
1.125,1.91,-0.46,-0.34,0.04,0.42,-0.14,
1.128,1.91,-0.46,-0.34,0.04,0.47,-0.16,
1.128,1.51,-0.43,0.01,0.04,0.47,-0.16,
1.132,1.51,-0.43,0.01,0.04,0.51,-0.18,
1.134,1.12,-0.48,0.36,0.04,0.51,-0.18,
1.134,1.12,-0.48,0.36,0.04,0.53,-0.21,
1.135,1.12,-0.48,0.36,0.04,0.53,-0.23,
1.138,1.12,-0.48,0.36,0.05,0.53,-0.25,
1.138,0.43,-0.39,0.84,0.05,0.53,-0.25,
1.14,0.43,-0.39,0.84,0.05,0.52,-0.26,
1.143,0.43,-0.39,0.84,0.07,0.50,-0.26,
1.143,-0.62,-0.30,1.47,0.07,0.50,-0.26,
1.147,-0.62,-0.30,1.47,0.08,0.47,-0.25,
1.148,-0.62,-0.30,1.47,0.09,0.44,-0.24,
1.148,-1.46,-0.57,2.10,0.09,0.44,-0.24,
1.15,-1.46,-0.57,2.10,0.11,0.40,-0.22,
1.169,-1.46,-0.57,2.10,0.12,0.36,-0.19,
1.17,-2.37,-0.17,2.25,0.12,0.36,-0.19,
1.17,-2.37,-0.17,2.25,0.14,0.30,-0.16,
1.17,-2.37,-0.17,2.25,0.16,0.22,-0.12,
1.17,-2.84,-0.09,2.21,0.16,0.22,-0.12,
1.171,-2.84,-0.09,2.21,0.17,0.16,-0.08,
1.171,-2.84,-0.09,2.21,0.18,0.11,-0.04,
1.171,-2.66,-0.14,1.65,0.18,0.11,-0.04,
1.171,-2.66,-0.14,1.65,0.19,0.06,-0.01,
1.172,-2.66,-0.14,1.65,0.19,0.02,0.02,
1.172,-1.99,-0.09,0.89,0.19,0.02,0.02,
1.172,-1.99,-0.09,0.89,0.20,0.00,0.05,
1.173,-1.99,-0.09,0.89,0.20,-0.01,0.07,
1.173,-1.19,0.01,0.24,0.20,-0.01,0.07,
1.175,-1.19,0.01,0.24,0.20,-0.01,0.08,
1.178,-1.19,0.01,0.24,0.20,0.00,0.08,
1.178,-0.14,-0.02,-0.07,0.20,0.00,0.08,
1.185,-0.14,-0.02,-0.07,0.20,0.02,0.08,
1.186,-0.14,-0.02,-0.07,0.20,0.03,0.08,
1.186,0.43,-0.01,-0.26,0.20,0.03,0.08,
1.186,0.43,-0.01,-0.26,0.20,0.05,0.07,
1.19,0.43,-0.01,-0.26,0.19,0.07,0.07,
1.19,0.68,-0.07,-0.32,0.19,0.07,0.07,
1.191,0.68,-0.07,-0.32,0.19,0.08,0.06,
1.194,0.68,-0.07,-0.32,0.19,0.10,0.05,
1.194,0.70,0.03,-0.26,0.19,0.10,0.05,
1.195,0.70,0.03,-0.26,0.20,0.13,0.04,
1.201,0.70,0.03,-0.26,0.21,0.17,0.02,
1.201,0.74,0.07,-0.14,0.21,0.17,0.02,
1.201,0.74,0.07,-0.14,0.20,0.15,0.02,
1.203,0.74,0.07,-0.14,0.19,0.12,0.02,
1.203,-0.13,0.19,-0.22,0.19,0.12,0.02,
1.205,-0.13,0.19,-0.22,0.18,0.09,0.03,
1.207,-0.13,0.19,-0.22,0.17,0.07,0.03,
1.207,-0.34,-0.13,-0.14,0.17,0.07,0.03,
1.21,-0.34,-0.13,-0.14,0.17,0.10,0.02,
1.213,0.85,-0.16,0.40,0.17,0.10,0.02,
1.213,0.85,-0.16,0.40,0.18,0.16,-0.01,
1.217,0.85,-0.16,0.40,0.19,0.21,-0.03,
1.218,0.85,-0.16,0.40,0.21,0.25,-0.04,
1.218,0.69,-0.03,0.59,0.21,0.25,-0.04,
1.22,0.69,-0.03,0.59,0.20,0.22,-0.03,
1.223,-0.57,-0.22,-0.15,0.20,0.22,-0.03,
1.224,-0.57,-0.22,-0.15,0.18,0.13,0.00,
1.226,-0.57,-0.22,-0.15,0.17,0.11,-0.03,
1.227,-0.57,-0.22,-0.15,0.16,0.08,-0.08,
1.227,0.73,-0.48,-0.38,0.16,0.08,-0.08,
1.229,0.73,-0.48,-0.38,0.14,0.08,-0.10,
1.233,0.73,-0.48,-0.38,0.14,0.11,-0.12,
1.233,0.51,-0.34,-0.02,0.14,0.11,-0.12,
1.235,0.51,-0.34,-0.02,0.15,0.14,-0.12,
1.237,0.51,-0.34,-0.02,0.16,0.17,-0.13,
1.237,0.51,-0.00,0.42,0.16,0.17,-0.13,
1.239,0.51,-0.00,0.42,0.17,0.23,-0.14,
1.242,0.51,-0.00,0.42,0.17,0.26,-0.15,
1.243,-0.09,0.13,0.02,0.17,0.26,-0.15,
1.244,-0.09,0.13,0.02,0.17,0.26,-0.14,
1.248,-0.09,0.13,0.02,0.16,0.24,-0.14,
1.248,-0.73,0.26,-0.12,0.16,0.24,-0.14,
1.25,-0.73,0.26,-0.12,0.16,0.21,-0.13,
1.252,-0.73,0.26,-0.12,0.15,0.15,-0.11,
1.253,-1.85,0.60,-0.07,0.15,0.15,-0.11,
1.254,-1.85,0.60,-0.07,0.14,0.14,-0.08,
1.257,-1.85,0.60,-0.07,0.15,0.17,-0.05,
1.257,-2.36,1.04,0.08,0.15,0.17,-0.05,
1.26,-2.36,1.04,0.08,0.17,0.23,-0.01,
1.262,-2.36,1.04,0.08,0.20,0.37,0.01,
1.262,-1.65,1.17,0.47,0.20,0.37,0.01,
1.265,-1.65,1.17,0.47,0.23,0.55,0.02,
1.267,-1.65,1.17,0.47,0.27,0.67,0.05,
1.267,-1.23,1.36,1.23,0.27,0.67,0.05,
1.269,-1.23,1.36,1.23,0.30,0.82,0.08,
1.272,-1.23,1.36,1.23,0.32,1.04,0.12,
1.272,-0.83,0.54,0.49,0.32,1.04,0.12,
1.274,-0.83,0.54,0.49,0.31,1.11,0.16,
1.277,-0.83,0.54,0.49,0.30,1.02,0.20,
1.277,-1.19,-0.21,0.16,0.30,1.02,0.20,
1.28,-1.19,-0.21,0.16,0.28,0.84,0.22,
1.283,-1.19,-0.21,0.16,0.25,0.59,0.21,
1.284,-0.95,-0.72,0.49,0.25,0.59,0.21,
1.285,-0.95,-0.72,0.49,0.22,0.32,0.18,
1.287,-0.95,-0.72,0.49,0.19,0.08,0.15,
1.287,-0.76,-1.04,0.54,0.19,0.08,0.15,
1.289,-0.76,-1.04,0.54,0.18,-0.02,0.13,
1.292,-0.76,-1.04,0.54,0.21,-0.03,0.13,
1.292,-0.93,-1.24,0.93,0.21,-0.03,0.13,
1.294,-0.93,-1.24,0.93,0.24,0.07,0.15,
1.299,-0.24,-0.87,1.18,0.24,0.07,0.15,
1.3,-0.24,-0.87,1.18,0.28,0.17,0.18,
1.301,-0.24,-0.87,1.18,0.30,0.24,0.20,
1.302,-0.24,-0.87,1.18,0.32,0.27,0.21,
1.302,0.55,-0.55,0.86,0.32,0.27,0.21,
1.304,0.55,-0.55,0.86,0.32,0.33,0.20,
1.307,0.55,-0.55,0.86,0.33,0.40,0.19,
1.307,1.18,-0.25,0.12,0.33,0.40,0.19,
1.309,1.18,-0.25,0.12,0.31,0.45,0.18,
1.314,1.18,-0.25,0.12,0.29,0.47,0.18,
1.314,0.57,0.22,0.05,0.29,0.47,0.18,
1.315,0.57,0.22,0.05,0.28,0.45,0.18,
1.321,0.57,0.22,0.05,0.28,0.42,0.17,
1.338,-0.13,-0.24,0.74,0.28,0.42,0.17,
1.339,-0.13,-0.24,0.74,0.29,0.39,0.16,
1.339,-0.13,-0.24,0.74,0.28,0.35,0.15,
1.339,0.07,-0.20,0.53,0.28,0.35,0.15,
1.339,0.07,-0.20,0.53,0.28,0.31,0.13,
1.339,0.07,-0.20,0.53,0.29,0.28,0.12,
1.339,0.20,-0.23,0.41,0.29,0.28,0.12,
1.34,0.20,-0.23,0.41,0.30,0.29,0.12,
1.34,-0.48,-0.38,0.32,0.30,0.29,0.12,
1.34,-0.48,-0.38,0.32,0.30,0.32,0.12,
1.34,-0.48,-0.38,0.32,0.31,0.36,0.14,
1.34,-0.82,-0.50,0.08,0.31,0.36,0.14,
1.34,-0.82,-0.50,0.08,0.32,0.42,0.17,
1.341,-0.82,-0.50,0.08,0.33,0.47,0.20,
1.341,-1.02,-0.33,-0.17,0.33,0.47,0.20,
1.342,-1.02,-0.33,-0.17,0.33,0.50,0.22,
1.345,-1.02,-0.33,-0.17,0.32,0.52,0.25,
1.35,-1.10,-0.19,-0.19,0.32,0.52,0.25,
1.351,-1.10,-0.19,-0.19,0.31,0.52,0.27,
1.351,-1.10,-0.19,-0.19,0.31,0.50,0.29,
1.352,-1.09,-0.05,0.08,0.31,0.50,0.29,
1.353,-1.09,-0.05,0.08,0.30,0.47,0.31,
1.355,-1.09,-0.05,0.08,0.31,0.45,0.33,
1.356,-1.09,-0.05,0.08,0.32,0.45,0.34,
1.356,-0.89,0.07,0.30,0.32,0.45,0.34,
1.359,-0.89,0.07,0.30,0.33,0.45,0.36,
1.361,-0.69,0.09,0.37,0.33,0.45,0.36,
1.361,-0.69,0.09,0.37,0.34,0.45,0.38,
1.367,-0.47,0.06,0.28,0.34,0.45,0.38,
1.367,-0.47,0.06,0.28,0.36,0.46,0.40,
1.368,-0.47,0.06,0.28,0.37,0.46,0.42,
1.369,-0.47,0.06,0.28,0.38,0.47,0.43,
1.371,-0.47,0.06,0.28,0.39,0.47,0.45,
1.372,-0.22,0.03,0.15,0.39,0.47,0.45,
1.374,-0.22,0.03,0.15,0.39,0.48,0.46,
1.376,-0.22,0.03,0.15,0.40,0.50,0.47,
1.376,-0.04,0.02,0.14,0.40,0.50,0.47,
1.379,-0.04,0.02,0.14,0.41,0.52,0.48,
1.382,0.08,-0.04,0.20,0.41,0.52,0.48,
1.382,0.08,-0.04,0.20,0.41,0.54,0.49,
1.384,0.08,-0.04,0.20,0.42,0.58,0.49,
1.386,0.08,-0.04,0.20,0.42,0.62,0.48,
1.386,-0.03,-0.06,0.22,0.42,0.62,0.48,
1.388,-0.03,-0.06,0.22,0.41,0.66,0.48,
1.391,-0.03,-0.06,0.22,0.41,0.70,0.46,
1.391,-0.35,0.00,0.28,0.41,0.70,0.46,
1.393,-0.35,0.00,0.28,0.40,0.74,0.45,
1.4,-0.89,0.14,0.42,0.40,0.74,0.45,
1.401,-0.89,0.14,0.42,0.39,0.78,0.44,
1.401,-0.89,0.14,0.42,0.38,0.81,0.44,
1.402,-1.48,0.35,0.62,0.38,0.81,0.44,
1.402,-1.48,0.35,0.62,0.37,0.83,0.45,
1.404,-1.48,0.35,0.62,0.37,0.85,0.46,
1.406,-1.97,0.48,0.81,0.37,0.85,0.46,
1.407,-1.97,0.48,0.81,0.36,0.86,0.49,
1.408,-1.97,0.48,0.81,0.36,0.86,0.51,
1.411,-2.33,0.56,0.95,0.36,0.86,0.51,
1.412,-2.33,0.56,0.95,0.37,0.84,0.54,
1.422,-2.33,0.56,0.95,0.37,0.82,0.57,
1.423,-2.52,0.55,0.94,0.37,0.82,0.57,
1.424,-2.52,0.55,0.94,0.38,0.79,0.59,
1.424,-2.52,0.55,0.94,0.38,0.76,0.62,
1.424,-2.64,0.43,0.61,0.38,0.76,0.62,
1.425,-2.64,0.43,0.61,0.39,0.72,0.65,
1.425,-2.64,0.43,0.61,0.39,0.68,0.68,
1.426,-2.57,0.29,0.22,0.39,0.68,0.68,
1.426,-2.57,0.29,0.22,0.39,0.65,0.71,
1.429,-2.57,0.29,0.22,0.39,0.62,0.74,
1.433,-2.32,0.10,-0.04,0.39,0.62,0.74,
1.433,-2.32,0.10,-0.04,0.39,0.58,0.76,
1.434,-2.32,0.10,-0.04,0.38,0.55,0.79,
1.437,-1.95,0.05,-0.16,0.38,0.55,0.79,
1.437,-1.95,0.05,-0.16,0.38,0.52,0.82,
1.44,-1.95,0.05,-0.16,0.38,0.49,0.84,
1.441,-1.95,0.05,-0.16,0.37,0.47,0.86,
1.441,-1.48,0.07,-0.19,0.37,0.47,0.86,
1.443,-1.48,0.07,-0.19,0.37,0.46,0.88,
1.445,-1.48,0.07,-0.19,0.37,0.46,0.90,
1.447,-1.07,0.05,-0.13,0.37,0.46,0.90,
1.449,-1.07,0.05,-0.13,0.37,0.46,0.92,
1.451,-1.07,0.05,-0.13,0.37,0.47,0.94,
1.452,-0.67,0.08,-0.04,0.37,0.47,0.94,
1.453,-0.67,0.08,-0.04,0.37,0.48,0.95,
1.455,-0.67,0.08,-0.04,0.38,0.49,0.95,
1.455,-0.35,0.07,0.03,0.38,0.49,0.95,
1.458,-0.35,0.07,0.03,0.38,0.51,0.96,
1.461,-0.35,0.07,0.03,0.38,0.53,0.96,
1.461,-0.14,0.02,0.09,0.38,0.53,0.96,
1.463,-0.14,0.02,0.09,0.38,0.56,0.97,
1.466,-0.14,0.02,0.09,0.37,0.59,0.97,
1.467,-0.03,-0.05,0.11,0.37,0.59,0.97,
1.467,-0.03,-0.05,0.11,0.37,0.62,0.97,
1.47,-0.03,-0.05,0.11,0.37,0.64,0.97,
1.47,-0.00,-0.10,0.13,0.37,0.64,0.97,
1.472,-0.00,-0.10,0.13,0.37,0.67,0.97,
1.475,-0.00,-0.10,0.13,0.37,0.70,0.98,
1.475,-0.13,-0.08,0.05,0.37,0.70,0.98,
1.478,-0.13,-0.08,0.05,0.37,0.73,0.99,
1.48,-0.23,-0.13,-0.11,0.37,0.73,0.99,
1.481,-0.23,-0.13,-0.11,0.36,0.77,0.99,
1.505,-0.23,-0.13,-0.11,0.34,0.80,1.00,
1.506,-0.23,-0.13,-0.11,0.33,0.84,1.00,
1.506,-0.29,-0.28,-0.16,0.33,0.84,1.00,
1.506,-0.29,-0.28,-0.16,0.32,0.87,1.01,
1.506,-0.29,-0.28,-0.16,0.31,0.88,1.01,
1.507,-0.40,-0.45,0.00,0.31,0.88,1.01,
1.507,-0.40,-0.45,0.00,0.30,0.89,1.01,
1.507,-0.40,-0.45,0.00,0.30,0.88,1.02,
1.507,-0.65,-0.57,0.11,0.30,0.88,1.02,
1.508,-0.65,-0.57,0.11,0.31,0.87,1.02,
1.508,-0.65,-0.57,0.11,0.32,0.84,1.03,
1.508,-0.93,-0.60,0.09,0.32,0.84,1.03,
1.508,-0.93,-0.60,0.09,0.34,0.79,1.04,
1.509,-1.16,-0.63,-0.13,0.34,0.79,1.04,
1.509,-1.16,-0.63,-0.13,0.35,0.74,1.06,
1.509,-1.16,-0.63,-0.13,0.36,0.68,1.08,
1.513,-1.16,-0.63,-0.13,0.36,0.63,1.10,
1.514,-1.24,-0.66,-0.49,0.36,0.63,1.10,
1.516,-1.24,-0.66,-0.49,0.36,0.57,1.13,
1.516,-1.24,-0.66,-0.49,0.35,0.52,1.15,
1.518,-1.14,-0.48,-0.86,0.35,0.52,1.15,
1.518,-1.14,-0.48,-0.86,0.34,0.47,1.17,
1.52,-1.14,-0.48,-0.86,0.33,0.44,1.19,
1.521,-1.05,-0.18,-1.07,0.33,0.44,1.19,
1.524,-1.05,-0.18,-1.07,0.31,0.42,1.22,
1.526,-1.05,-0.18,-1.07,0.29,0.41,1.24,
1.527,-0.95,0.17,-1.07,0.29,0.41,1.24,
1.53,-0.95,0.17,-1.07,0.27,0.41,1.26,
1.535,-0.95,0.17,-1.07,0.26,0.42,1.27,
1.536,-0.83,0.43,-0.80,0.26,0.42,1.27,
1.536,-0.83,0.43,-0.80,0.25,0.43,1.30,
1.536,-0.83,0.43,-0.80,0.25,0.46,1.32,
1.536,-0.60,0.52,-0.57,0.25,0.46,1.32,
1.538,-0.60,0.52,-0.57,0.25,0.49,1.34,
1.54,-0.60,0.52,-0.57,0.25,0.52,1.36,
1.541,-0.40,0.43,-0.50,0.25,0.52,1.36,
1.542,-0.40,0.43,-0.50,0.26,0.56,1.38,
1.544,-0.40,0.43,-0.50,0.27,0.60,1.39,
1.544,-0.20,0.22,-0.56,0.27,0.60,1.39,
1.547,-0.20,0.22,-0.56,0.27,0.66,1.41,
1.55,-0.20,0.22,-0.56,0.28,0.73,1.42,
1.55,-0.06,-0.05,-0.59,0.28,0.73,1.42,
1.552,-0.06,-0.05,-0.59,0.29,0.80,1.44,
1.554,-0.06,-0.05,-0.59,0.30,0.88,1.47,
1.555,0.14,-0.31,-0.49,0.30,0.88,1.47,
1.557,0.14,-0.31,-0.49,0.32,0.96,1.50,
1.559,0.14,-0.31,-0.49,0.35,1.03,1.53,
1.559,0.37,-0.47,-0.49,0.35,1.03,1.53,
1.562,0.37,-0.47,-0.49,0.38,1.10,1.57,
1.565,0.37,-0.47,-0.49,0.42,1.17,1.61,
1.565,0.65,-0.51,-0.76,0.42,1.17,1.61,
1.567,0.65,-0.51,-0.76,0.45,1.25,1.65,
1.569,0.65,-0.51,-0.76,0.48,1.34,1.68,
1.57,1.07,-0.55,-1.43,0.48,1.34,1.68,
1.572,1.07,-0.55,-1.43,0.49,1.46,1.68,
1.574,1.07,-0.55,-1.43,0.49,1.59,1.68,
1.574,1.42,-0.73,-2.15,0.49,1.59,1.68,
1.577,1.42,-0.73,-2.15,0.49,1.73,1.67,
1.58,1.42,-0.73,-2.15,0.47,1.88,1.64,
1.581,1.61,-0.89,-2.59,0.47,1.88,1.64,
1.583,1.61,-0.89,-2.59,0.43,2.01,1.59,
1.585,1.61,-0.89,-2.59,0.36,2.13,1.54,
1.586,1.45,-0.86,-2.43,0.36,2.13,1.54,
1.587,1.45,-0.86,-2.43,0.30,2.22,1.49,
1.589,1.45,-0.86,-2.43,0.24,2.27,1.46,
1.59,0.66,-0.72,-1.27,0.24,2.27,1.46,
1.592,0.66,-0.72,-1.27,0.21,2.28,1.45,
1.594,0.66,-0.72,-1.27,0.20,2.28,1.48,
1.594,-0.27,-0.52,0.26,0.20,2.28,1.48,
1.597,-0.27,-0.52,0.26,0.23,2.26,1.54,
1.6,-0.54,-0.24,1.01,0.23,2.26,1.54,
1.601,-0.54,-0.24,1.01,0.27,2.24,1.60,
1.602,-0.54,-0.24,1.01,0.31,2.24,1.64,
1.604,-0.54,-0.24,1.01,0.33,2.27,1.65,
1.604,-0.36,-0.23,0.76,0.33,2.27,1.65,
1.609,-0.36,-0.23,0.76,0.34,2.31,1.64,
1.609,-0.36,-0.23,0.76,0.35,2.33,1.63,
1.609,-0.45,-0.17,0.55,0.35,2.33,1.63,
1.611,-0.45,-0.17,0.55,0.35,2.32,1.63,
1.615,-0.66,0.01,0.57,0.35,2.32,1.63,
1.615,-0.66,0.01,0.57,0.35,2.30,1.62,
1.619,-0.66,0.01,0.57,0.34,2.27,1.62,
1.619,-0.80,0.41,0.51,0.34,2.27,1.62,
1.62,-0.80,0.41,0.51,0.33,2.25,1.63,
1.63,-0.80,0.41,0.51,0.32,2.24,1.65,
1.631,-0.80,0.41,0.51,0.30,2.24,1.65,
1.632,-0.80,0.41,0.51,0.27,2.27,1.63,
1.632,-0.53,0.63,0.17,0.27,2.27,1.63,
1.633,-0.33,0.60,-0.15,0.27,2.27,1.63,
1.634,-0.33,0.60,-0.15,0.24,2.30,1.61,
1.634,-0.33,0.60,-0.15,0.21,2.34,1.59,
1.635,-0.33,0.60,-0.15,0.18,2.37,1.57,
1.635,-0.53,0.44,-0.09,0.18,2.37,1.57,
1.638,-0.53,0.44,-0.09,0.16,2.39,1.54,
1.639,-0.53,0.44,-0.09,0.11,2.41,1.50,
1.64,-1.00,0.15,-0.07,0.11,2.41,1.50,
1.641,-1.00,0.15,-0.07,0.06,2.43,1.44,
1.644,-1.00,0.15,-0.07,0.02,2.43,1.38,
1.644,-2.11,-0.21,0.28,0.02,2.43,1.38,
1.647,-2.11,-0.21,0.28,-0.02,2.41,1.35,
1.668,-3.54,-0.47,1.16,-0.02,2.41,1.35,
1.668,-3.54,-0.47,1.16,-0.05,2.34,1.34,
1.668,-3.54,-0.47,1.16,-0.06,2.25,1.35,
1.668,-3.54,-0.47,1.16,-0.07,2.14,1.35,
1.668,-4.73,-0.62,1.84,-0.07,2.14,1.35,
1.669,-4.73,-0.62,1.84,-0.07,2.01,1.36,
1.669,-4.73,-0.62,1.84,-0.05,1.87,1.37,
1.669,-5.54,-0.86,2.36,-0.05,1.87,1.37,
1.669,-5.54,-0.86,2.36,-0.03,1.70,1.40,
1.669,-6.23,-1.02,2.72,-0.03,1.70,1.40,
1.67,-6.23,-1.02,2.72,0.01,1.50,1.44,
1.67,-6.23,-1.02,2.72,0.04,1.28,1.48,
1.67,-6.23,-1.02,2.72,0.07,1.06,1.53,
1.67,-6.39,-1.17,2.68,0.07,1.06,1.53,
1.671,-6.39,-1.17,2.68,0.09,0.84,1.58,
1.675,-6.39,-1.17,2.68,0.10,0.62,1.65,
1.675,-6.08,-1.24,2.66,0.10,0.62,1.65,
1.677,-6.08,-1.24,2.66,0.12,0.42,1.74,
1.68,-4.91,-1.24,2.74,0.12,0.42,1.74,
1.68,-4.91,-1.24,2.74,0.15,0.22,1.84,
1.683,-4.91,-1.24,2.74,0.20,0.04,1.94,
1.688,-2.90,-1.25,2.26,0.20,0.04,1.94,
1.688,-2.90,-1.25,2.26,0.25,-0.11,2.02,
1.689,-2.90,-1.25,2.26,0.26,-0.22,2.08,
1.689,-0.93,-1.06,1.14,0.26,-0.22,2.08,
1.69,-0.93,-1.06,1.14,0.24,-0.29,2.13,
1.691,-0.93,-1.06,1.14,0.20,-0.30,2.17,
1.694,-0.93,-1.06,1.14,0.16,-0.29,2.20,
1.694,0.63,-0.67,0.45,0.16,-0.29,2.20,
1.696,0.63,-0.67,0.45,0.14,-0.25,2.20,
1.7,1.91,-0.47,0.26,0.14,-0.25,2.20,
1.703,1.91,-0.47,0.26,0.12,-0.20,2.20,
1.703,1.91,-0.47,0.26,0.11,-0.16,2.18,
1.704,2.68,-0.35,-0.04,0.11,-0.16,2.18,
1.706,2.68,-0.35,-0.04,0.11,-0.13,2.15,
1.706,2.68,-0.35,-0.04,0.10,-0.09,2.10,
1.709,2.68,-0.35,-0.04,0.08,-0.03,2.05,
1.71,2.77,-0.15,-0.84,0.08,-0.03,2.05,
1.711,2.77,-0.15,-0.84,0.05,0.03,1.99,
1.722,2.77,-0.15,-0.84,0.01,0.11,1.94,
1.724,2.44,0.25,-1.55,0.01,0.11,1.94,
1.724,2.44,0.25,-1.55,-0.04,0.18,1.88,
1.725,2.44,0.25,-1.55,-0.07,0.26,1.82,
1.725,1.73,0.64,-1.69,-0.07,0.26,1.82,
1.726,1.73,0.64,-1.69,-0.10,0.32,1.78,
1.726,0.35,0.94,-1.50,-0.10,0.32,1.78,
1.727,0.35,0.94,-1.50,-0.11,0.37,1.75,
1.727,0.35,0.94,-1.50,-0.11,0.40,1.74,
1.728,0.35,0.94,-1.50,-0.10,0.42,1.76,
1.729,-0.95,0.72,-1.48,-0.10,0.42,1.76,
1.731,-0.95,0.72,-1.48,-0.11,0.42,1.78,
1.734,-1.57,0.09,-1.47,-0.11,0.42,1.78,
1.735,-1.57,0.09,-1.47,-0.12,0.42,1.81,
1.736,-1.57,0.09,-1.47,-0.13,0.41,1.85,
1.738,-1.62,-0.77,-1.06,-0.13,0.41,1.85,
1.739,-1.62,-0.77,-1.06,-0.15,0.40,1.88,
1.741,-1.62,-0.77,-1.06,-0.16,0.40,1.91,
1.745,-1.27,-1.63,-0.04,-0.16,0.40,1.91,
1.746,-1.27,-1.63,-0.04,-0.17,0.39,1.94,
1.748,-1.27,-1.63,-0.04,-0.18,0.40,1.96,
1.749,-0.73,-2.24,1.29,-0.18,0.40,1.96,
1.749,-0.73,-2.24,1.29,-0.18,0.40,1.97,
1.751,-0.73,-2.24,1.29,-0.17,0.40,1.98,
1.754,-0.17,-2.68,2.36,-0.17,0.40,1.98,
1.754,-0.17,-2.68,2.36,-0.16,0.40,1.99,
1.756,-0.17,-2.68,2.36,-0.14,0.41,1.98,
1.758,-0.17,-2.68,2.36,-0.12,0.42,1.97,
1.758,0.16,-2.64,2.73,-0.12,0.42,1.97,
1.76,0.16,-2.64,2.73,-0.11,0.43,1.95,
1.764,0.16,-2.64,2.73,-0.09,0.44,1.94,
1.764,0.09,-2.11,2.50,-0.09,0.44,1.94,
1.765,0.09,-2.11,2.50,-0.08,0.44,1.92,
1.768,0.09,-2.11,2.50,-0.06,0.42,1.90,
1.769,-0.19,-1.51,2.08,-0.06,0.42,1.90,
1.77,-0.19,-1.51,2.08,-0.04,0.39,1.89,
1.773,-0.19,-1.51,2.08,-0.01,0.35,1.86,
1.773,-0.55,-1.35,1.79,-0.01,0.35,1.86,
1.775,-0.55,-1.35,1.79,0.03,0.31,1.85,
1.778,-1.09,-1.92,1.60,0.03,0.31,1.85,
1.778,-1.09,-1.92,1.60,0.08,0.25,1.83,
1.781,-1.09,-1.92,1.60,0.12,0.19,1.83,
1.783,-1.34,-2.97,1.21,0.12,0.19,1.83,
1.785,-1.34,-2.97,1.21,0.16,0.13,1.83,
1.785,-1.34,-2.97,1.21,0.18,0.05,1.85,
1.789,-1.34,-2.97,1.21,0.18,-0.03,1.88,
1.79,-1.07,-3.76,0.82,0.18,-0.03,1.88,
1.79,-1.07,-3.76,0.82,0.17,-0.09,1.91,
1.793,-0.14,-3.73,0.96,0.17,-0.09,1.91,
1.793,-0.14,-3.73,0.96,0.15,-0.14,1.94,
1.795,-0.14,-3.73,0.96,0.13,-0.18,1.97,
1.812,1.20,-2.86,1.98,0.13,-0.18,1.97,
1.818,1.20,-2.86,1.98,0.13,-0.22,2.00,
1.818,1.20,-2.86,1.98,0.13,-0.25,2.00,
1.819,1.20,-2.86,1.98,0.14,-0.28,1.99,
1.82,2.29,-1.50,2.96,0.14,-0.28,1.99,
1.82,2.71,-0.19,3.05,0.14,-0.28,1.99,
1.82,2.71,-0.19,3.05,0.15,-0.30,1.95,
1.821,2.71,-0.19,3.05,0.17,-0.32,1.90,
1.821,2.71,-0.19,3.05,0.18,-0.34,1.84,
1.822,2.71,-0.19,3.05,0.20,-0.36,1.78,
1.847,2.71,-0.19,3.05,0.22,-0.39,1.74,
1.848,2.71,-0.19,3.05,0.25,-0.43,1.71,
1.848,2.47,0.62,2.50,0.25,-0.43,1.71,
1.848,1.91,0.59,1.86,0.25,-0.43,1.71,
1.848,1.91,0.59,1.86,0.29,-0.45,1.69,
1.849,1.91,0.59,1.86,0.33,-0.46,1.67,
1.849,1.24,0.07,0.98,0.33,-0.46,1.67,
1.849,1.24,0.07,0.98,0.35,-0.47,1.66,
1.849,1.24,0.07,0.98,0.37,-0.46,1.64,
1.85,0.92,-0.26,-0.36,0.37,-0.46,1.64,
1.85,0.92,-0.26,-0.36,0.37,-0.44,1.62,
1.85,1.03,0.06,-1.43,0.37,-0.44,1.62,
1.85,1.03,0.06,-1.43,0.37,-0.42,1.60,
1.85,1.03,0.06,-1.43,0.35,-0.41,1.58,
1.851,1.03,0.06,-1.43,0.34,-0.40,1.56,
1.851,1.44,0.89,-1.50,0.34,-0.40,1.56,
1.851,1.44,0.89,-1.50,0.33,-0.39,1.54,
1.851,1.44,0.89,-1.50,0.32,-0.36,1.51,
1.851,2.15,1.80,-0.82,0.32,-0.36,1.51,
1.852,2.15,1.80,-0.82,0.33,-0.32,1.46,
1.852,2.68,2.23,-0.05,0.33,-0.32,1.46,
1.852,2.68,2.23,-0.05,0.34,-0.28,1.41,
1.852,2.68,2.23,-0.05,0.35,-0.23,1.36,
1.853,2.68,2.23,-0.05,0.35,-0.20,1.31,
1.853,2.79,2.05,-0.10,0.35,-0.20,1.31,
1.857,2.79,2.05,-0.10,0.35,-0.17,1.26,
1.858,2.79,2.05,-0.10,0.33,-0.14,1.22,
1.858,2.61,1.59,-0.53,0.33,-0.14,1.22,
1.86,2.61,1.59,-0.53,0.32,-0.11,1.18,
1.863,2.61,1.59,-0.53,0.31,-0.09,1.14,
1.864,2.55,1.03,-0.50,0.31,-0.09,1.14,
1.865,2.55,1.03,-0.50,0.31,-0.07,1.10,
1.867,2.55,1.03,-0.50,0.31,-0.06,1.07,
1.867,2.43,0.52,-0.28,0.31,-0.06,1.07,
1.869,2.43,0.52,-0.28,0.31,-0.04,1.03,
1.872,2.43,0.52,-0.28,0.30,-0.03,0.99,
1.872,2.27,0.03,-0.22,0.30,-0.03,0.99,
1.874,2.27,0.03,-0.22,0.31,-0.02,0.96,
1.876,2.27,0.03,-0.22,0.31,-0.02,0.92,
1.877,2.08,-0.39,0.02,0.31,-0.02,0.92,
1.879,2.08,-0.39,0.02,0.31,-0.03,0.90,
1.882,1.94,-0.55,0.39,0.31,-0.03,0.90,
1.882,1.94,-0.55,0.39,0.31,-0.03,0.87,
1.884,1.94,-0.55,0.39,0.30,-0.03,0.85,
1.886,1.94,-0.55,0.39,0.30,-0.04,0.82,
1.886,2.02,-0.40,0.63,0.30,-0.04,0.82,
1.889,2.02,-0.40,0.63,0.31,-0.06,0.79,
1.891,2.02,-0.40,0.63,0.32,-0.08,0.76,
1.891,2.17,-0.19,0.59,0.32,-0.08,0.76,
1.894,2.17,-0.19,0.59,0.32,-0.09,0.73,
1.898,2.28,-0.31,0.30,0.32,-0.09,0.73,
1.898,2.28,-0.31,0.30,0.33,-0.11,0.69,
1.899,2.28,-0.31,0.30,0.33,-0.12,0.65,
1.903,2.18,-0.64,0.03,0.33,-0.12,0.65,
1.904,2.18,-0.64,0.03,0.34,-0.12,0.61,
1.904,2.18,-0.64,0.03,0.33,-0.13,0.58,
1.906,2.18,-0.64,0.03,0.32,-0.13,0.55,
1.906,2.18,-0.72,-0.23,0.32,-0.13,0.55,
1.909,2.18,-0.72,-0.23,0.31,-0.13,0.52,
1.911,2.18,-0.72,-0.23,0.30,-0.12,0.49,
1.911,2.24,-0.47,-0.26,0.30,-0.12,0.49,
1.914,2.24,-0.47,-0.26,0.29,-0.12,0.46,
1.916,2.24,-0.47,-0.26,0.29,-0.12,0.42,
1.917,2.25,-0.15,-0.05,0.29,-0.12,0.42,
1.918,2.25,-0.15,-0.05,0.29,-0.12,0.39,
1.921,2.25,-0.15,-0.05,0.30,-0.11,0.35,
1.921,2.02,-0.03,-0.16,0.30,-0.11,0.35,
1.924,2.02,-0.03,-0.16,0.30,-0.11,0.32,
1.926,2.02,-0.03,-0.16,0.30,-0.11,0.29,
1.926,1.60,-0.33,-0.51,0.30,-0.11,0.29,
1.928,1.60,-0.33,-0.51,0.29,-0.10,0.26,
1.932,1.01,-0.53,-0.78,0.29,-0.10,0.26,
1.932,1.01,-0.53,-0.78,0.29,-0.08,0.24,
1.934,1.01,-0.53,-0.78,0.28,-0.07,0.22,
1.936,0.60,-0.35,-0.71,0.28,-0.07,0.22,
1.936,0.60,-0.35,-0.71,0.27,-0.06,0.21,
1.938,0.60,-0.35,-0.71,0.27,-0.04,0.20,
1.941,0.60,-0.35,-0.71,0.27,-0.02,0.18,
1.941,0.34,0.09,-0.46,0.27,-0.02,0.18,
1.943,0.34,0.09,-0.46,0.27,-0.01,0.17,
1.946,0.34,0.09,-0.46,0.27,-0.00,0.16,
1.946,0.24,0.38,-0.32,0.27,-0.00,0.16,
1.948,0.24,0.38,-0.32,0.27,0.01,0.15,
1.951,0.24,0.38,-0.32,0.28,0.01,0.13,
1.951,0.15,0.47,-0.52,0.28,0.01,0.13,
1.953,0.15,0.47,-0.52,0.27,0.02,0.12,
1.956,-0.02,0.52,-0.74,0.27,0.02,0.12,
1.956,-0.02,0.52,-0.74,0.27,0.04,0.11,
1.958,-0.02,0.52,-0.74,0.27,0.06,0.10,
1.961,-0.02,0.52,-0.74,0.27,0.08,0.09,
1.961,-0.31,0.52,-0.59,0.27,0.08,0.09,
1.963,-0.31,0.52,-0.59,0.27,0.09,0.09,
1.966,-0.55,0.32,-0.30,0.27,0.09,0.09,
1.966,-0.55,0.32,-0.30,0.27,0.11,0.09,
1.968,-0.55,0.32,-0.30,0.28,0.11,0.09,
1.971,-0.70,0.21,-0.18,0.28,0.11,0.09,
1.971,-0.70,0.21,-0.18,0.28,0.11,0.09,
1.973,-0.70,0.21,-0.18,0.28,0.10,0.09,
1.976,-0.86,0.18,-0.23,0.28,0.10,0.09,
1.976,-0.86,0.18,-0.23,0.28,0.09,0.09,
1.986,-0.86,0.18,-0.23,0.27,0.08,0.10,
1.986,-0.85,0.07,-0.31,0.27,0.08,0.10,
1.986,-0.85,0.07,-0.31,0.26,0.08,0.11,
1.986,-0.85,0.07,-0.31,0.25,0.07,0.12,
1.986,-0.85,0.07,-0.31,0.24,0.06,0.13,
1.987,-0.60,-0.07,-0.10,0.24,0.06,0.13,
1.989,-0.60,-0.07,-0.10,0.24,0.06,0.14,
1.992,-0.60,-0.07,-0.10,0.24,0.05,0.14,
1.992,-0.28,-0.13,0.12,0.24,0.05,0.14,
1.994,-0.28,-0.13,0.12,0.24,0.04,0.13,
1.996,-0.28,-0.13,0.12,0.23,0.02,0.12,
1.996,-0.03,-0.12,-0.16,0.23,0.02,0.12,
2.0,-0.03,-0.12,-0.16,0.22,0.01,0.12,
2.0,-0.03,-0.12,-0.16,0.21,0.00,0.12,
2.0,0.16,-0.08,-0.58,0.21,0.00,0.12,
2.004,0.16,-0.08,-0.58,0.19,0.00,0.11,
2.006,0.16,-0.08,-0.58,0.17,0.00,0.11,
2.007,0.48,-0.10,-0.48,0.17,0.00,0.11,
2.008,0.48,-0.10,-0.48,0.16,0.00,0.11,
2.01,0.48,-0.10,-0.48,0.15,-0.00,0.10,
2.01,0.95,-0.27,0.06,0.15,-0.00,0.10,
2.013,0.95,-0.27,0.06,0.15,-0.01,0.08,
2.018,1.37,-0.61,0.41,0.15,-0.01,0.08,
2.018,1.37,-0.61,0.41,0.15,-0.04,0.07,
2.018,1.37,-0.61,0.41,0.15,-0.07,0.04,
2.022,1.66,-0.89,0.30,0.15,-0.07,0.04,
2.024,1.66,-0.89,0.30,0.15,-0.09,0.02,
2.025,1.66,-0.89,0.30,0.14,-0.11,-0.01,
2.025,1.81,-0.84,0.12,0.14,-0.11,-0.01,
2.026,1.81,-0.84,0.12,0.13,-0.11,-0.03,
2.028,1.81,-0.84,0.12,0.12,-0.10,-0.06,
2.034,1.80,-0.52,0.14,0.12,-0.10,-0.06,
2.034,1.80,-0.52,0.14,0.12,-0.10,-0.09,
2.034,1.80,-0.52,0.14,0.11,-0.08,-0.12,
2.036,1.80,-0.52,0.14,0.11,-0.06,-0.15,
2.036,1.51,-0.15,0.08,0.11,-0.06,-0.15,
2.037,1.51,-0.15,0.08,0.11,-0.05,-0.18,
2.04,1.51,-0.15,0.08,0.11,-0.05,-0.19,
2.04,1.09,0.06,0.09,0.11,-0.05,-0.19,
2.043,1.09,0.06,0.09,0.11,-0.05,-0.21,
2.046,1.09,0.06,0.09,0.11,-0.05,-0.23,
2.046,0.78,0.19,-0.03,0.11,-0.05,-0.23,
2.049,0.78,0.19,-0.03,0.11,-0.05,-0.24,
2.051,0.49,0.41,-0.22,0.11,-0.05,-0.24,
2.052,0.49,0.41,-0.22,0.12,-0.04,-0.25,
2.052,0.49,0.41,-0.22,0.12,-0.02,-0.26,
2.055,0.38,0.47,-0.29,0.12,-0.02,-0.26,
2.055,0.38,0.47,-0.29,0.13,-0.01,-0.27,
2.057,0.38,0.47,-0.29,0.14,0.01,-0.28,
2.06,0.38,0.47,-0.29,0.14,0.03,-0.29,
2.06,0.34,0.22,-0.19,0.14,0.03,-0.29,
2.063,0.34,0.22,-0.19,0.15,0.04,-0.31,
2.066,0.24,-0.19,0.30,0.15,0.04,-0.31,
2.067,0.24,-0.19,0.30,0.16,0.05,-0.32,
2.068,0.24,-0.19,0.30,0.17,0.06,-0.33,
2.07,0.15,-0.51,0.46,0.17,0.06,-0.33,
2.071,0.15,-0.51,0.46,0.18,0.07,-0.34,
2.073,0.15,-0.51,0.46,0.20,0.07,-0.35,
2.075,-0.14,-0.50,0.82,0.20,0.07,-0.35,
2.075,-0.14,-0.50,0.82,0.22,0.06,-0.36,
2.077,-0.14,-0.50,0.82,0.23,0.05,-0.37,
2.08,-0.14,-0.50,0.82,0.24,0.05,-0.38,
2.08,-0.53,-0.36,0.31,0.24,0.05,-0.38,
2.083,-0.53,-0.36,0.31,0.25,0.03,-0.39,
2.087,-0.99,0.05,-0.06,0.25,0.03,-0.39,
2.087,-0.99,0.05,-0.06,0.25,-0.01,-0.38,
2.088,-0.99,0.05,-0.06,0.23,-0.03,-0.37,
2.09,-0.99,0.05,-0.06,0.20,-0.02,-0.34,
2.09,-1.09,0.60,-0.78,0.20,-0.02,-0.34,
2.093,-1.09,0.60,-0.78,0.18,-0.00,-0.31,
2.095,-1.09,0.60,-0.78,0.16,0.03,-0.29,
2.095,-0.69,1.32,-0.15,0.16,0.03,-0.29,
2.1,-0.69,1.32,-0.15,0.16,0.06,-0.28,
2.1,-0.69,1.32,-0.15,0.16,0.10,-0.27,
2.101,-0.24,1.81,0.14,0.16,0.10,-0.27,
2.106,-0.24,1.81,0.14,0.16,0.14,-0.28,
2.107,-0.24,1.81,0.14,0.15,0.18,-0.28,
2.107,-0.11,2.06,-0.49,0.15,0.18,-0.28,
2.107,-0.11,2.06,-0.49,0.14,0.21,-0.29,
2.112,-0.11,2.06,-0.49,0.13,0.26,-0.29,
2.112,-0.10,2.07,-0.99,0.13,0.26,-0.29,
2.112,-0.10,2.07,-0.99,0.12,0.30,-0.30,
2.115,-0.10,2.07,-0.99,0.11,0.34,-0.30,
2.115,-0.21,1.62,-0.80,0.11,0.34,-0.30,
2.117,-0.21,1.62,-0.80,0.11,0.38,-0.30,
2.119,-0.21,1.62,-0.80,0.11,0.41,-0.30,
2.12,-0.28,0.74,-0.28,0.11,0.41,-0.30,
2.122,-0.28,0.74,-0.28,0.11,0.43,-0.29,
2.124,-0.28,0.74,-0.28,0.12,0.45,-0.28,
2.125,-0.26,-0.05,0.23,0.12,0.45,-0.28,
2.128,-0.26,-0.05,0.23,0.12,0.47,-0.27,
2.13,-0.26,-0.05,0.23,0.13,0.51,-0.28,
2.13,-0.24,-0.80,0.16,0.13,0.51,-0.28,
2.132,-0.24,-0.80,0.16,0.12,0.56,-0.29,
2.134,-0.24,-0.80,0.16,0.11,0.59,-0.29,
2.135,-0.44,-0.86,-0.11,0.11,0.59,-0.29,
2.138,-0.44,-0.86,-0.11,0.09,0.60,-0.29,
2.139,-0.44,-0.86,-0.11,0.07,0.61,-0.27,
2.14,-0.77,-0.20,-0.39,0.07,0.61,-0.27,
2.142,-0.77,-0.20,-0.39,0.06,0.59,-0.25,
2.159,-1.13,0.48,-0.50,0.06,0.59,-0.25,
2.159,-1.13,0.48,-0.50,0.05,0.56,-0.23,
2.16,-1.13,0.48,-0.50,0.04,0.54,-0.22,
2.16,-1.28,0.93,-0.36,0.04,0.54,-0.22,
2.16,-1.28,0.93,-0.36,0.04,0.53,-0.21,
2.16,-1.28,0.93,-0.36,0.04,0.52,-0.19,
2.16,-1.42,1.26,-0.51,0.04,0.52,-0.19,
2.161,-1.42,1.26,-0.51,0.04,0.53,-0.18,
2.161,-1.42,1.26,-0.51,0.03,0.54,-0.16,
2.161,-1.58,1.52,-0.99,0.03,0.54,-0.16,
2.161,-1.58,1.52,-0.99,0.02,0.56,-0.13,
2.162,-1.58,1.52,-0.99,0.01,0.58,-0.11,
2.165,-1.74,1.84,-1.42,0.01,0.58,-0.11,
2.165,-1.74,1.84,-1.42,-0.01,0.61,-0.09,
2.167,-1.74,1.84,-1.42,-0.04,0.63,-0.07,
2.169,-1.93,1.94,-1.65,-0.04,0.63,-0.07,
2.169,-1.93,1.94,-1.65,-0.06,0.65,-0.06,
2.171,-1.93,1.94,-1.65,-0.09,0.66,-0.04,
2.174,-2.17,1.94,-1.85,-0.09,0.66,-0.04,
2.175,-2.17,1.94,-1.85,-0.11,0.66,-0.03,
2.176,-2.17,1.94,-1.85,-0.14,0.66,-0.01,
2.18,-2.17,1.94,-1.85,-0.16,0.66,0.01,
2.18,-2.56,2.05,-1.79,-0.16,0.66,0.01,
2.181,-2.56,2.05,-1.79,-0.18,0.65,0.03,
2.185,-2.56,2.05,-1.79,-0.19,0.64,0.06,
2.185,-3.10,2.09,-1.49,-0.19,0.64,0.06,
2.186,-3.10,2.09,-1.49,-0.20,0.63,0.09,
2.189,-3.10,2.09,-1.49,-0.20,0.62,0.14,
2.189,-3.60,1.89,-1.26,-0.20,0.62,0.14,
2.191,-3.60,1.89,-1.26,-0.21,0.61,0.18,
2.194,-3.84,1.43,-1.20,-0.21,0.61,0.18,
2.194,-3.84,1.43,-1.20,-0.21,0.60,0.23,
2.196,-3.84,1.43,-1.20,-0.21,0.59,0.29,
2.2,-3.74,0.83,-1.12,-0.21,0.59,0.29,
2.201,-3.74,0.83,-1.12,-0.22,0.58,0.35,
2.202,-3.74,0.83,-1.12,-0.22,0.58,0.40,
2.204,-3.74,0.83,-1.12,-0.23,0.58,0.44,
2.205,-3.42,0.25,-0.86,-0.23,0.58,0.44,
2.207,-3.42,0.25,-0.86,-0.24,0.58,0.48,
2.209,-3.42,0.25,-0.86,-0.23,0.58,0.52,
2.209,-3.01,-0.35,-0.26,-0.23,0.58,0.52,
2.212,-3.01,-0.35,-0.26,-0.22,0.56,0.56,
2.219,-3.01,-0.35,-0.26,-0.20,0.55,0.60,
2.219,-2.46,-0.89,0.14,-0.20,0.55,0.60,
2.219,-2.46,-0.89,0.14,-0.20,0.54,0.65,
2.22,-2.46,-0.89,0.14,-0.20,0.51,0.69,
2.22,-1.52,-1.22,0.07,-0.20,0.51,0.69,
2.221,-1.52,-1.22,0.07,-0.22,0.45,0.71,
2.224,0.22,-0.79,-0.18,-0.22,0.45,0.71,
2.224,0.22,-0.79,-0.18,-0.23,0.38,0.71,
2.226,0.22,-0.79,-0.18,-0.24,0.33,0.68,
2.229,0.98,0.58,-1.51,-0.24,0.33,0.68,
2.229,0.98,0.58,-1.51,-0.25,0.40,0.64,
2.233,0.98,0.58,-1.51,-0.28,0.48,0.60,
2.234,-0.43,2.04,-2.51,-0.28,0.48,0.60,
2.235,-0.43,2.04,-2.51,-0.34,0.53,0.58,
2.236,-0.43,2.04,-2.51,-0.37,0.55,0.58,
2.239,-2.18,2.94,-0.77,-0.37,0.55,0.58,
2.239,-2.18,2.94,-0.77,-0.37,0.43,0.61,
2.241,-2.18,2.94,-0.77,-0.38,0.25,0.64,
2.243,-2.18,2.94,-0.77,-0.40,0.09,0.67,
2.244,-3.68,2.20,0.31,-0.40,0.09,0.67,
2.246,-3.68,2.20,0.31,-0.40,0.01,0.68,
2.249,-4.83,0.45,-0.16,-0.40,0.01,0.68,
2.249,-4.83,0.45,-0.16,-0.39,0.03,0.71,
2.251,-4.83,0.45,-0.16,-0.40,0.09,0.77,
2.254,-5.73,-0.05,-2.32,-0.40,0.09,0.77,
2.254,-5.73,-0.05,-2.32,-0.45,0.19,0.85,
2.256,-5.73,-0.05,-2.32,-0.50,0.29,0.96,
2.258,-5.73,-0.05,-2.32,-0.56,0.36,1.08,
2.258,-5.73,0.76,-2.51,-0.56,0.36,1.08,
2.261,-5.73,0.76,-2.51,-0.61,0.39,1.18,
2.265,-5.73,0.76,-2.51,-0.64,0.41,1.27,
2.266,-4.89,1.90,-1.27,-0.64,0.41,1.27,
2.266,-4.89,1.90,-1.27,-0.66,0.39,1.33,
2.268,-4.63,2.81,-0.37,-0.66,0.39,1.33,
2.269,-4.63,2.81,-0.37,-0.68,0.33,1.39,
2.271,-4.63,2.81,-0.37,-0.68,0.27,1.43,
2.275,-3.95,3.05,-0.69,-0.68,0.27,1.43,
2.276,-3.95,3.05,-0.69,-0.68,0.21,1.46,
2.276,-3.95,3.05,-0.69,-0.70,0.13,1.49,
2.278,-3.95,3.05,-0.69,-0.71,0.04,1.51,
2.279,-3.49,2.36,-0.20,-0.71,0.04,1.51,
2.283,-3.49,2.36,-0.20,-0.70,-0.01,1.55,
2.284,-3.49,2.36,-0.20,-0.69,0.02,1.60,
2.284,-3.98,1.30,0.89,-0.69,0.02,1.60,
2.285,-3.98,1.30,0.89,-0.67,0.11,1.64,
2.288,-3.98,1.30,0.89,-0.68,0.03,1.66,
2.288,-2.32,0.64,0.69,-0.68,0.03,1.66,
2.29,-2.32,0.64,0.69,-0.70,-0.10,1.67,
2.293,-2.32,0.64,0.69,-0.73,-0.20,1.69,
2.293,-2.56,0.45,-0.12,-0.73,-0.20,1.69,
2.295,-2.56,0.45,-0.12,-0.73,-0.11,1.73,
2.3,-3.75,1.01,-0.33,-0.73,-0.11,1.73,
2.3,-3.75,1.01,-0.33,-0.72,0.07,1.78,
2.301,-3.75,1.01,-0.33,-0.73,0.21,1.85,
2.304,-3.75,1.01,-0.33,-0.73,0.25,1.93,
2.304,-3.80,1.59,0.70,-0.73,0.25,1.93,
2.306,-3.80,1.59,0.70,-0.72,0.24,1.98,
2.312,-3.80,1.59,0.70,-0.71,0.15,2.01,
2.338,-2.07,0.74,1.80,-0.71,0.15,2.01,
2.338,-2.07,0.74,1.80,-0.68,0.07,2.01,
2.339,-1.32,-0.11,1.19,-0.68,0.07,2.01,
2.339,-1.32,-0.11,1.19,-0.66,0.04,2.01,
2.339,-1.32,-0.11,1.19,-0.67,0.04,2.01,
2.34,-1.00,-0.77,0.48,-0.67,0.04,2.01,
2.34,-1.00,-0.77,0.48,-0.68,0.03,2.03,
2.34,-1.00,-0.77,0.48,-0.67,0.01,2.04,
2.341,-0.35,-1.31,0.36,-0.67,0.01,2.04,
2.341,-0.35,-1.31,0.36,-0.67,0.01,2.06,
2.341,-0.35,-1.31,0.36,-0.67,0.04,2.07,
2.342,-0.35,-1.31,0.36,-0.65,0.06,2.07,
2.342,0.20,-1.91,0.36,-0.65,0.06,2.07,
2.342,0.20,-1.91,0.36,-0.64,0.11,2.06,
2.342,0.51,-2.25,-0.26,-0.64,0.11,2.06,
2.343,0.51,-2.25,-0.26,-0.64,0.18,2.05,
2.343,0.51,-2.25,-0.26,-0.63,0.25,2.05,
2.343,0.51,-2.25,-0.26,-0.62,0.29,2.05,
2.343,0.35,-2.51,0.05,-0.62,0.29,2.05,
2.343,0.35,-2.51,0.05,-0.62,0.31,2.05,
2.343,0.56,-2.39,0.16,-0.62,0.31,2.05,
2.349,0.56,-2.39,0.16,-0.62,0.32,2.05,
2.35,0.56,-2.39,0.16,-0.64,0.33,2.04,
2.35,0.56,-2.39,0.16,-0.65,0.32,2.01,
2.35,0.77,-2.00,-0.13,-0.65,0.32,2.01,
2.351,0.77,-2.00,-0.13,-0.66,0.31,1.98,
2.354,1.11,-1.70,0.39,-0.66,0.31,1.98,
2.354,1.11,-1.70,0.39,-0.68,0.28,1.94,
2.356,1.11,-1.70,0.39,-0.69,0.24,1.89,
2.357,1.11,-1.70,0.39,-0.69,0.18,1.86,
2.358,1.66,-1.50,1.18,-0.69,0.18,1.86,
2.361,1.66,-1.50,1.18,-0.69,0.12,1.82,
2.364,1.66,-1.50,1.18,-0.69,0.04,1.79,
2.364,1.86,-1.32,1.42,-0.69,0.04,1.79,
2.367,1.86,-1.32,1.42,-0.71,-0.02,1.75,
2.369,1.86,-1.32,1.42,-0.73,-0.06,1.70,
2.369,2.02,-0.95,0.54,-0.73,-0.06,1.70,
2.371,2.02,-0.95,0.54,-0.75,-0.08,1.64,
2.373,1.88,-0.44,0.22,-0.75,-0.08,1.64,
2.373,1.88,-0.44,0.22,-0.75,-0.10,1.57,
2.375,1.88,-0.44,0.22,-0.75,-0.13,1.50,
2.377,1.88,-0.44,0.22,-0.73,-0.15,1.43,
2.378,1.41,-0.02,0.53,-0.73,-0.15,1.43,
2.38,1.41,-0.02,0.53,-0.71,-0.19,1.40,
2.383,1.28,0.03,0.59,-0.71,-0.19,1.40,
2.384,1.28,0.03,0.59,-0.68,-0.23,1.39,
2.385,1.28,0.03,0.59,-0.65,-0.26,1.38,
2.387,1.92,-0.43,0.34,-0.65,-0.26,1.38,
2.388,1.92,-0.43,0.34,-0.63,-0.27,1.37,
2.39,1.92,-0.43,0.34,-0.60,-0.26,1.36,
2.392,2.46,-1.07,0.40,-0.60,-0.26,1.36,
2.393,2.46,-1.07,0.40,-0.58,-0.26,1.33,
2.395,2.46,-1.07,0.40,-0.56,-0.25,1.29,
2.397,3.03,-1.72,0.71,-0.56,-0.25,1.29,
2.402,3.03,-1.72,0.71,-0.53,-0.23,1.23,
2.403,3.03,-1.72,0.71,-0.50,-0.20,1.16,
2.403,3.03,-1.72,0.71,-0.47,-0.18,1.10,
2.403,3.53,-2.19,1.57,-0.47,-0.18,1.10,
2.407,3.53,-2.19,1.57,-0.44,-0.18,1.04,
2.408,3.53,-2.19,1.57,-0.41,-0.19,1.00,
2.408,4.16,-2.43,2.71,-0.41,-0.19,1.00,
2.41,4.16,-2.43,2.71,-0.37,-0.20,0.96,
2.413,4.16,-2.43,2.71,-0.35,-0.21,0.91,
2.413,5.18,-2.63,3.63,-0.35,-0.21,0.91,
2.421,5.18,-2.63,3.63,-0.31,-0.20,0.83,
2.422,6.14,-2.67,4.09,-0.31,-0.20,0.83,
2.423,6.14,-2.67,4.09,-0.30,-0.21,0.72,
2.423,6.14,-2.67,4.09,-0.28,-0.19,0.61,
2.424,6.72,-1.94,4.01,-0.28,-0.19,0.61,
2.424,6.72,-1.94,4.01,-0.27,-0.17,0.49,
2.424,6.72,-1.94,4.01,-0.26,-0.17,0.38,
2.427,7.28,-0.96,4.25,-0.26,-0.17,0.38,
2.428,7.28,-0.96,4.25,-0.26,-0.21,0.27,
2.429,7.28,-0.96,4.25,-0.26,-0.29,0.14,
2.434,7.81,-0.19,4.35,-0.26,-0.29,0.14,
2.434,7.81,-0.19,4.35,-0.26,-0.40,0.01,
2.435,7.81,-0.19,4.35,-0.28,-0.48,-0.13,
2.437,7.81,-0.19,4.35,-0.31,-0.51,-0.29,
2.438,8.02,1.53,2.15,-0.31,-0.51,-0.29,
2.439,8.02,1.53,2.15,-0.32,-0.50,-0.48,
2.442,8.02,1.53,2.15,-0.34,-0.47,-0.67,
2.442,8.14,3.34,0.96,-0.34,-0.47,-0.67,
2.444,8.14,3.34,0.96,-0.37,-0.44,-0.87,
2.447,8.14,3.34,0.96,-0.38,-0.40,-1.04,
2.447,7.45,5.89,0.06,-0.38,-0.40,-1.04,
2.45,7.45,5.89,0.06,-0.38,-0.32,-1.19,
2.452,7.45,5.89,0.06,-0.38,-0.25,-1.34,
2.453,6.04,8.23,-0.62,-0.38,-0.25,-1.34,
2.454,6.04,8.23,-0.62,-0.40,-0.14,-1.48,
2.457,6.04,8.23,-0.62,-0.44,0.04,-1.62,
2.457,3.86,11.30,-3.14,-0.44,0.04,-1.62,
2.459,3.86,11.30,-3.14,-0.46,0.28,-1.74,
2.462,3.86,11.30,-3.14,-0.45,0.47,-1.88,
2.462,1.39,13.35,-3.90,-0.45,0.47,-1.88,
2.466,1.39,13.35,-3.90,-0.48,0.59,-2.02,
2.467,1.39,13.35,-3.90,-0.53,0.73,-2.13,
2.468,-1.87,15.97,-6.14,-0.53,0.73,-2.13,
2.469,-1.87,15.97,-6.14,-0.55,0.91,-2.22,
2.472,-5.15,16.63,-5.95,-0.55,0.91,-2.22,
2.473,-5.15,16.63,-5.95,-0.52,1.01,-2.30,
2.505,-5.15,16.63,-5.95,-0.52,0.98,-2.39,
2.506,-5.15,16.63,-5.95,-0.58,1.00,-2.42,
2.506,-8.75,17.70,-7.92,-0.58,1.00,-2.42,
2.507,-8.75,17.70,-7.92,-0.61,1.06,-2.39,
2.507,-8.75,17.70,-7.92,-0.59,1.01,-2.38,
2.507,-11.74,15.60,-7.88,-0.59,1.01,-2.38,
2.508,-11.74,15.60,-7.88,-0.62,1.00,-2.35,
2.509,-11.74,15.60,-7.88,-0.71,1.10,-2.30,
2.509,-14.79,14.63,-9.80,-0.71,1.10,-2.30,
2.51,-14.79,14.63,-9.80,-0.77,1.23,-2.22,
2.51,-14.79,14.63,-9.80,-0.82,1.29,-2.15,
2.511,-16.39,12.20,-8.54,-0.82,1.29,-2.15,
2.511,-16.39,12.20,-8.54,-0.88,1.33,-2.07,
2.512,-17.46,10.83,-7.85,-0.88,1.33,-2.07,
2.512,-17.46,10.83,-7.85,-0.94,1.42,-1.95,
2.513,-17.46,10.83,-7.85,-0.99,1.55,-1.81,
2.513,-17.61,9.90,-6.64,-0.99,1.55,-1.81,
2.514,-17.61,9.90,-6.64,-1.02,1.70,-1.64,
2.515,-17.61,9.90,-6.64,-1.02,1.78,-1.48,
2.515,-17.61,9.90,-6.64,-1.03,1.77,-1.32,
2.515,-16.53,8.65,-3.88,-1.03,1.77,-1.32,
2.516,-15.23,7.95,-3.20,-1.03,1.77,-1.32,
2.517,-15.23,7.95,-3.20,-1.03,1.68,-1.17,
2.517,-15.23,7.95,-3.20,-1.00,1.59,-1.01,
2.518,-15.23,7.95,-3.20,-0.96,1.51,-0.85,
2.518,-14.59,7.75,-4.00,-0.96,1.51,-0.85,
2.519,-14.59,7.75,-4.00,-0.90,1.44,-0.68,
2.519,-14.59,7.75,-4.00,-0.85,1.36,-0.51,
2.524,-14.59,7.75,-4.00,-0.81,1.26,-0.33,
2.524,-14.83,7.14,-4.55,-0.81,1.26,-0.33,
2.525,-14.83,7.14,-4.55,-0.78,1.13,-0.14,
2.535,-14.83,7.14,-4.55,-0.77,0.98,0.06,
2.54,-14.83,7.14,-4.55,-0.77,0.81,0.27,
2.541,-14.69,6.44,-5.26,-0.77,0.81,0.27,
2.541,-13.51,6.47,-5.81,-0.77,0.81,0.27,
2.541,-13.51,6.47,-5.81,-0.78,0.64,0.51,
2.541,-13.51,6.47,-5.81,-0.82,0.48,0.77,
2.542,-13.51,6.47,-5.81,-0.88,0.32,1.07,
2.542,-13.51,6.47,-5.81,-0.94,0.19,1.40,
2.542,-11.60,7.83,-5.39,-0.94,0.19,1.40,
2.544,-11.60,7.83,-5.39,-0.97,0.07,1.77,
2.545,-8.86,9.74,-3.93,-0.97,0.07,1.77,
2.545,-8.86,9.74,-3.93,-0.97,-0.03,2.15,
2.547,-8.86,9.74,-3.93,-0.92,-0.12,2.53,
2.547,-5.76,10.89,-2.70,-0.92,-0.12,2.53,
2.551,-5.76,10.89,-2.70,-0.84,-0.19,2.88,
2.553,-5.76,10.89,-2.70,-0.75,-0.22,3.14,
2.553,-3.17,10.78,-3.13,-0.75,-0.22,3.14,
2.553,-3.17,10.78,-3.13,-0.69,-0.23,3.32,
2.557,-3.17,10.78,-3.13,-0.65,-0.23,3.40,
2.557,-1.41,9.94,-4.29,-0.65,-0.23,3.40,
2.558,-1.41,9.94,-4.29,-0.63,-0.23,3.42,
2.561,-1.41,9.94,-4.29,-0.63,-0.25,3.41,
2.561,-1.43,8.86,-5.32,-0.63,-0.25,3.41,
2.563,-1.43,8.86,-5.32,-0.64,-0.31,3.39,
2.567,-1.43,8.86,-5.32,-0.68,-0.35,3.39,
2.568,-2.38,9.30,-6.45,-0.68,-0.35,3.39,
2.568,-2.38,9.30,-6.45,-0.73,-0.34,3.40,
2.571,-2.38,9.30,-6.45,-0.83,-0.26,3.43,
2.571,-3.54,10.50,-7.21,-0.83,-0.26,3.43,
2.573,-3.54,10.50,-7.21,-0.94,-0.14,3.51,
2.575,-3.54,10.50,-7.21,-1.02,-0.05,3.68,
2.576,-4.44,11.21,-5.14,-1.02,-0.05,3.68,
2.578,-4.44,11.21,-5.14,-1.05,-0.07,3.95,
2.58,-4.44,11.21,-5.14,-1.04,-0.18,4.26,
2.581,-4.28,11.57,-2.17,-1.04,-0.18,4.26,
2.585,-4.28,11.57,-2.17,-1.04,-0.29,4.52,
2.586,-4.28,11.57,-2.17,-1.04,-0.31,4.68,
2.586,-2.74,11.53,-2.90,-1.04,-0.31,4.68,
2.588,-2.74,11.53,-2.90,-1.05,-0.21,4.73,
2.59,-2.74,11.53,-2.90,-1.05,-0.02,4.69,
2.591,-1.86,11.19,-5.11,-1.05,-0.02,4.69,
2.593,-1.86,11.19,-5.11,-1.06,0.19,4.60,
2.596,-1.86,11.19,-5.11,-1.09,0.41,4.50,
2.596,-1.92,11.34,-5.84,-1.09,0.41,4.50,
2.602,-1.92,11.34,-5.84,-1.14,0.57,4.41,
2.603,-1.92,11.34,-5.84,-1.18,0.69,4.34,
2.603,-2.16,11.68,-5.62,-1.18,0.69,4.34,
2.604,-2.16,11.68,-5.62,-1.24,0.79,4.29,
2.605,-2.16,11.68,-5.62,-1.29,0.88,4.25,
2.606,-2.14,11.54,-5.03,-1.29,0.88,4.25,
2.612,-2.14,11.54,-5.03,-1.33,0.97,4.22,
2.612,-1.73,11.11,-4.18,-1.33,0.97,4.22,
2.612,-1.73,11.11,-4.18,-1.36,1.10,4.19,
2.613,-1.73,11.11,-4.18,-1.40,1.24,4.14,
2.62,-1.73,11.11,-4.18,-1.42,1.38,4.10,
2.62,-1.38,10.31,-3.43,-1.42,1.38,4.10,
2.62,-1.38,10.31,-3.43,-1.44,1.53,4.06,
2.621,-1.38,10.31,-3.43,-1.43,1.67,4.01,
2.621,-0.96,9.51,-2.33,-1.43,1.67,4.01,
2.627,-0.96,9.51,-2.33,-1.43,1.79,3.96,
2.628,-0.96,9.51,-2.33,-1.39,1.89,3.91,
2.628,-0.67,8.71,-1.13,-1.39,1.89,3.91,
2.629,-0.67,8.71,-1.13,-1.36,1.99,3.85,
2.631,-0.67,8.71,-1.13,-1.32,2.05,3.78,
2.632,-0.39,7.82,-0.10,-1.32,2.05,3.78,
2.633,-0.39,7.82,-0.10,-1.27,2.10,3.70,
2.635,-0.39,7.82,-0.10,-1.21,2.09,3.62,
2.636,-0.51,6.83,1.01,-1.21,2.09,3.62,
2.637,-0.51,6.83,1.01,-1.14,2.04,3.52,
2.663,-0.51,6.83,1.01,-1.07,1.98,3.43,
2.663,-0.74,5.97,1.22,-1.07,1.98,3.43,
2.663,-0.74,5.97,1.22,-1.01,1.90,3.33,
2.663,-0.74,5.97,1.22,-0.95,1.77,3.23,
2.663,-1.21,5.32,1.27,-0.95,1.77,3.23,
2.664,-1.21,5.32,1.27,-0.89,1.63,3.12,
2.664,-1.77,5.04,1.39,-0.89,1.63,3.12,
2.664,-1.77,5.04,1.39,-0.83,1.50,3.02,
2.664,-1.77,5.04,1.39,-0.78,1.35,2.93,
2.664,-1.77,5.04,1.39,-0.73,1.20,2.84,
2.664,-2.37,4.83,1.21,-0.73,1.20,2.84,
2.665,-2.37,4.83,1.21,-0.69,1.08,2.75,
2.665,-2.37,4.83,1.21,-0.66,1.00,2.66,
2.665,-2.23,5.10,0.63,-0.66,1.00,2.66,
2.665,-2.23,5.10,0.63,-0.62,0.93,2.58,
2.665,-2.23,5.10,0.63,-0.59,0.86,2.51,
2.667,-2.10,5.04,0.38,-0.59,0.86,2.51,
2.668,-2.10,5.04,0.38,-0.58,0.82,2.43,
2.671,-2.10,5.04,0.38,-0.56,0.80,2.35,
2.671,-1.67,4.76,0.29,-0.56,0.80,2.35,
2.674,-1.67,4.76,0.29,-0.53,0.76,2.27,
2.676,-1.67,4.76,0.29,-0.51,0.71,2.21,
2.676,-1.74,4.27,0.68,-0.51,0.71,2.21,
2.678,-1.74,4.27,0.68,-0.48,0.66,2.14,
2.679,-1.74,4.27,0.68,-0.45,0.61,2.07,
2.68,-1.55,3.67,1.06,-0.45,0.61,2.07,
2.683,-1.55,3.67,1.06,-0.41,0.56,1.99,
2.686,-1.55,3.67,1.06,-0.37,0.47,1.90,
2.687,-1.44,2.72,1.69,-0.37,0.47,1.90,
2.687,-1.44,2.72,1.69,-0.33,0.37,1.81,
2.69,-1.44,2.72,1.69,-0.28,0.25,1.71,
2.69,-1.48,1.80,2.24,-0.28,0.25,1.71,
2.692,-1.48,1.80,2.24,-0.23,0.11,1.61,
2.695,-1.48,1.80,2.24,-0.19,-0.02,1.51,
2.695,-1.58,1.34,2.48,-0.19,-0.02,1.51,
2.697,-1.58,1.34,2.48,-0.14,-0.13,1.41,
2.7,-1.64,1.10,2.21,-0.14,-0.13,1.41,
2.701,-1.64,1.10,2.21,-0.09,-0.22,1.31,
2.702,-1.64,1.10,2.21,-0.06,-0.30,1.21,
2.705,-1.64,1.10,2.21,-0.02,-0.36,1.11,
2.705,-1.85,1.00,2.03,-0.02,-0.36,1.11,
2.707,-1.85,1.00,2.03,0.01,-0.42,1.02,
2.709,-1.85,1.00,2.03,0.05,-0.48,0.93,
2.71,-2.12,0.95,2.16,0.05,-0.48,0.93,
2.712,-2.12,0.95,2.16,0.08,-0.54,0.84,
2.714,-2.12,0.95,2.16,0.12,-0.60,0.75,
2.715,-2.43,0.77,2.46,0.12,-0.60,0.75,
2.72,-2.43,0.77,2.46,0.16,-0.66,0.67,
2.72,-2.43,0.77,2.46,0.21,-0.71,0.59,
2.721,-2.68,0.42,2.81,0.21,-0.71,0.59,
2.728,-2.68,0.42,2.81,0.26,-0.78,0.50,
2.729,-2.68,0.42,2.81,0.31,-0.85,0.42,
2.729,-2.80,-0.01,3.08,0.31,-0.85,0.42,
2.73,-2.80,-0.01,3.08,0.35,-0.93,0.35,
2.73,-2.80,-0.01,3.08,0.40,-1.03,0.27,
2.73,-2.83,-0.46,3.27,0.40,-1.03,0.27,
2.742,-2.83,-0.46,3.27,0.44,-1.11,0.20,
2.744,-2.62,-0.89,3.29,0.44,-1.11,0.20,
2.744,-2.62,-0.89,3.29,0.49,-1.19,0.13,
2.745,-2.62,-0.89,3.29,0.53,-1.26,0.05,
2.745,-2.62,-0.89,3.29,0.57,-1.32,-0.02,
2.746,-1.99,-1.37,3.16,0.57,-1.32,-0.02,
2.746,-1.99,-1.37,3.16,0.62,-1.38,-0.10,
2.747,-1.21,-1.77,2.88,0.62,-1.38,-0.10,
2.748,-1.21,-1.77,2.88,0.65,-1.43,-0.18,
2.748,-1.21,-1.77,2.88,0.69,-1.47,-0.28,
2.753,-0.47,-2.22,2.57,0.69,-1.47,-0.28,
2.753,-0.47,-2.22,2.57,0.73,-1.52,-0.39,
2.753,-0.47,-2.22,2.57,0.77,-1.56,-0.51,
2.757,-0.47,-2.22,2.57,0.80,-1.61,-0.64,
2.758,-0.06,-2.70,2.26,0.80,-1.61,-0.64,
2.758,-0.06,-2.70,2.26,0.83,-1.64,-0.78,
2.761,-0.06,-2.70,2.26,0.87,-1.67,-0.91,
2.761,0.02,-3.11,1.72,0.87,-1.67,-0.91,
2.762,0.02,-3.11,1.72,0.89,-1.69,-1.05,
2.766,-0.22,-3.45,1.17,0.89,-1.69,-1.05,
2.766,-0.22,-3.45,1.17,0.92,-1.69,-1.19,
2.768,-0.22,-3.45,1.17,0.95,-1.68,-1.33,
2.77,-0.22,-3.45,1.17,0.96,-1.66,-1.46,
2.77,-0.65,-3.63,0.63,0.96,-1.66,-1.46,
2.772,-0.65,-3.63,0.63,0.97,-1.61,-1.59,
2.774,-0.65,-3.63,0.63,0.97,-1.55,-1.72,
2.774,-1.10,-3.58,-0.08,0.97,-1.55,-1.72,
2.776,-1.10,-3.58,-0.08,0.96,-1.48,-1.83,
2.779,-1.10,-3.58,-0.08,0.95,-1.42,-1.94,
2.779,-1.70,-3.54,-0.34,0.95,-1.42,-1.94,
2.781,-1.70,-3.54,-0.34,0.94,-1.37,-2.03,
2.784,-1.70,-3.54,-0.34,0.92,-1.34,-2.12,
2.786,-2.05,-3.55,-0.16,0.92,-1.34,-2.12,
2.787,-2.05,-3.55,-0.16,0.90,-1.31,-2.21,
2.789,-2.05,-3.55,-0.16,0.89,-1.27,-2.29,
2.79,-2.10,-3.53,0.04,0.89,-1.27,-2.29,
2.791,-2.10,-3.53,0.04,0.87,-1.23,-2.37,
2.794,-2.10,-3.53,0.04,0.86,-1.18,-2.45,
2.794,-1.80,-3.50,0.06,0.86,-1.18,-2.45,
2.796,-1.80,-3.50,0.06,0.86,-1.12,-2.55,
2.808,-1.80,-3.50,0.06,0.85,-1.06,-2.66,
2.814,-1.26,-3.64,0.22,0.85,-1.06,-2.66,
2.814,-1.26,-3.64,0.22,0.85,-1.01,-2.77,
2.814,-0.91,-3.93,0.34,0.85,-1.01,-2.77,
2.833,-0.91,-3.93,0.34,0.86,-0.96,-2.90,
2.833,-0.91,-3.93,0.34,0.87,-0.92,-3.03,
2.834,-0.91,-3.93,0.34,0.88,-0.89,-3.16,
2.834,-0.99,-4.31,0.32,0.88,-0.89,-3.16,
2.834,-0.99,-4.31,0.32,0.89,-0.85,-3.30,
2.834,-1.48,-4.80,0.33,0.89,-0.85,-3.30,
2.835,-1.48,-4.80,0.33,0.91,-0.83,-3.43,
2.835,-1.48,-4.80,0.33,0.92,-0.80,-3.56,
2.835,-2.39,-5.40,0.67,0.92,-0.80,-3.56,
2.835,-2.39,-5.40,0.67,0.96,-0.81,-3.67,
2.836,-2.39,-5.40,0.67,0.97,-0.82,-3.78,
2.836,-2.39,-5.40,0.67,0.98,-0.79,-3.88,
2.836,-3.08,-5.85,0.17,0.98,-0.79,-3.88,
2.836,-3.08,-5.85,0.17,1.00,-0.72,-3.97,
2.837,-3.61,-6.42,-0.51,1.00,-0.72,-3.97,
2.837,-3.61,-6.42,-0.51,1.00,-0.65,-4.05,
2.837,-3.61,-6.42,-0.51,1.01,-0.57,-4.12,
2.837,-3.61,-6.42,-0.51,1.02,-0.51,-4.18,
2.838,-4.03,-7.15,-0.53,1.02,-0.51,-4.18,
2.838,-4.03,-7.15,-0.53,1.03,-0.46,-4.23,
2.841,-4.11,-7.87,-0.08,1.03,-0.46,-4.23,
2.841,-4.11,-7.87,-0.08,1.03,-0.45,-4.29,
2.842,-4.11,-7.87,-0.08,1.05,-0.45,-4.34,
2.844,-4.11,-7.87,-0.08,1.07,-0.45,-4.40,
2.844,-3.83,-8.49,0.37,1.07,-0.45,-4.40,
2.845,-3.83,-8.49,0.37,1.09,-0.45,-4.46,
2.848,-3.83,-8.49,0.37,1.12,-0.45,-4.52,
2.848,-3.50,-8.88,0.61,1.12,-0.45,-4.52,
2.851,-3.50,-8.88,0.61,1.15,-0.43,-4.57,
2.853,-3.50,-8.88,0.61,1.18,-0.41,-4.63,
2.853,-3.22,-9.18,0.58,1.18,-0.41,-4.63,
2.856,-3.22,-9.18,0.58,1.21,-0.38,-4.68,
2.858,-3.22,-9.18,0.58,1.24,-0.36,-4.74,
2.858,-2.94,-9.44,0.38,1.24,-0.36,-4.74,
2.86,-2.94,-9.44,0.38,1.27,-0.33,-4.81,
2.863,-2.81,-9.67,0.18,1.27,-0.33,-4.81,
2.863,-2.81,-9.67,0.18,1.29,-0.30,-4.88,
2.867,-2.81,-9.67,0.18,1.31,-0.27,-4.95,
2.868,-2.81,-9.67,0.18,1.33,-0.25,-5.03,
2.868,-3.05,-9.87,0.19,1.33,-0.25,-5.03,
2.87,-3.05,-9.87,0.19,1.35,-0.24,-5.10,
2.873,-3.05,-9.87,0.19,1.37,-0.23,-5.16,
2.873,-3.49,-9.92,0.28,1.37,-0.23,-5.16,
2.875,-3.49,-9.92,0.28,1.39,-0.22,-5.22,
2.878,-3.49,-9.92,0.28,1.41,-0.22,-5.27,
2.878,-3.88,-9.89,0.29,1.41,-0.22,-5.27,
2.88,-3.88,-9.89,0.29,1.43,-0.22,-5.31,
2.884,-4.22,-9.88,0.43,1.43,-0.22,-5.31,
2.884,-4.22,-9.88,0.43,1.45,-0.22,-5.34,
2.885,-4.22,-9.88,0.43,1.46,-0.24,-5.36,
2.888,-4.22,-9.88,0.43,1.48,-0.27,-5.38,
2.888,-4.38,-9.90,0.64,1.48,-0.27,-5.38,
2.891,-4.38,-9.90,0.64,1.50,-0.30,-5.39,
2.893,-4.38,-9.90,0.64,1.52,-0.33,-5.39,
2.893,-4.31,-9.94,0.83,1.52,-0.33,-5.39,
2.895,-4.31,-9.94,0.83,1.53,-0.35,-5.39,
2.898,-4.31,-9.94,0.83,1.55,-0.39,-5.39,
2.898,-3.98,-10.04,0.98,1.55,-0.39,-5.39,
2.9,-3.98,-10.04,0.98,1.57,-0.42,-5.39,
2.903,-3.98,-10.04,0.98,1.59,-0.44,-5.39,
2.903,-3.58,-10.12,1.02,1.59,-0.44,-5.39,
2.905,-3.58,-10.12,1.02,1.61,-0.46,-5.39,
2.908,-3.58,-10.12,1.02,1.63,-0.48,-5.39,
2.908,-3.25,-10.33,1.07,1.63,-0.48,-5.39,
2.91,-3.25,-10.33,1.07,1.64,-0.50,-5.39,
2.913,-3.25,-10.33,1.07,1.66,-0.51,-5.39,
2.913,-2.90,-10.56,1.15,1.66,-0.51,-5.39,
2.917,-2.90,-10.56,1.15,1.68,-0.52,-5.38,
2.926,-2.90,-10.56,1.15,1.69,-0.52,-5.38,
2.926,-2.51,-10.80,1.37,1.69,-0.52,-5.38,
2.926,-2.51,-10.80,1.37,1.72,-0.54,-5.37,
2.926,-2.13,-10.89,1.64,1.72,-0.54,-5.37,
2.926,-2.13,-10.89,1.64,1.73,-0.56,-5.37,
2.926,-2.13,-10.89,1.64,1.75,-0.59,-5.35,
2.927,-2.13,-10.89,1.64,1.78,-0.61,-5.34,
2.928,-1.67,-10.84,1.92,1.78,-0.61,-5.34,
2.93,-1.67,-10.84,1.92,1.80,-0.64,-5.32,
2.934,-1.67,-10.84,1.92,1.83,-0.66,-5.30,
2.935,-1.03,-10.65,2.01,1.83,-0.66,-5.30,
2.935,-1.03,-10.65,2.01,1.85,-0.68,-5.28,
2.938,-0.43,-10.22,1.89,1.85,-0.68,-5.28,
2.938,-0.43,-10.22,1.89,1.88,-0.70,-5.25,
2.94,-0.43,-10.22,1.89,1.89,-0.72,-5.22,
2.943,-0.43,-10.22,1.89,1.91,-0.73,-5.18,
2.943,0.27,-9.68,1.85,1.91,-0.73,-5.18,
2.945,0.27,-9.68,1.85,1.92,-0.74,-5.14,
2.948,0.27,-9.68,1.85,1.93,-0.76,-5.10,
2.948,0.93,-9.01,1.92,1.93,-0.76,-5.10,
2.951,0.93,-9.01,1.92,1.94,-0.79,-5.05,
2.953,0.93,-9.01,1.92,1.95,-0.80,-4.99,
2.956,1.65,-8.37,1.96,1.95,-0.80,-4.99,
2.956,1.65,-8.37,1.96,1.96,-0.81,-4.93,
2.959,1.65,-8.37,1.96,1.96,-0.81,-4.86,
2.959,2.42,-7.88,1.96,1.96,-0.81,-4.86,
2.96,2.42,-7.88,1.96,1.96,-0.80,-4.80,
2.964,3.32,-7.23,1.97,1.96,-0.80,-4.80,
2.968,3.32,-7.23,1.97,1.97,-0.78,-4.73,
2.968,3.32,-7.23,1.97,1.96,-0.76,-4.65,
2.972,3.94,-6.31,2.08,1.96,-0.76,-4.65,
2.974,3.94,-6.31,2.08,1.96,-0.73,-4.57,
2.99,3.94,-6.31,2.08,1.95,-0.71,-4.49,
2.991,4.62,-5.39,2.20,1.95,-0.71,-4.49,
2.992,4.62,-5.39,2.20,1.93,-0.69,-4.39,
2.992,4.62,-5.39,2.20,1.92,-0.68,-4.30,
2.992,4.62,-5.39,2.20,1.90,-0.67,-4.21,
2.993,5.38,-4.49,2.30,1.90,-0.67,-4.21,
2.993,5.38,-4.49,2.30,1.88,-0.66,-4.11,
2.993,5.38,-4.49,2.30,1.85,-0.66,-4.01,
2.993,6.07,-3.62,2.44,1.85,-0.66,-4.01,
2.993,6.07,-3.62,2.44,1.82,-0.64,-3.90,
2.994,6.70,-2.80,2.64,1.82,-0.64,-3.90,
2.994,6.70,-2.80,2.64,1.79,-0.62,-3.78,
2.994,6.70,-2.80,2.64,1.75,-0.58,-3.65,
2.994,6.70,-2.80,2.64,1.69,-0.52,-3.51,
2.995,7.38,-1.96,2.87,1.69,-0.52,-3.51,
2.995,7.38,-1.96,2.87,1.62,-0.46,-3.36,
2.997,7.38,-1.96,2.87,1.54,-0.38,-3.21,
2.998,8.29,-1.01,2.76,1.54,-0.38,-3.21,
3.009,8.29,-1.01,2.76,1.44,-0.31,-3.05,
3.01,9.18,-0.04,2.63,1.44,-0.31,-3.05,
3.015,9.18,-0.04,2.63,1.33,-0.24,-2.89,
3.015,9.18,-0.04,2.63,1.21,-0.16,-2.73,
3.015,9.18,-0.04,2.63,1.08,-0.10,-2.57,
3.016,10.11,0.78,3.23,1.08,-0.10,-2.57,
3.016,10.11,0.78,3.23,0.95,-0.04,-2.41,
3.016,10.11,0.78,3.23,0.83,-0.01,-2.26,
3.016,10.94,1.34,4.65,0.83,-0.01,-2.26,
3.017,10.94,1.34,4.65,0.72,-0.00,-2.11,
3.025,10.94,1.34,4.65,0.61,-0.02,-1.96,
3.025,11.88,1.52,6.19,0.61,-0.02,-1.96,
3.026,11.88,1.52,6.19,0.51,-0.05,-1.82,
3.026,11.88,1.52,6.19,0.41,-0.09,-1.69,
3.026,12.58,1.22,7.14,0.41,-0.09,-1.69,
3.026,12.58,1.22,7.14,0.31,-0.15,-1.56,
3.027,12.58,1.22,7.14,0.20,-0.21,-1.43,
3.027,12.87,0.69,7.70,0.20,-0.21,-1.43,
3.03,12.87,0.69,7.70,0.10,-0.27,-1.29,
3.033,13.07,-0.09,7.98,0.10,-0.27,-1.29,
3.034,13.07,-0.09,7.98,-0.01,-0.33,-1.15,
3.036,13.07,-0.09,7.98,-0.10,-0.40,-1.01,
3.039,13.14,-0.87,7.99,-0.10,-0.40,-1.01,
3.039,13.14,-0.87,7.99,-0.20,-0.47,-0.87,
3.04,13.14,-0.87,7.99,-0.29,-0.53,-0.73,
3.042,13.19,-1.66,7.54,-0.29,-0.53,-0.73,
3.042,13.19,-1.66,7.54,-0.38,-0.58,-0.58,
3.044,13.19,-1.66,7.54,-0.46,-0.63,-0.43,
3.046,13.19,-1.66,7.54,-0.53,-0.69,-0.28,
3.047,13.21,-2.46,6.89,-0.53,-0.69,-0.28,
3.05,13.21,-2.46,6.89,-0.59,-0.74,-0.13,
3.052,13.21,-2.46,6.89,-0.65,-0.78,0.03,
3.052,13.13,-3.21,5.94,-0.65,-0.78,0.03,
3.054,13.13,-3.21,5.94,-0.69,-0.80,0.18,
3.056,13.13,-3.21,5.94,-0.73,-0.82,0.33,
3.057,12.87,-3.96,4.83,-0.73,-0.82,0.33,
3.059,12.87,-3.96,4.83,-0.76,-0.85,0.50,
3.061,12.87,-3.96,4.83,-0.77,-0.88,0.67,
3.061,12.58,-4.98,3.96,-0.77,-0.88,0.67,
3.064,12.58,-4.98,3.96,-0.78,-0.92,0.84,
3.067,12.58,-4.98,3.96,-0.78,-0.98,1.01,
3.067,12.39,-6.11,3.21,-0.78,-0.98,1.01,
3.07,12.39,-6.11,3.21,-0.76,-1.02,1.19,
3.071,12.39,-6.11,3.21,-0.74,-1.00,1.34,
3.071,12.48,-7.82,2.03,-0.74,-1.00,1.34,
3.074,12.48,-7.82,2.03,-0.71,-0.98,1.47,
3.076,12.48,-7.82,2.03,-0.69,-0.95,1.60,
3.076,12.59,-9.57,1.59,-0.69,-0.95,1.60,
3.078,12.59,-9.57,1.59,-0.65,-0.91,1.70,
3.081,12.59,-9.57,1.59,-0.60,-0.86,1.79,
3.081,12.70,-11.44,1.58,-0.60,-0.86,1.79,
3.084,12.70,-11.44,1.58,-0.54,-0.82,1.86,
3.086,12.94,-13.71,1.76,-0.54,-0.82,1.86,
3.087,12.94,-13.71,1.76,-0.47,-0.77,1.91,
3.089,12.94,-13.71,1.76,-0.40,-0.72,1.93,
3.091,13.03,-16.35,1.92,-0.40,-0.72,1.93,
3.092,13.03,-16.35,1.92,-0.33,-0.66,1.91,
3.094,13.03,-16.35,1.92,-0.26,-0.58,1.87,
3.096,12.41,-18.89,1.99,-0.26,-0.58,1.87,
3.097,12.41,-18.89,1.99,-0.19,-0.49,1.81,
3.099,12.41,-18.89,1.99,-0.12,-0.37,1.71,
3.102,11.82,-20.32,0.89,-0.12,-0.37,1.71,
3.104,11.82,-20.32,0.89,-0.09,-0.23,1.51,
3.104,11.82,-20.32,0.89,-0.33,-0.07,1.12,
3.106,11.82,-20.32,0.89,-0.82,0.18,0.60,
3.107,9.23,-15.49,-9.02,-0.82,0.18,0.60,
3.108,9.23,-15.49,-9.02,-1.59,0.45,-0.08,
3.111,9.23,-15.49,-9.02,-3.03,0.58,-1.08,
3.112,8.06,-0.42,-22.69,-3.03,0.58,-1.08,
3.113,8.06,-0.42,-22.69,-4.31,0.57,-2.30,
3.121,8.06,-0.42,-22.69,-4.26,0.33,-3.21,
3.122,0.54,17.30,-1.15,-4.26,0.33,-3.21,
3.122,0.54,17.30,-1.15,-3.57,-0.17,-3.47,
3.123,-6.90,29.82,6.51,-3.57,-0.17,-3.47,
3.123,-6.90,29.82,6.51,-2.49,-0.94,-3.14,
3.124,-6.90,29.82,6.51,-1.88,-2.13,-2.12,
3.127,-6.90,29.82,6.51,-2.26,-3.70,-0.07,
3.127,-22.08,29.78,20.04,-2.26,-3.70,-0.07,
3.129,-22.08,29.78,20.04,-1.85,-4.78,2.57,
3.131,-22.08,29.78,20.04,-0.52,-4.89,5.09,
3.133,-18.23,29.72,31.30,-0.52,-4.89,5.09,
3.138,-18.23,29.72,31.30,0.58,-4.41,6.85,
3.16,10.20,29.66,4.77,0.58,-4.41,6.85,
3.16,10.20,29.66,4.77,1.17,-3.10,7.22,
3.16,10.20,29.66,4.77,1.18,-0.99,6.45,
3.161,18.64,22.54,-17.02,1.18,-0.99,6.45,
3.161,18.64,22.54,-17.02,1.00,1.03,5.17,
3.162,18.64,22.54,-17.02,0.94,2.30,3.95,
3.163,18.64,22.54,-17.02,0.98,2.77,3.13,
3.163,10.82,9.00,-14.96,0.98,2.77,3.13,
3.163,10.82,9.00,-14.96,1.06,2.66,2.74,
3.163,7.43,1.76,-6.70,1.06,2.66,2.74,
3.163,7.43,1.76,-6.70,1.04,2.11,2.65,
3.164,7.43,1.76,-6.70,0.90,1.39,2.74,
3.164,6.52,-5.89,-2.99,0.90,1.39,2.74,
3.164,6.52,-5.89,-2.99,0.66,0.74,2.90,
3.164,6.52,-5.89,-2.99,0.41,0.20,3.03,
3.165,7.16,-14.46,7.64,0.41,0.20,3.03,
3.165,7.16,-14.46,7.64,0.22,-0.23,3.09,
3.165,7.16,-14.46,7.64,0.08,-0.57,3.07,
3.165,7.16,-14.46,7.64,-0.10,-0.79,2.98,
3.166,7.45,-21.57,12.75,-0.10,-0.79,2.98,
3.17,7.45,-21.57,12.75,-0.19,-0.75,2.82,
3.17,7.45,-21.57,12.75,-0.13,-0.40,2.61,
3.171,6.50,-24.89,10.24,-0.13,-0.40,2.61,
3.174,6.50,-24.89,10.24,0.05,0.14,2.36,
3.176,6.50,-24.89,10.24,0.26,0.69,2.10,
3.177,5.30,-24.14,5.87,0.26,0.69,2.10,
3.179,5.30,-24.14,5.87,0.42,1.11,1.85,
3.18,5.30,-24.14,5.87,0.46,1.28,1.64,
3.18,4.48,-19.81,1.71,0.46,1.28,1.64,
3.184,4.48,-19.81,1.71,0.33,1.20,1.47,
3.185,3.28,-11.18,-0.69,0.33,1.20,1.47,
3.186,3.28,-11.18,-0.69,0.12,0.97,1.32,
3.187,3.28,-11.18,-0.69,-0.08,0.66,1.22,
3.191,3.28,-11.18,-0.69,-0.24,0.36,1.14,
3.191,2.26,-3.42,-1.10,-0.24,0.36,1.14,
3.194,2.26,-3.42,-1.10,-0.35,0.10,1.07,
3.196,2.26,-3.42,-1.10,-0.41,-0.12,1.03,
3.196,2.30,1.95,-0.56,-0.41,-0.12,1.03,
3.198,2.30,1.95,-0.56,-0.43,-0.30,1.01,
3.201,2.30,1.95,-0.56,-0.38,-0.43,0.99,
3.201,2.55,5.54,0.05,-0.38,-0.43,0.99,
3.203,2.55,5.54,0.05,-0.31,-0.51,0.99,
3.205,2.55,5.54,0.05,-0.25,-0.54,0.99,
3.205,2.73,8.28,0.05,-0.25,-0.54,0.99,
3.207,2.73,8.28,0.05,-0.21,-0.52,0.98,
3.21,2.73,8.28,0.05,-0.17,-0.45,0.98,
3.21,2.66,9.66,0.18,-0.17,-0.45,0.98,
3.212,2.66,9.66,0.18,-0.11,-0.33,0.98,
3.215,2.66,9.66,0.18,-0.04,-0.20,0.97,
3.215,2.65,8.56,0.67,-0.04,-0.20,0.97,
3.22,2.65,8.56,0.67,0.02,-0.09,0.97,
3.221,2.75,4.87,1.21,0.02,-0.09,0.97,
3.225,2.75,4.87,1.21,0.08,0.00,0.97,
3.225,2.75,4.87,1.21,0.14,0.08,0.96,
3.226,2.75,4.87,1.21,0.18,0.14,0.94,
3.226,2.62,1.13,1.15,0.18,0.14,0.94,
3.227,2.62,1.13,1.15,0.20,0.18,0.91,
3.23,2.62,1.13,1.15,0.19,0.20,0.89,
3.23,1.96,-1.31,0.95,0.19,0.20,0.89,
3.234,1.96,-1.31,0.95,0.18,0.21,0.86,
3.238,0.78,-2.71,1.57,0.18,0.21,0.86,
3.238,0.78,-2.71,1.57,0.17,0.21,0.83,
3.238,0.78,-2.71,1.57,0.18,0.20,0.81,
3.24,0.78,-2.71,1.57,0.20,0.18,0.79,
3.24,-0.18,-3.44,2.10,0.20,0.18,0.79,
3.242,-0.18,-3.44,2.10,0.21,0.13,0.77,
3.245,-0.18,-3.44,2.10,0.23,0.05,0.75,
3.245,-0.58,-3.71,1.86,0.23,0.05,0.75,
3.247,-0.58,-3.71,1.86,0.23,-0.06,0.72,
3.25,-0.29,-3.11,0.98,0.23,-0.06,0.72,
3.251,-0.29,-3.11,0.98,0.23,-0.16,0.68,
3.253,-0.29,-3.11,0.98,0.22,-0.23,0.65,
3.255,-0.29,-3.11,0.98,0.20,-0.26,0.62,
3.255,0.31,-1.74,0.01,0.20,-0.26,0.62,
3.257,0.31,-1.74,0.01,0.19,-0.27,0.60,
3.26,0.98,-0.18,-0.18,0.19,-0.27,0.60,
3.26,0.98,-0.18,-0.18,0.18,-0.27,0.59,
3.263,0.98,-0.18,-0.18,0.17,-0.25,0.57,
3.265,2.01,0.92,-0.31,0.17,-0.25,0.57,
3.265,2.01,0.92,-0.31,0.16,-0.20,0.55,
3.269,2.01,0.92,-0.31,0.15,-0.13,0.51,
3.271,2.68,1.52,-0.12,0.15,-0.13,0.51,
3.272,2.68,1.52,-0.12,0.16,-0.05,0.48,
3.273,2.68,1.52,-0.12,0.17,0.01,0.43,
3.275,2.68,1.52,-0.12,0.19,0.07,0.40,
3.275,2.77,1.63,0.46,0.19,0.07,0.40,
3.277,2.77,1.63,0.46,0.21,0.12,0.35,
3.28,2.43,1.19,0.60,0.21,0.12,0.35,
3.281,2.43,1.19,0.60,0.23,0.15,0.31,
3.287,2.43,1.19,0.60,0.24,0.19,0.28,
3.288,2.43,1.19,0.60,0.25,0.21,0.25,
3.289,1.46,0.73,0.50,0.25,0.21,0.25,
3.29,1.46,0.73,0.50,0.26,0.22,0.24,
3.291,0.35,0.45,0.39,0.26,0.22,0.24,
3.292,0.35,0.45,0.39,0.27,0.22,0.24,
3.298,0.35,0.45,0.39,0.27,0.22,0.23,
3.298,-0.34,-0.09,0.35,0.27,0.22,0.23,
3.298,-0.34,-0.09,0.35,0.28,0.22,0.23,
3.299,-0.34,-0.09,0.35,0.28,0.21,0.23,
3.313,-0.34,-0.09,0.35,0.29,0.19,0.23,
3.345,-0.34,-0.09,0.35,0.30,0.16,0.23,
3.345,-0.34,-0.09,0.35,0.30,0.12,0.24,
3.345,-0.34,-0.09,0.35,0.29,0.07,0.25,
3.345,-0.34,-0.09,0.35,0.29,0.02,0.26,
3.346,-0.34,-0.09,0.35,0.27,-0.01,0.27,
3.346,-1.07,-0.42,0.49,0.27,-0.01,0.27,
3.346,-1.42,-0.51,0.20,0.27,-0.01,0.27,
3.346,-1.11,-0.40,-0.13,0.27,-0.01,0.27,
3.347,-1.11,-0.40,-0.13,0.27,-0.02,0.29,
3.347,-1.06,0.04,-0.33,0.27,-0.02,0.29,
3.347,-1.06,0.04,-0.33,0.27,0.00,0.31,
3.348,-0.39,0.26,-0.21,0.27,0.00,0.31,
3.348,-0.39,0.26,-0.21,0.27,0.03,0.32,
3.348,-0.39,0.26,-0.21,0.26,0.04,0.32,
3.348,1.04,0.08,-0.44,0.26,0.04,0.32,
3.349,1.04,0.08,-0.44,0.25,0.04,0.30,
3.349,1.04,0.08,-0.44,0.23,0.03,0.28,
3.349,1.48,0.11,-1.00,0.23,0.03,0.28,
3.349,1.48,0.11,-1.00,0.21,0.04,0.27,
3.35,1.48,0.11,-1.00,0.19,0.04,0.25,
3.35,1.51,0.30,-0.43,0.19,0.04,0.25,
3.35,1.51,0.30,-0.43,0.19,0.03,0.23,
3.35,1.51,0.30,-0.43,0.20,0.03,0.20,
3.35,1.06,0.39,0.19,0.20,0.03,0.20,
3.351,1.06,0.39,0.19,0.21,0.03,0.18,
3.351,1.06,0.39,0.19,0.22,0.05,0.16,
3.351,0.93,0.29,-0.17,0.22,0.05,0.16,
3.351,0.93,0.29,-0.17,0.22,0.09,0.15,
3.352,0.93,0.29,-0.17,0.20,0.13,0.12,
3.352,1.12,0.21,-0.33,0.20,0.13,0.12,
3.352,1.12,0.21,-0.33,0.19,0.15,0.10,
3.356,1.12,0.21,-0.33,0.17,0.17,0.08,
3.358,1.12,0.21,-0.33,0.17,0.18,0.06,
3.358,1.34,0.30,-0.09,0.17,0.18,0.06,
3.358,1.34,0.30,-0.09,0.17,0.20,0.04,
3.359,1.34,0.30,-0.09,0.18,0.23,0.01,
3.359,1.32,0.38,0.59,0.18,0.23,0.01,
3.361,1.32,0.38,0.59,0.20,0.24,-0.01,
3.365,1.32,0.38,0.59,0.22,0.25,-0.04,
3.366,0.92,0.52,0.86,0.22,0.25,-0.04,
3.37,0.92,0.52,0.86,0.24,0.26,-0.06,
3.372,0.92,0.52,0.86,0.24,0.25,-0.08,
3.373,0.69,0.28,0.58,0.24,0.25,-0.08,
3.373,0.69,0.28,0.58,0.24,0.23,-0.11,
3.375,0.69,0.28,0.58,0.23,0.21,-0.13,
3.376,0.33,-0.02,0.12,0.23,0.21,-0.13,
3.376,0.33,-0.02,0.12,0.22,0.19,-0.13,
3.379,0.33,-0.02,0.12,0.22,0.16,-0.12,
3.38,-0.93,0.24,0.25,0.22,0.16,-0.12,
3.381,-0.93,0.24,0.25,0.23,0.14,-0.11,
3.386,-0.93,0.24,0.25,0.24,0.14,-0.09,
3.386,-1.39,0.27,0.50,0.24,0.14,-0.09,
3.387,-1.39,0.27,0.50,0.25,0.14,-0.08,
3.389,-1.39,0.27,0.50,0.24,0.14,-0.05,
3.389,-1.86,0.40,-0.18,0.24,0.14,-0.05,
3.391,-1.86,0.40,-0.18,0.23,0.14,-0.02,
3.394,-1.86,0.40,-0.18,0.21,0.14,0.00,
3.394,-1.68,0.54,-0.63,0.21,0.14,0.00,
3.396,-1.68,0.54,-0.63,0.20,0.15,0.03,
3.398,-1.68,0.54,-0.63,0.19,0.15,0.05,
3.399,-1.21,0.70,-0.44,0.19,0.15,0.05,
3.402,-1.21,0.70,-0.44,0.20,0.17,0.06,
3.403,-1.21,0.70,-0.44,0.20,0.19,0.06,
3.404,-0.65,0.66,-0.30,0.20,0.19,0.06,
3.406,-0.65,0.66,-0.30,0.21,0.22,0.06,
3.408,-0.65,0.66,-0.30,0.21,0.25,0.06,
3.408,-0.33,0.59,-0.37,0.21,0.25,0.06,
3.411,-0.33,0.59,-0.37,0.21,0.30,0.05,
3.413,-0.33,0.59,-0.37,0.20,0.36,0.05,
3.413,-0.20,0.53,-0.56,0.20,0.36,0.05,
3.416,-0.20,0.53,-0.56,0.20,0.42,0.05,
3.422,-0.20,0.53,-0.56,0.20,0.46,0.05,
3.423,-0.41,0.53,-0.25,0.20,0.46,0.05,
3.423,-0.41,0.53,-0.25,0.20,0.48,0.05,
3.423,-0.27,0.52,-0.18,0.20,0.48,0.05,
3.424,-0.27,0.52,-0.18,0.21,0.51,0.04,
3.426,-0.27,0.52,-0.18,0.20,0.56,0.03,
3.428,-0.27,0.52,-0.18,0.20,0.60,0.01,
3.428,-0.42,0.63,-0.34,0.20,0.60,0.01,
3.431,-0.42,0.63,-0.34,0.20,0.63,0.01,
3.435,-0.92,0.86,-0.34,0.20,0.63,0.01,
3.435,-0.92,0.86,-0.34,0.20,0.65,0.02,
3.437,-0.92,0.86,-0.34,0.20,0.67,0.03,
3.439,-0.92,0.86,-0.34,0.19,0.68,0.05,
3.441,-0.92,0.86,-0.34,0.18,0.69,0.07,
3.441,-1.60,0.96,-0.74,0.18,0.69,0.07,
3.443,-1.60,0.96,-0.74,0.17,0.70,0.10,
3.443,-2.11,1.07,-1.44,0.17,0.70,0.10,
3.446,-2.11,1.07,-1.44,0.15,0.70,0.12,
3.448,-2.49,1.23,-1.74,0.15,0.70,0.12,
3.448,-2.49,1.23,-1.74,0.13,0.69,0.15,
3.451,-2.49,1.23,-1.74,0.11,0.68,0.17,
3.453,-2.49,1.23,-1.74,0.09,0.66,0.20,
3.454,-2.85,1.49,-1.77,0.09,0.66,0.20,
3.455,-2.85,1.49,-1.77,0.07,0.63,0.24,
3.458,-2.85,1.49,-1.77,0.05,0.62,0.27,
3.458,-3.08,1.78,-1.91,0.05,0.62,0.27,
3.46,-3.08,1.78,-1.91,0.02,0.61,0.31,
3.463,-3.08,1.78,-1.91,-0.01,0.63,0.36,
3.463,-3.40,2.36,-2.23,-0.01,0.63,0.36,
3.476,-3.40,2.36,-2.23,-0.03,0.65,0.42,
3.477,-3.40,2.36,-2.23,-0.06,0.67,0.47,
3.477,-3.68,2.80,-2.21,-0.06,0.67,0.47,
3.477,-3.68,2.80,-2.21,-0.09,0.70,0.53,
3.477,-3.68,2.80,-2.21,-0.11,0.71,0.58,
3.477,-3.75,3.01,-1.55,-0.11,0.71,0.58,
3.478,-3.75,3.01,-1.55,-0.13,0.69,0.63,
3.478,-4.03,3.02,-1.01,-0.13,0.69,0.63,
3.478,-4.03,3.02,-1.01,-0.15,0.66,0.68,
3.48,-4.03,3.02,-1.01,-0.17,0.62,0.72,
3.485,-4.03,3.02,-1.01,-0.19,0.60,0.76,
3.485,-4.48,3.08,-1.00,-0.19,0.60,0.76,
3.489,-4.48,3.08,-1.00,-0.21,0.57,0.81,
3.489,-4.48,3.08,-1.00,-0.21,0.53,0.84,
3.489,-4.19,3.55,-1.37,-0.21,0.53,0.84,
3.49,-4.19,3.55,-1.37,-0.23,0.51,0.88,
3.493,-4.19,3.55,-1.37,-0.29,0.53,0.90,
3.493,-4.05,4.54,-2.93,-0.29,0.53,0.90,
3.495,-4.05,4.54,-2.93,-0.36,0.61,0.93,
3.498,-4.05,4.54,-2.93,-0.41,0.68,0.99,
3.498,-5.32,5.22,-2.08,-0.41,0.68,0.99,
3.502,-5.32,5.22,-2.08,-0.40,0.75,1.10,
3.504,-5.32,5.22,-2.08,-0.36,0.82,1.23,
3.504,-6.46,4.91,0.91,-0.36,0.82,1.23,
3.505,-6.46,4.91,0.91,-0.30,0.79,1.30,
3.508,-6.46,4.91,0.91,-0.28,0.48,1.32,
3.508,-3.39,3.77,1.27,-0.28,0.48,1.32,
3.51,-3.39,3.77,1.27,-0.31,0.40,1.34,
3.513,-3.39,3.77,1.27,-0.36,0.54,1.41,
3.513,-5.11,3.59,-3.15,-0.36,0.54,1.41,
3.515,-5.11,3.59,-3.15,-0.40,0.61,1.49,
3.528,-5.11,3.59,-3.15,-0.42,0.46,1.54,
3.53,-4.42,2.08,0.75,-0.42,0.46,1.54,
3.53,-4.42,2.08,0.75,-0.42,0.07,1.56,
3.53,-4.42,2.08,0.75,-0.39,-0.38,1.55,
3.53,-3.75,0.72,2.94,-0.39,-0.38,1.55,
3.531,-3.75,0.72,2.94,-0.38,-0.66,1.55,
3.531,-3.76,0.06,0.21,-0.38,-0.66,1.55,
3.531,-3.76,0.06,0.21,-0.36,-0.72,1.57,
3.531,-3.76,0.06,0.21,-0.38,-0.60,1.60,
3.532,-2.93,-0.36,-1.14,-0.38,-0.60,1.60,
3.533,-2.93,-0.36,-1.14,-0.40,-0.30,1.65,
3.537,-2.93,-0.36,-1.14,-0.41,0.02,1.71,
3.538,-2.93,-0.36,-1.14,-0.40,0.26,1.76,
3.538,-1.51,-0.31,0.05,-0.40,0.26,1.76,
3.54,-1.51,-0.31,0.05,-0.38,0.41,1.80,
3.543,-1.51,-0.31,0.05,-0.37,0.51,1.83,
3.543,-0.22,0.14,0.46,-0.37,0.51,1.83,
3.544,-0.22,0.14,0.46,-0.37,0.54,1.85,
3.547,-0.22,0.14,0.46,-0.34,0.57,1.86,
3.547,0.36,0.18,0.19,-0.34,0.57,1.86,
3.549,0.36,0.18,0.19,-0.34,0.58,1.86,
3.553,0.36,0.18,0.19,-0.33,0.60,1.84,
3.554,0.74,-0.01,0.30,-0.33,0.60,1.84,
3.556,0.74,-0.01,0.30,-0.34,0.61,1.82,
3.558,0.74,-0.01,0.30,-0.37,0.64,1.79,
3.558,0.67,0.15,-0.16,-0.37,0.64,1.79,
3.56,0.67,0.15,-0.16,-0.40,0.69,1.77,
3.562,0.67,0.15,-0.16,-0.43,0.70,1.77,
3.562,-0.23,0.70,-0.30,-0.43,0.70,1.77,
3.565,-0.23,0.70,-0.30,-0.46,0.69,1.77,
3.57,-1.06,1.45,-0.50,-0.46,0.69,1.77,
3.57,-1.06,1.45,-0.50,-0.47,0.68,1.77,
3.57,-1.06,1.45,-0.50,-0.49,0.66,1.77,
3.572,-1.06,1.45,-0.50,-0.48,0.66,1.78,
3.572,-1.86,2.05,-0.72,-0.48,0.66,1.78,
3.574,-1.86,2.05,-0.72,-0.49,0.62,1.79,
3.577,-1.86,2.05,-0.72,-0.50,0.58,1.81,
3.577,-2.58,2.15,-0.64,-0.50,0.58,1.81,
3.579,-2.58,2.15,-0.64,-0.51,0.53,1.83,
3.582,-2.58,2.15,-0.64,-0.51,0.48,1.84,
3.582,-2.56,1.90,0.08,-0.51,0.48,1.84,
3.587,-2.56,1.90,0.08,-0.52,0.42,1.85,
3.589,-1.62,1.45,0.67,-0.52,0.42,1.85,
3.59,-1.62,1.45,0.67,-0.52,0.37,1.86,
3.591,-1.62,1.45,0.67,-0.53,0.29,1.84,
3.592,0.52,0.69,1.28,-0.53,0.29,1.84,
3.593,0.52,0.69,1.28,-0.54,0.20,1.82,
3.595,0.52,0.69,1.28,-0.57,0.09,1.77,
3.597,2.59,-0.01,1.56,-0.57,0.09,1.77,
3.598,2.59,-0.01,1.56,-0.59,-0.03,1.71,
3.599,2.59,-0.01,1.56,-0.61,-0.14,1.65,
3.603,3.93,-0.40,2.23,-0.61,-0.14,1.65,
3.604,3.93,-0.40,2.23,-0.62,-0.24,1.57,
3.605,3.93,-0.40,2.23,-0.64,-0.33,1.49,
3.607,3.03,-0.07,2.08,-0.64,-0.33,1.49,
3.607,3.03,-0.07,2.08,-0.65,-0.40,1.41,
3.609,3.03,-0.07,2.08,-0.65,-0.43,1.35,
3.616,0.97,0.48,1.97,-0.65,-0.43,1.35,
3.624,-0.29,1.01,1.78,-0.65,-0.43,1.35,
3.624,-0.29,1.01,1.78,-0.65,-0.42,1.31,
3.624,-0.29,1.01,1.78,-0.66,-0.40,1.27,
3.625,-0.29,1.01,1.78,-0.67,-0.37,1.24,
3.625,-0.29,1.01,1.78,-0.68,-0.34,1.22,
3.625,-0.35,1.47,1.90,-0.68,-0.34,1.22,
3.625,-0.35,1.47,1.90,-0.69,-0.34,1.20,
3.625,-0.35,1.47,1.90,-0.69,-0.35,1.17,
3.627,0.56,1.96,1.89,-0.69,-0.35,1.17,
3.627,0.56,1.96,1.89,-0.69,-0.37,1.14,
3.629,0.56,1.96,1.89,-0.68,-0.39,1.09,
3.643,1.93,2.38,1.91,-0.68,-0.39,1.09,
3.643,1.93,2.38,1.91,-0.67,-0.42,1.02,
3.644,1.93,2.38,1.91,-0.66,-0.46,0.95,
3.644,3.21,2.77,1.61,-0.66,-0.46,0.95,
3.644,3.21,2.77,1.61,-0.65,-0.48,0.87,
3.644,3.21,2.77,1.61,-0.64,-0.50,0.79,
3.644,3.21,2.77,1.61,-0.63,-0.50,0.70,
3.644,4.33,3.01,1.31,-0.63,-0.50,0.70,
3.645,4.33,3.01,1.31,-0.62,-0.50,0.60,
3.649,4.33,3.01,1.31,-0.61,-0.47,0.49,
3.649,5.48,3.18,1.36,-0.61,-0.47,0.49,
3.65,5.48,3.18,1.36,-0.59,-0.42,0.36,
3.652,6.04,3.55,0.49,-0.59,-0.42,0.36,
3.653,6.04,3.55,0.49,-0.59,-0.37,0.23,
3.655,6.04,3.55,0.49,-0.58,-0.29,0.11,
3.657,6.20,3.99,0.06,-0.58,-0.29,0.11,
3.657,6.20,3.99,0.06,-0.57,-0.20,-0.01,
3.659,6.20,3.99,0.06,-0.57,-0.09,-0.14,
3.661,6.20,3.99,0.06,-0.57,0.07,-0.29,
3.661,5.93,4.85,-0.80,-0.57,0.07,-0.29,
3.664,5.93,4.85,-0.80,-0.57,0.27,-0.43,
3.666,5.93,4.85,-0.80,-0.56,0.48,-0.57,
3.667,4.78,5.88,-1.73,-0.56,0.48,-0.57,
3.672,4.78,5.88,-1.73,-0.55,0.69,-0.72,
3.672,4.78,5.88,-1.73,-0.55,0.90,-0.86,
3.673,2.95,7.21,-2.69,-0.55,0.90,-0.86,
3.674,2.95,7.21,-2.69,-0.54,1.10,-0.99,
3.676,2.95,7.21,-2.69,-0.53,1.27,-1.10,
3.677,0.53,8.25,-3.32,-0.53,1.27,-1.10,
3.679,0.53,8.25,-3.32,-0.52,1.41,-1.21,
3.681,0.53,8.25,-3.32,-0.53,1.55,-1.30,
3.681,-2.21,9.06,-4.49,-0.53,1.55,-1.30,
3.684,-2.21,9.06,-4.49,-0.54,1.69,-1.38,
3.687,-2.21,9.06,-4.49,-0.55,1.83,-1.44,
3.688,-4.93,9.05,-5.69,-0.55,1.83,-1.44,
3.689,-4.93,9.05,-5.69,-0.57,1.97,-1.48,
3.691,-4.93,9.05,-5.69,-0.59,2.08,-1.52,
3.692,-7.14,8.51,-5.39,-0.59,2.08,-1.52,
3.693,-7.14,8.51,-5.39,-0.62,2.14,-1.55,
3.696,-7.14,8.51,-5.39,-0.64,2.16,-1.57,
3.696,-8.90,8.16,-4.21,-0.64,2.16,-1.57,
3.698,-8.90,8.16,-4.21,-0.68,2.17,-1.59,
3.702,-8.90,8.16,-4.21,-0.70,2.13,-1.59,
3.704,-10.03,8.17,-2.25,-0.70,2.13,-1.59,
3.704,-10.03,8.17,-2.25,-0.73,2.05,-1.57,
3.706,-10.03,8.17,-2.25,-0.81,1.91,-1.53,
3.707,-10.88,8.75,-0.67,-0.81,1.91,-1.53,
3.708,-10.88,8.75,-0.67,-0.91,1.75,-1.49,
3.711,-10.88,8.75,-0.67,-1.00,1.58,-1.42,
3.711,-11.41,9.06,0.35,-1.00,1.58,-1.42,
3.713,-11.41,9.06,0.35,-1.08,1.45,-1.36,
3.716,-11.41,9.06,0.35,-1.12,1.36,-1.31,
3.716,-11.61,8.44,-0.42,-1.12,1.36,-1.31,
3.723,-11.61,8.44,-0.42,-1.13,1.27,-1.26,
3.724,-11.61,8.44,-0.42,-1.11,1.17,-1.18,
3.724,-12.54,8.08,-0.53,-1.11,1.17,-1.18,
3.724,-12.54,8.08,-0.53,-1.10,1.06,-1.08,
3.726,-12.54,8.08,-0.53,-1.05,0.90,-0.95,
3.727,-13.27,7.89,-0.57,-1.05,0.90,-0.95,
3.729,-13.27,7.89,-0.57,-0.97,0.67,-0.78,
3.731,-13.27,7.89,-0.57,-0.89,0.39,-0.57,
3.731,-13.85,7.66,-1.06,-0.89,0.39,-0.57,
3.733,-13.85,7.66,-1.06,-0.83,0.11,-0.29,
3.736,-14.28,8.20,-2.88,-0.83,0.11,-0.29,
3.738,-14.28,8.20,-2.88,-0.78,-0.13,0.04,
3.738,-14.28,8.20,-2.88,-0.74,-0.32,0.42,
3.74,-14.28,8.20,-2.88,-0.71,-0.45,0.82,
3.741,-14.21,8.70,-5.03,-0.71,-0.45,0.82,
3.743,-14.21,8.70,-5.03,-0.71,-0.54,1.25,
3.745,-14.21,8.70,-5.03,-0.72,-0.59,1.68,
3.746,-13.88,9.51,-6.56,-0.72,-0.59,1.68,
3.748,-13.88,9.51,-6.56,-0.74,-0.67,2.13,
3.751,-11.31,10.76,-6.28,-0.74,-0.67,2.13,
3.751,-11.31,10.76,-6.28,-0.76,-0.78,2.55,
3.754,-11.31,10.76,-6.28,-0.78,-0.96,2.90,
3.756,-11.31,10.76,-6.28,-0.78,-1.17,3.14,
3.757,-7.25,10.95,-5.84,-0.78,-1.17,3.14,
3.758,-7.25,10.95,-5.84,-0.78,-1.36,3.29,
3.761,-7.25,10.95,-5.84,-0.76,-1.46,3.37,
3.761,-4.78,10.37,-6.71,-0.76,-1.46,3.37,
3.763,-4.78,10.37,-6.71,-0.75,-1.48,3.42,
3.766,-4.78,10.37,-6.71,-0.73,-1.43,3.47,
3.767,-4.07,10.31,-7.91,-0.73,-1.43,3.47,
3.768,-4.07,10.31,-7.91,-0.74,-1.33,3.56,
3.771,-4.07,10.31,-7.91,-0.75,-1.17,3.67,
3.771,-3.27,10.82,-7.86,-0.75,-1.17,3.67,
3.773,-3.27,10.82,-7.86,-0.78,-0.93,3.80,
3.775,-2.45,11.14,-7.66,-0.78,-0.93,3.80,
3.776,-2.45,11.14,-7.66,-0.83,-0.61,3.96,
3.78,-1.25,10.32,-4.63,-0.83,-0.61,3.96,
3.78,-1.25,10.32,-4.63,-0.84,-0.24,4.15,
3.78,-1.25,10.32,-4.63,-0.79,0.09,4.39,
3.783,-1.25,10.32,-4.63,-0.72,0.29,4.66,
3.785,0.74,10.19,-1.26,-0.72,0.29,4.66,
3.786,0.74,10.19,-1.26,-0.66,0.39,4.93,
3.788,0.74,10.19,-1.26,-0.62,0.48,5.13,
3.79,0.74,10.19,-1.26,-0.57,0.63,5.24,
3.79,2.56,9.84,-2.73,-0.57,0.63,5.24,
3.793,2.56,9.84,-2.73,-0.54,0.86,5.23,
3.795,2.56,9.84,-2.73,-0.56,1.16,5.14,
3.815,3.55,10.28,-6.75,-0.56,1.16,5.14,
3.815,3.55,10.28,-6.75,-0.64,1.49,4.99,
3.815,3.55,10.28,-6.75,-0.77,1.80,4.82,
3.815,3.37,11.62,-9.42,-0.77,1.80,4.82,
3.816,3.37,11.62,-9.42,-0.92,2.06,4.68,
3.816,3.37,11.62,-9.42,-1.06,2.28,4.57,
3.816,2.33,13.19,-9.77,-1.06,2.28,4.57,
3.817,2.33,13.19,-9.77,-1.20,2.44,4.49,
3.817,2.33,13.19,-9.77,-1.32,2.53,4.44,
3.817,2.04,14.32,-8.36,-1.32,2.53,4.44,
3.818,2.04,14.32,-8.36,-1.41,2.57,4.39,
3.818,2.04,14.32,-8.36,-1.48,2.59,4.35,
3.818,1.96,14.56,-5.77,-1.48,2.59,4.35,
3.82,1.96,14.56,-5.77,-1.50,2.59,4.30,
3.821,1.89,13.94,-3.34,-1.50,2.59,4.30,
3.822,1.89,13.94,-3.34,-1.50,2.59,4.24,
3.822,1.89,13.94,-3.34,-1.48,2.56,4.17,
3.825,1.89,13.94,-3.34,-1.43,2.53,4.10,
3.825,1.06,12.70,-1.71,-1.43,2.53,4.10,
3.827,1.06,12.70,-1.71,-1.38,2.50,4.06,
3.83,1.06,12.70,-1.71,-1.34,2.44,4.03,
3.83,-0.71,11.28,-1.20,-1.34,2.44,4.03,
3.832,-0.71,11.28,-1.20,-1.29,2.35,4.02,
3.836,-1.86,10.22,-0.93,-1.29,2.35,4.02,
3.836,-1.86,10.22,-0.93,-1.25,2.22,4.00,
3.837,-1.86,10.22,-0.93,-1.21,2.08,3.99,
3.84,-1.86,10.22,-0.93,-1.17,1.95,3.98,
3.84,-2.93,9.54,-0.72,-1.17,1.95,3.98,
3.842,-2.93,9.54,-0.72,-1.13,1.80,3.98,
3.845,-4.08,9.06,-0.79,-1.13,1.80,3.98,
3.845,-4.08,9.06,-0.79,-1.10,1.63,3.98,
3.847,-4.08,9.06,-0.79,-1.06,1.46,3.99,
3.85,-4.26,8.79,-0.61,-1.06,1.46,3.99,
3.85,-4.26,8.79,-0.61,-1.02,1.30,3.98,
3.854,-4.26,8.79,-0.61,-0.97,1.18,3.97,
3.858,-3.98,8.48,-0.54,-0.97,1.18,3.97,
3.858,-3.98,8.48,-0.54,-0.93,1.09,3.96,
3.862,-3.70,7.84,-0.16,-0.93,1.09,3.96,
3.862,-3.70,7.84,-0.16,-0.89,1.01,3.95,
3.862,-3.70,7.84,-0.16,-0.83,0.93,3.94,
3.862,-3.70,7.84,-0.16,-0.79,0.84,3.93,
3.865,-3.09,7.17,0.29,-0.79,0.84,3.93,
3.865,-3.09,7.17,0.29,-0.74,0.75,3.92,
3.867,-3.09,7.17,0.29,-0.70,0.67,3.90,
3.871,-3.09,7.17,0.29,-0.65,0.60,3.86,
3.872,-2.18,6.26,0.40,-0.65,0.60,3.86,
3.872,-2.18,6.26,0.40,-0.60,0.53,3.80,
3.874,-2.18,6.26,0.40,-0.56,0.48,3.73,
3.875,-1.23,5.30,0.30,-0.56,0.48,3.73,
3.877,-1.23,5.30,0.30,-0.51,0.44,3.64,
3.879,-0.41,4.35,0.60,-0.51,0.44,3.64,
3.879,-0.41,4.35,0.60,-0.46,0.39,3.53,
3.882,-0.41,4.35,0.60,-0.42,0.34,3.42,
3.887,-0.41,4.35,0.60,-0.37,0.31,3.29,
3.889,-0.41,4.35,0.60,-0.33,0.28,3.16,
3.889,-0.41,4.35,0.60,-0.29,0.24,3.03,
3.889,-0.07,3.46,0.48,-0.29,0.24,3.03,
3.889,-0.16,2.67,0.59,-0.29,0.24,3.03,
3.895,-0.16,2.67,0.59,-0.25,0.23,2.89,
3.895,-0.64,2.11,0.54,-0.25,0.23,2.89,
3.895,-0.64,2.11,0.54,-0.21,0.23,2.76,
3.897,-0.64,2.11,0.54,-0.18,0.24,2.64,
3.899,-0.64,2.11,0.54,-0.14,0.26,2.52,
3.899,-1.41,1.78,0.63,-0.14,0.26,2.52,
3.903,-1.41,1.78,0.63,-0.10,0.29,2.42,
3.904,-1.41,1.78,0.63,-0.06,0.33,2.32,
3.904,-2.30,1.72,0.83,-0.06,0.33,2.32,
3.906,-2.30,1.72,0.83,-0.03,0.37,2.23,
3.909,-2.30,1.72,0.83,0.01,0.41,2.15,
3.909,-3.09,1.62,0.97,0.01,0.41,2.15,
3.911,-3.09,1.62,0.97,0.05,0.44,2.06,
3.914,-3.09,1.62,0.97,0.10,0.46,1.98,
3.914,-3.48,1.49,1.22,0.10,0.46,1.98,
3.916,-3.48,1.49,1.22,0.14,0.46,1.90,
3.919,-3.48,1.49,1.22,0.19,0.45,1.82,
3.929,-3.83,1.18,1.53,0.19,0.45,1.82,
3.93,-3.83,1.18,1.53,0.24,0.43,1.73,
3.93,-3.83,1.18,1.53,0.28,0.39,1.64,
3.93,-3.92,0.84,1.70,0.28,0.39,1.64,
3.93,-3.92,0.84,1.70,0.32,0.34,1.54,
3.93,-3.98,0.45,1.82,0.32,0.34,1.54,
3.93,-3.98,0.45,1.82,0.37,0.28,1.44,
3.933,-3.98,0.45,1.82,0.41,0.22,1.34,
3.934,-3.98,0.45,1.82,0.45,0.16,1.23,
3.936,-4.24,0.02,1.80,0.45,0.16,1.23,
3.937,-4.24,0.02,1.80,0.49,0.10,1.13,
3.939,-4.24,0.02,1.80,0.53,0.02,1.03,
3.939,-4.70,-0.53,1.74,0.53,0.02,1.03,
3.941,-4.70,-0.53,1.74,0.57,-0.05,0.93,
3.944,-4.70,-0.53,1.74,0.60,-0.13,0.83,
3.944,-4.98,-0.91,1.48,0.60,-0.13,0.83,
3.946,-4.98,-0.91,1.48,0.63,-0.20,0.72,
3.95,-4.98,-0.91,1.48,0.66,-0.24,0.60,
3.95,-4.99,-1.01,1.26,0.66,-0.24,0.60,
3.952,-4.99,-1.01,1.26,0.69,-0.26,0.49,
3.954,-4.99,-1.01,1.26,0.72,-0.28,0.39,
3.957,-5.47,-1.16,1.36,0.72,-0.28,0.39,
3.957,-5.47,-1.16,1.36,0.75,-0.31,0.29,
3.96,-5.47,-1.16,1.36,0.78,-0.36,0.19,
3.96,-5.81,-1.51,1.63,0.78,-0.36,0.19,
3.969,-5.81,-1.51,1.63,0.81,-0.43,0.09,
3.97,-5.81,-1.51,1.63,0.83,-0.50,-0.02,
3.97,-5.99,-1.82,1.55,0.83,-0.50,-0.02,
3.97,-5.99,-1.82,1.55,0.86,-0.57,-0.14,
3.97,-5.99,-1.82,1.55,0.88,-0.65,-0.26,
3.97,-6.15,-2.20,1.54,0.88,-0.65,-0.26,
3.971,-6.15,-2.20,1.54,0.90,-0.74,-0.38,
3.974,-6.15,-2.20,1.54,0.92,-0.83,-0.49,
3.974,-6.40,-2.57,1.42,0.92,-0.83,-0.49,
3.976,-6.40,-2.57,1.42,0.95,-0.92,-0.60,
3.978,-6.40,-2.57,1.42,0.97,-1.00,-0.69,
3.979,-6.57,-2.85,1.20,0.97,-1.00,-0.69,
3.981,-6.57,-2.85,1.20,0.99,-1.07,-0.78,
3.984,-6.57,-2.85,1.20,1.01,-1.14,-0.88,
3.984,-6.29,-3.19,0.99,1.01,-1.14,-0.88,
3.986,-6.29,-3.19,0.99,1.03,-1.19,-0.98,
3.988,-6.29,-3.19,0.99,1.06,-1.23,-1.09,
3.989,-5.85,-3.55,0.80,1.06,-1.23,-1.09,
3.991,-5.85,-3.55,0.80,1.08,-1.27,-1.20,
3.994,-5.85,-3.55,0.80,1.10,-1.30,-1.31,
3.994,-5.52,-3.78,0.64,1.10,-1.30,-1.31,
4.0,-5.52,-3.78,0.64,1.13,-1.33,-1.43,
4.002,-5.22,-4.02,0.39,1.13,-1.33,-1.43,
4.003,-5.22,-4.02,0.39,1.15,-1.35,-1.55,
4.003,-5.22,-4.02,0.39,1.17,-1.38,-1.68,
4.005,-5.34,-4.26,0.35,1.17,-1.38,-1.68,
4.008,-5.34,-4.26,0.35,1.19,-1.41,-1.81,
4.008,-5.34,-4.26,0.35,1.22,-1.44,-1.94,
4.008,-5.34,-4.26,0.35,1.24,-1.47,-2.07,
4.009,-5.33,-4.55,0.09,1.24,-1.47,-2.07,
4.011,-5.33,-4.55,0.09,1.26,-1.49,-2.21,
4.016,-5.41,-4.72,-0.28,1.26,-1.49,-2.21,
4.016,-5.41,-4.72,-0.28,1.27,-1.50,-2.34,
4.017,-5.41,-4.72,-0.28,1.29,-1.52,-2.47,
4.02,-5.61,-4.93,-0.53,1.29,-1.52,-2.47,
4.02,-5.61,-4.93,-0.53,1.30,-1.52,-2.59,
4.022,-5.61,-4.93,-0.53,1.31,-1.53,-2.71,
4.023,-5.61,-4.93,-0.53,1.31,-1.52,-2.82,
4.023,-5.53,-5.43,-0.80,1.31,-1.52,-2.82,
4.026,-5.53,-5.43,-0.80,1.31,-1.50,-2.93,
4.028,-5.53,-5.43,-0.80,1.31,-1.49,-3.04,
4.029,-5.37,-6.00,-0.88,1.31,-1.49,-3.04,
4.031,-5.37,-6.00,-0.88,1.31,-1.46,-3.15,
4.034,-5.37,-6.00,-0.88,1.31,-1.43,-3.27,
4.034,-5.32,-6.48,-0.65,1.31,-1.43,-3.27,
4.037,-5.32,-6.48,-0.65,1.31,-1.41,-3.39,
4.039,-5.32,-6.48,-0.65,1.32,-1.39,-3.51,
4.039,-5.33,-6.76,-0.27,1.32,-1.39,-3.51,
4.041,-5.33,-6.76,-0.27,1.33,-1.37,-3.62,
4.043,-5.33,-6.76,-0.27,1.34,-1.36,-3.74,
4.043,-5.48,-6.74,0.01,1.34,-1.36,-3.74,
4.046,-5.48,-6.74,0.01,1.36,-1.34,-3.85,
4.048,-5.48,-6.74,0.01,1.37,-1.31,-3.95,
4.049,-5.59,-6.53,0.22,1.37,-1.31,-3.95,
4.054,-5.59,-6.53,0.22,1.39,-1.28,-4.05,
4.055,-5.60,-6.35,0.36,1.39,-1.28,-4.05,
4.055,-5.60,-6.35,0.36,1.41,-1.24,-4.15,
4.057,-5.60,-6.35,0.36,1.43,-1.21,-4.24,
4.058,-5.50,-6.31,0.45,1.43,-1.21,-4.24,
4.058,-5.50,-6.31,0.45,1.45,-1.18,-4.33,
4.06,-5.50,-6.31,0.45,1.47,-1.15,-4.42,
4.063,-5.50,-6.31,0.45,1.48,-1.13,-4.51,
4.063,-5.50,-6.28,0.44,1.48,-1.13,-4.51,
4.066,-5.50,-6.28,0.44,1.50,-1.11,-4.61,
4.07,-5.50,-6.28,0.44,1.51,-1.09,-4.69,
4.071,-5.62,-6.24,0.30,1.51,-1.09,-4.69,
4.071,-5.62,-6.24,0.30,1.52,-1.08,-4.77,
4.074,-5.62,-6.24,0.30,1.52,-1.07,-4.85,
4.074,-5.81,-6.19,0.18,1.52,-1.07,-4.85,
4.075,-5.81,-6.19,0.18,1.53,-1.06,-4.92,
4.078,-5.81,-6.19,0.18,1.54,-1.05,-4.98,
4.078,-5.83,-6.28,0.28,1.54,-1.05,-4.98,
4.081,-5.83,-6.28,0.28,1.54,-1.05,-5.04,
4.083,-5.83,-6.28,0.28,1.54,-1.07,-5.10,
4.083,-5.67,-6.61,0.48,1.54,-1.07,-5.10,
4.086,-5.67,-6.61,0.48,1.55,-1.09,-5.15,
4.088,-5.67,-6.61,0.48,1.55,-1.12,-5.20,
4.088,-5.44,-7.12,0.73,1.55,-1.12,-5.20,
4.09,-5.44,-7.12,0.73,1.55,-1.14,-5.25,
4.093,-5.44,-7.12,0.73,1.56,-1.16,-5.31,
4.093,-5.16,-7.62,0.92,1.56,-1.16,-5.31,
4.095,-5.16,-7.62,0.92,1.56,-1.18,-5.36,
4.099,-5.16,-7.62,0.92,1.57,-1.19,-5.41,
4.099,-4.99,-7.96,0.99,1.57,-1.19,-5.41,
4.1,-4.99,-7.96,0.99,1.57,-1.20,-5.46,
4.104,-4.77,-8.18,0.93,1.57,-1.20,-5.46,
4.104,-4.77,-8.18,0.93,1.58,-1.20,-5.51,
4.105,-4.77,-8.18,0.93,1.58,-1.19,-5.55,
4.109,-4.77,-8.18,0.93,1.59,-1.18,-5.59,
4.109,-4.50,-8.28,0.87,1.59,-1.18,-5.59,
4.11,-4.50,-8.28,0.87,1.60,-1.16,-5.63,
4.112,-4.21,-8.34,0.93,1.60,-1.16,-5.63,
4.113,-4.21,-8.34,0.93,1.60,-1.15,-5.67,
4.115,-4.21,-8.34,0.93,1.61,-1.14,-5.69,
4.117,-4.21,-8.34,0.93,1.62,-1.13,-5.72,
4.117,-3.79,-8.36,0.88,1.62,-1.13,-5.72,
4.135,-3.79,-8.36,0.88,1.62,-1.13,-5.74,
4.136,-3.79,-8.36,0.88,1.63,-1.13,-5.76,
4.136,-3.37,-8.47,1.00,1.63,-1.13,-5.76,
4.137,-3.37,-8.47,1.00,1.63,-1.12,-5.78,
4.155,-3.00,-8.63,1.14,1.63,-1.12,-5.78,
4.155,-3.00,-8.63,1.14,1.64,-1.12,-5.79,
4.155,-2.61,-8.75,1.31,1.64,-1.12,-5.79,
4.155,-2.61,-8.75,1.31,1.65,-1.12,-5.81,
4.156,-2.61,-8.75,1.31,1.65,-1.12,-5.81,
4.156,-2.61,-8.75,1.31,1.65,-1.12,-5.82,
4.156,-2.61,-8.75,1.31,1.65,-1.12,-5.83,
4.156,-2.08,-8.91,1.44,1.65,-1.12,-5.83,
4.157,-2.08,-8.91,1.44,1.65,-1.12,-5.84,
4.157,-1.66,-8.95,1.68,1.65,-1.12,-5.84,
4.157,-1.66,-8.95,1.68,1.64,-1.12,-5.85,
4.157,-1.66,-8.95,1.68,1.64,-1.13,-5.85,
4.158,-1.66,-8.95,1.68,1.64,-1.13,-5.85,
4.158,-1.28,-8.93,1.96,1.64,-1.13,-5.85,
4.158,-1.28,-8.93,1.96,1.63,-1.15,-5.84,
4.158,-0.84,-8.91,2.35,1.63,-1.15,-5.84,
4.159,-0.84,-8.91,2.35,1.63,-1.15,-5.82,
4.159,-0.84,-8.91,2.35,1.62,-1.16,-5.80,
4.159,-0.32,-8.93,2.77,1.62,-1.16,-5.80,
4.159,-0.32,-8.93,2.77,1.62,-1.17,-5.77,
4.16,-0.32,-8.93,2.77,1.62,-1.19,-5.74,
4.162,0.36,-8.87,3.10,1.62,-1.19,-5.74,
4.162,0.36,-8.87,3.10,1.61,-1.20,-5.70,
4.165,0.36,-8.87,3.10,1.61,-1.21,-5.67,
4.167,1.13,-8.65,3.18,1.61,-1.21,-5.67,
4.167,1.13,-8.65,3.18,1.61,-1.22,-5.63,
4.17,1.13,-8.65,3.18,1.61,-1.22,-5.58,
4.173,1.13,-8.65,3.18,1.60,-1.23,-5.53,
4.174,1.94,-8.09,3.06,1.60,-1.23,-5.53,
4.174,1.94,-8.09,3.06,1.59,-1.24,-5.48,
4.178,1.94,-8.09,3.06,1.57,-1.24,-5.42,
4.178,2.83,-7.44,2.96,1.57,-1.24,-5.42,
4.179,2.83,-7.44,2.96,1.56,-1.24,-5.35,
4.182,2.83,-7.44,2.96,1.55,-1.23,-5.28,
4.182,3.71,-6.86,2.93,1.55,-1.23,-5.28,
4.184,3.71,-6.86,2.93,1.53,-1.21,-5.21,
4.187,3.71,-6.86,2.93,1.51,-1.20,-5.13,
4.188,4.94,-6.28,2.84,1.51,-1.20,-5.13,
4.189,4.94,-6.28,2.84,1.49,-1.18,-5.06,
4.193,6.09,-5.49,2.57,1.49,-1.18,-5.06,
4.193,6.09,-5.49,2.57,1.46,-1.16,-4.98,
4.195,6.09,-5.49,2.57,1.43,-1.13,-4.89,
4.197,6.09,-5.49,2.57,1.40,-1.10,-4.79,
4.198,6.97,-4.51,2.44,1.40,-1.10,-4.79,
4.2,6.97,-4.51,2.44,1.37,-1.07,-4.68,
4.203,6.97,-4.51,2.44,1.33,-1.02,-4.56,
4.204,7.83,-3.51,2.47,1.33,-1.02,-4.56,
4.204,7.83,-3.51,2.47,1.30,-0.96,-4.44,
4.208,7.83,-3.51,2.47,1.27,-0.88,-4.31,
4.208,8.67,-2.53,2.49,1.27,-0.88,-4.31,
4.209,8.67,-2.53,2.49,1.25,-0.80,-4.18,
4.211,8.67,-2.53,2.49,1.22,-0.72,-4.04,
4.211,9.36,-1.73,2.51,1.22,-0.72,-4.04,
4.214,9.36,-1.73,2.51,1.19,-0.65,-3.89,
4.216,9.36,-1.73,2.51,1.16,-0.58,-3.73,
4.217,10.01,-1.15,2.57,1.16,-0.58,-3.73,
4.22,10.01,-1.15,2.57,1.12,-0.53,-3.58,
4.221,10.01,-1.15,2.57,1.08,-0.50,-3.42,
4.222,10.71,-0.88,2.72,1.08,-0.50,-3.42,
4.228,10.71,-0.88,2.72,1.03,-0.48,-3.26,
4.228,10.71,-0.88,2.72,0.98,-0.46,-3.11,
4.228,11.47,-0.85,3.10,0.98,-0.46,-3.11,
4.229,11.47,-0.85,3.10,0.92,-0.47,-2.96,
4.231,11.47,-0.85,3.10,0.87,-0.49,-2.81,
4.231,12.24,-0.99,3.79,0.87,-0.49,-2.81,
4.234,12.24,-0.99,3.79,0.81,-0.51,-2.66,
4.236,13.08,-0.94,4.36,0.81,-0.51,-2.66,
4.237,13.08,-0.94,4.36,0.74,-0.53,-2.52,
4.24,13.08,-0.94,4.36,0.67,-0.54,-2.38,
4.241,13.08,-0.94,4.36,0.60,-0.55,-2.24,
4.243,13.75,-0.54,4.80,0.60,-0.55,-2.24,
4.244,13.75,-0.54,4.80,0.52,-0.56,-2.10,
4.247,14.24,0.02,5.18,0.52,-0.56,-2.10,
4.247,14.24,0.02,5.18,0.43,-0.57,-1.96,
4.248,14.24,0.02,5.18,0.35,-0.58,-1.83,
4.255,14.24,0.02,5.18,0.27,-0.61,-1.68,
4.255,14.24,0.02,5.18,0.18,-0.64,-1.54,
4.255,14.43,0.85,5.36,0.18,-0.64,-1.54,
4.256,14.58,1.55,5.44,0.18,-0.64,-1.54,
4.256,14.58,1.55,5.44,0.10,-0.69,-1.39,
4.258,14.58,1.55,5.44,0.02,-0.75,-1.23,
4.261,14.58,1.55,5.44,-0.06,-0.81,-1.06,
4.261,14.56,1.96,5.41,-0.06,-0.81,-1.06,
4.263,14.56,1.96,5.41,-0.13,-0.88,-0.89,
4.266,14.49,1.87,5.26,-0.13,-0.88,-0.89,
4.267,14.49,1.87,5.26,-0.20,-0.94,-0.71,
4.269,14.49,1.87,5.26,-0.27,-1.00,-0.52,
4.271,14.49,1.87,5.26,-0.33,-1.04,-0.34,
4.271,14.39,1.10,4.93,-0.33,-1.04,-0.34,
4.275,14.39,1.10,4.93,-0.38,-1.08,-0.15,
4.277,14.39,1.10,4.93,-0.44,-1.12,0.04,
4.277,14.51,-0.34,4.60,-0.44,-1.12,0.04,
4.279,14.51,-0.34,4.60,-0.48,-1.14,0.21,
4.281,14.73,-2.49,4.53,-0.48,-1.14,0.21,
4.281,14.73,-2.49,4.53,-0.53,-1.17,0.37,
4.283,14.73,-2.49,4.53,-0.57,-1.21,0.52,
4.287,14.73,-2.49,4.53,-0.61,-1.24,0.66,
4.288,15.15,-4.82,4.53,-0.61,-1.24,0.66,
4.289,15.15,-4.82,4.53,-0.65,-1.26,0.77,
4.291,15.15,-4.82,4.53,-0.69,-1.27,0.88,
4.311,15.49,-6.78,4.29,-0.69,-1.27,0.88,
4.312,15.49,-6.78,4.29,-0.73,-1.26,0.96,
4.313,15.49,-6.78,4.29,-0.65,-1.21,0.95,
4.313,15.44,-7.13,4.11,-0.65,-1.21,0.95,
4.313,15.44,-7.13,4.11,-0.44,-1.15,0.87,
4.314,12.50,-7.38,0.52,-0.44,-1.15,0.87,
4.314,12.50,-7.38,0.52,-0.43,-1.20,0.89,
4.314,12.50,-7.38,0.52,-0.38,-1.21,1.07,
4.315,12.50,-7.38,0.52,-0.19,-1.05,1.32,
4.315,9.76,-6.90,-3.69,-0.19,-1.05,1.32,
4.315,9.76,-6.90,-3.69,0.09,-0.79,1.49,
4.315,9.76,-6.90,-3.69,0.27,-0.49,1.40,
4.316,8.43,-0.03,-15.64,0.27,-0.49,1.40,
4.316,8.43,-0.03,-15.64,-0.52,-0.34,1.01,
4.316,8.43,-0.03,-15.64,-2.19,-0.35,0.30,
4.317,9.84,14.70,-23.73,-2.19,-0.35,0.30,
4.32,9.84,14.70,-23.73,-2.88,-0.11,-0.52,
4.321,4.37,30.09,-13.70,-2.88,-0.11,-0.52,
4.322,4.37,30.09,-13.70,-3.31,0.22,-1.25,
4.323,4.37,30.09,-13.70,-3.56,0.48,-1.66,
4.326,4.37,30.09,-13.70,-3.29,0.49,-1.41,
4.326,-4.70,30.02,-5.60,-3.29,0.49,-1.41,
4.328,-4.70,30.02,-5.60,-2.87,-0.09,-0.47,
4.33,-4.70,30.02,-5.60,-2.35,-1.13,1.03,
4.331,-17.83,29.96,13.30,-2.35,-1.13,1.03,
4.333,-17.83,29.96,13.30,-1.38,-2.11,2.83,
4.339,-12.35,29.89,24.72,-1.38,-2.11,2.83,
4.339,-12.35,29.89,24.72,-0.33,-2.58,4.41,
4.34,-12.35,29.89,24.72,0.35,-2.52,5.27,
4.34,-12.35,29.89,24.72,0.68,-1.94,5.41,
4.341,8.24,22.17,9.65,0.68,-1.94,5.41,
4.343,8.24,22.17,9.65,0.82,-1.05,5.06,
4.345,8.24,22.17,9.65,0.81,-0.09,4.42,
4.346,15.16,7.59,-2.49,0.81,-0.09,4.42,
4.348,15.16,7.59,-2.49,0.70,0.73,3.72,
4.351,11.94,0.75,-7.28,0.70,0.73,3.72,
4.351,11.94,0.75,-7.28,0.68,1.30,3.11,
4.354,11.94,0.75,-7.28,0.64,1.57,2.65,
4.355,11.94,0.75,-7.28,0.33,1.39,2.34,
4.356,8.04,-4.16,-7.22,0.33,1.39,2.34,
4.358,8.04,-4.16,-7.22,0.03,0.85,2.21,
4.361,4.84,-9.84,-2.69,0.03,0.85,2.21,
4.361,4.84,-9.84,-2.69,-0.14,0.25,2.23,
4.363,4.84,-9.84,-2.69,-0.28,-0.24,2.36,
4.365,4.84,-9.84,-2.69,-0.49,-0.56,2.55,
4.366,3.93,-14.51,1.52,-0.49,-0.56,2.55,
4.367,3.93,-14.51,1.52,-0.75,-0.72,2.75,
4.375,6.36,-17.63,6.82,-0.75,-0.72,2.75,
4.376,6.36,-17.63,6.82,-0.87,-0.62,2.86,
4.376,6.36,-17.63,6.82,-0.88,-0.28,2.84,
4.376,6.36,-17.63,6.82,-0.87,0.22,2.69,
4.376,9.12,-18.82,7.28,-0.87,0.22,2.69,
4.378,9.12,-18.82,7.28,-0.83,0.78,2.45,
4.38,9.27,-15.76,6.59,-0.83,0.78,2.45,
4.38,9.27,-15.76,6.59,-0.72,1.24,2.16,
4.383,9.27,-15.76,6.59,-0.61,1.45,1.89,
4.386,6.42,-7.82,5.88,-0.61,1.45,1.89,
4.386,6.42,-7.82,5.88,-0.52,1.45,1.69,
4.388,6.42,-7.82,5.88,-0.46,1.38,1.57,
4.39,4.79,-1.53,3.99,-0.46,1.38,1.57,
4.39,4.79,-1.53,3.99,-0.43,1.27,1.49,
4.393,4.79,-1.53,3.99,-0.43,1.14,1.45,
4.395,4.79,-1.53,3.99,-0.44,1.01,1.42,
4.395,3.94,2.70,2.91,-0.44,1.01,1.42,
4.397,3.94,2.70,2.91,-0.45,0.88,1.38,
4.401,3.94,2.70,2.91,-0.43,0.75,1.35,
4.401,3.54,5.34,2.81,-0.43,0.75,1.35,
4.404,3.54,5.34,2.81,-0.39,0.63,1.31,
4.405,3.54,5.34,2.81,-0.32,0.52,1.29,
4.406,2.94,6.55,2.81,-0.32,0.52,1.29,
4.407,2.94,6.55,2.81,-0.23,0.42,1.27,
4.411,2.94,6.55,2.81,-0.15,0.33,1.25,
4.411,2.31,6.30,2.11,-0.15,0.33,1.25,
4.413,2.31,6.30,2.11,-0.09,0.28,1.24,
4.415,2.31,6.30,2.11,-0.04,0.27,1.22,
4.415,1.64,4.51,0.72,-0.04,0.27,1.22,
4.417,1.64,4.51,0.72,-0.01,0.29,1.20,
4.42,1.64,4.51,0.72,0.00,0.32,1.20,
4.422,0.49,2.13,-0.01,0.00,0.32,1.20,
4.423,0.49,2.13,-0.01,0.02,0.36,1.21,
4.425,0.49,2.13,-0.01,0.02,0.39,1.22,
4.425,-0.55,0.13,0.53,0.02,0.39,1.22,
4.427,-0.55,0.13,0.53,0.02,0.41,1.25,
4.43,-0.55,0.13,0.53,0.03,0.42,1.27,
4.43,-1.44,-1.14,1.66,0.03,0.42,1.27,
4.432,-1.44,-1.14,1.66,0.05,0.41,1.30,
4.435,-1.44,-1.14,1.66,0.07,0.38,1.32,
4.435,-1.32,-1.94,2.32,0.07,0.38,1.32,
4.456,-1.32,-1.94,2.32,0.09,0.32,1.34,
4.457,-1.32,-1.94,2.32,0.10,0.22,1.35,
4.457,-0.75,-2.27,2.72,0.10,0.22,1.35,
4.457,-0.75,-2.27,2.72,0.11,0.11,1.34,
4.458,-0.75,-2.27,2.72,0.13,-0.01,1.32,
4.459,-0.02,-2.26,2.60,0.13,-0.01,1.32,
4.459,-0.02,-2.26,2.60,0.14,-0.11,1.29,
4.459,-0.02,-2.26,2.60,0.15,-0.19,1.26,
4.46,0.52,-1.94,1.97,0.15,-0.19,1.26,
4.46,0.52,-1.94,1.97,0.16,-0.24,1.23,
4.46,0.52,-1.94,1.97,0.16,-0.26,1.20,
4.46,1.07,-1.44,0.87,0.16,-0.26,1.20,
4.475,1.07,-1.44,0.87,0.15,-0.26,1.16,
4.476,1.07,-1.44,0.87,0.13,-0.23,1.11,
4.476,1.07,-1.44,0.87,0.11,-0.19,1.06,
4.476,1.07,-1.44,0.87,0.08,-0.14,1.00,
4.476,2.12,-1.09,-0.44,0.08,-0.14,1.00,
4.476,3.28,-0.62,-1.28,0.08,-0.14,1.00,
4.476,3.28,-0.62,-1.28,0.05,-0.07,0.94,
4.477,4.26,0.05,-1.32,0.05,-0.07,0.94,
4.477,4.26,0.05,-1.32,0.03,0.02,0.87,
4.477,4.26,0.05,-1.32,0.01,0.10,0.80,
4.477,4.26,0.05,-1.32,0.00,0.18,0.73,
4.477,4.78,0.84,-0.79,0.00,0.18,0.73,
4.478,4.78,0.84,-0.79,0.00,0.27,0.65,
4.48,4.60,1.51,-0.23,0.00,0.27,0.65,
4.48,4.60,1.51,-0.23,0.01,0.35,0.58,
4.482,4.60,1.51,-0.23,0.03,0.44,0.50,
4.485,3.80,1.55,0.22,0.03,0.44,0.50,
4.485,3.80,1.55,0.22,0.05,0.51,0.44,
4.487,3.80,1.55,0.22,0.07,0.57,0.39,
4.489,3.80,1.55,0.22,0.09,0.61,0.34,
4.49,2.62,1.08,0.40,0.09,0.61,0.34,
4.492,2.62,1.08,0.40,0.11,0.64,0.31,
4.494,2.62,1.08,0.40,0.12,0.65,0.28,
4.494,1.29,0.51,0.48,0.12,0.65,0.28,
4.497,1.29,0.51,0.48,0.13,0.64,0.27,
4.499,1.29,0.51,0.48,0.14,0.63,0.25,
4.499,0.11,0.01,0.66,0.14,0.63,0.25,
4.501,0.11,0.01,0.66,0.15,0.60,0.25,
4.505,0.11,0.01,0.66,0.16,0.55,0.25,
4.505,-0.92,-0.33,1.00,0.16,0.55,0.25,
4.506,-0.92,-0.33,1.00,0.18,0.49,0.25,
4.509,-0.92,-0.33,1.00,0.19,0.43,0.25,
4.509,-1.42,-0.56,0.96,0.19,0.43,0.25,
4.511,-1.42,-0.56,0.96,0.20,0.38,0.26,
4.514,-1.42,-0.56,0.96,0.21,0.33,0.27,
4.514,-1.62,-0.57,0.49,0.21,0.33,0.27,
4.516,-1.62,-0.57,0.49,0.21,0.27,0.28,
4.521,-1.62,-0.57,0.49,0.20,0.22,0.30,
4.522,-1.61,-0.29,0.16,0.20,0.22,0.30,
4.524,-1.61,-0.29,0.16,0.20,0.16,0.32,
4.526,-1.39,0.01,0.07,0.20,0.16,0.32,
4.526,-1.39,0.01,0.07,0.19,0.11,0.34,
4.526,-1.39,0.01,0.07,0.19,0.06,0.35,
4.529,-0.95,0.18,0.02,0.19,0.06,0.35,
4.53,-0.95,0.18,0.02,0.19,0.02,0.36,
4.531,-0.95,0.18,0.02,0.19,-0.01,0.37,
4.534,-0.46,0.25,-0.08,0.19,-0.01,0.37,
4.534,-0.46,0.25,-0.08,0.19,-0.04,0.37,
4.537,-0.46,0.25,-0.08,0.18,-0.05,0.37,
4.539,-0.46,0.25,-0.08,0.18,-0.06,0.37,
4.539,0.05,0.27,-0.27,0.18,-0.06,0.37,
4.541,0.05,0.27,-0.27,0.17,-0.06,0.36,
4.544,0.05,0.27,-0.27,0.16,-0.05,0.35,
4.544,0.54,0.32,-0.40,0.16,-0.05,0.35,
4.546,0.54,0.32,-0.40,0.16,-0.05,0.33,
4.549,0.54,0.32,-0.40,0.15,-0.03,0.30,
4.549,1.00,0.26,-0.64,0.15,-0.03,0.30,
4.551,1.00,0.26,-0.64,0.14,-0.01,0.28,
4.555,1.07,0.36,-0.80,0.14,-0.01,0.28,
4.559,1.07,0.36,-0.80,0.13,0.00,0.25,
4.559,1.07,0.36,-0.80,0.12,0.03,0.23,
4.559,1.07,0.36,-0.80,0.10,0.05,0.20,
4.559,1.12,0.38,-0.97,0.10,0.05,0.20,
4.561,1.12,0.38,-0.97,0.09,0.06,0.17,
4.564,1.12,0.38,-0.97,0.08,0.07,0.16,
4.564,0.91,0.61,-0.87,0.08,0.07,0.16,
4.566,0.91,0.61,-0.87,0.06,0.08,0.14,
4.569,0.91,0.61,-0.87,0.05,0.08,0.12,
4.57,0.91,0.54,-0.71,0.05,0.08,0.12,
4.572,0.91,0.54,-0.71,0.05,0.09,0.11,
4.573,0.91,0.54,-0.71,0.04,0.09,0.09,
4.574,0.85,0.28,-0.28,0.04,0.09,0.09,
4.576,0.85,0.28,-0.28,0.04,0.09,0.06,
4.578,0.85,0.28,-0.28,0.04,0.08,0.04,
4.578,0.62,-0.03,0.16,0.04,0.08,0.04,
4.581,0.62,-0.03,0.16,0.04,0.05,0.03,
4.583,0.62,-0.03,0.16,0.05,0.03,0.03,
4.584,-0.04,0.07,0.52,0.05,0.03,0.03,
4.586,-0.04,0.07,0.52,0.05,0.02,0.03,
4.588,-0.04,0.07,0.52,0.05,0.01,0.02,
4.589,-0.30,0.11,0.27,0.05,0.01,0.02,
4.591,-0.30,0.11,0.27,0.05,0.01,0.02,
4.593,-0.30,0.11,0.27,0.05,0.01,0.02,
4.594,-0.45,0.20,0.03,0.05,0.01,0.02,
4.595,-0.45,0.20,0.03,0.05,0.00,0.03,
4.598,-0.45,0.20,0.03,0.05,-0.01,0.03,
4.598,-0.62,0.30,0.10,0.05,-0.01,0.03,
4.6,-0.62,0.30,0.10,0.06,-0.02,0.03,
4.604,-0.95,0.42,0.16,0.06,-0.02,0.03,
4.604,-0.95,0.42,0.16,0.05,-0.03,0.03,
4.606,-0.95,0.42,0.16,0.05,-0.04,0.03,
4.608,-0.95,0.42,0.16,0.04,-0.02,0.03,
4.608,-0.78,0.44,-0.16,0.04,-0.02,0.03,
4.61,-0.78,0.44,-0.16,0.04,-0.00,0.02,
4.613,-0.78,0.44,-0.16,0.04,-0.01,0.03,
4.613,-0.95,0.39,0.34,0.04,-0.01,0.03,
4.615,-0.95,0.39,0.34,0.05,-0.03,0.05,
4.618,-0.95,0.39,0.34,0.06,-0.04,0.07,
4.618,-0.94,0.40,0.50,0.06,-0.04,0.07,
4.623,-0.94,0.40,0.50,0.06,-0.03,0.08,
4.651,-0.94,0.40,0.50,0.07,-0.03,0.09,
4.651,-0.68,0.29,0.56,0.07,-0.03,0.09,
4.651,-0.68,0.29,0.56,0.07,-0.01,0.10,
4.653,-0.68,0.29,0.56,0.08,0.03,0.10,
4.653,-0.16,0.38,0.35,0.08,0.03,0.10,
4.654,-0.16,0.38,0.35,0.09,0.04,0.10,
4.654,-0.16,0.38,0.35,0.10,0.04,0.11,
4.655,-0.59,0.41,1.07,0.10,0.04,0.11,
4.656,-0.59,0.41,1.07,0.13,0.01,0.13,
4.656,-0.59,0.41,1.07,0.16,-0.02,0.17,
4.656,-1.39,0.54,1.21,0.16,-0.02,0.17,
4.657,-1.39,0.54,1.21,0.17,0.02,0.16,
4.657,-1.39,0.54,1.21,0.17,0.11,0.14,
4.658,-0.30,0.04,0.08,0.17,0.11,0.14,
4.658,-0.30,0.04,0.08,0.17,0.16,0.13,
4.658,-0.34,0.22,0.72,0.17,0.16,0.13,
4.659,-0.34,0.22,0.72,0.17,0.18,0.13,
4.659,-0.34,0.22,0.72,0.18,0.17,0.14,
4.659,-0.34,0.22,0.72,0.20,0.16,0.14,
4.66,-0.43,0.56,1.27,0.20,0.16,0.14,
4.66,-0.43,0.56,1.27,0.23,0.18,0.14,
4.661,-0.45,0.65,0.93,0.23,0.18,0.14,
4.661,-0.45,0.65,0.93,0.25,0.20,0.13,
4.661,-0.45,0.65,0.93,0.26,0.22,0.12,
4.663,-0.47,0.63,0.17,0.26,0.22,0.12,
4.664,-0.47,0.63,0.17,0.26,0.24,0.13,
4.665,-0.47,0.63,0.17,0.26,0.27,0.13,
4.668,-0.45,0.59,-0.45,0.26,0.27,0.13,
4.668,-0.45,0.59,-0.45,0.25,0.30,0.14,
4.673,-0.45,0.59,-0.45,0.24,0.32,0.14,
4.674,-0.45,0.59,-0.45,0.24,0.34,0.14,
4.674,-0.52,0.48,-0.59,0.24,0.34,0.14,
4.679,-0.52,0.48,-0.59,0.24,0.36,0.15,
4.682,-0.56,0.32,-0.57,0.24,0.36,0.15,
4.682,-0.56,0.32,-0.57,0.24,0.38,0.15,
4.683,-0.56,0.32,-0.57,0.25,0.40,0.15,
4.683,-0.56,0.21,-0.70,0.25,0.40,0.15,
4.683,-0.56,0.21,-0.70,0.25,0.43,0.15,
4.685,-0.56,0.21,-0.70,0.24,0.46,0.16,
4.688,-0.70,0.22,-1.00,0.24,0.46,0.16,
4.689,-0.70,0.22,-1.00,0.23,0.48,0.16,
4.69,-0.70,0.22,-1.00,0.22,0.50,0.17,
4.692,-0.90,0.32,-1.12,0.22,0.50,0.17,
4.692,-0.90,0.32,-1.12,0.21,0.51,0.17,
4.695,-0.90,0.32,-1.12,0.20,0.52,0.18,
4.697,-0.90,0.32,-1.12,0.19,0.53,0.19,
4.697,-1.18,0.46,-1.10,0.19,0.53,0.19,
4.699,-1.18,0.46,-1.10,0.18,0.54,0.20,
4.703,-1.43,0.55,-1.07,0.18,0.54,0.20,
4.703,-1.43,0.55,-1.07,0.17,0.55,0.22,
4.705,-1.43,0.55,-1.07,0.16,0.57,0.24,
4.707,-1.60,0.60,-1.02,0.16,0.57,0.24,
4.707,-1.60,0.60,-1.02,0.15,0.58,0.25,
4.709,-1.60,0.60,-1.02,0.15,0.60,0.27,
4.712,-1.66,0.68,-1.06,0.15,0.60,0.27,
4.713,-1.66,0.68,-1.06,0.14,0.60,0.28,
4.714,-1.66,0.68,-1.06,0.13,0.61,0.30,
4.717,-1.66,0.68,-1.06,0.12,0.62,0.32,
4.717,-1.69,0.69,-1.14,0.12,0.62,0.32,
4.722,-1.69,0.69,-1.14,0.12,0.63,0.34,
4.723,-1.69,0.69,-1.14,0.11,0.63,0.36,
4.723,-1.66,0.69,-1.21,0.11,0.63,0.36,
4.726,-1.66,0.69,-1.21,0.10,0.65,0.38,
4.727,-1.66,0.69,-1.21,0.09,0.66,0.40,
4.727,-1.45,0.69,-1.17,0.09,0.66,0.40,
4.729,-1.45,0.69,-1.17,0.08,0.69,0.42,
4.732,-1.45,0.69,-1.17,0.07,0.71,0.43,
4.732,-1.17,0.83,-0.99,0.07,0.71,0.43,
4.734,-1.17,0.83,-0.99,0.06,0.73,0.44,
4.737,-1.17,0.83,-0.99,0.05,0.75,0.45,
4.738,-1.01,0.94,-0.84,0.05,0.75,0.45,
4.739,-1.01,0.94,-0.84,0.04,0.77,0.45,
4.742,-1.01,0.94,-0.84,0.03,0.79,0.46,
4.742,-1.11,0.99,-1.01,0.03,0.79,0.46,
4.744,-1.11,0.99,-1.01,0.02,0.81,0.48,
4.747,-1.11,0.99,-1.01,0.00,0.83,0.49,
4.747,-1.47,1.00,-1.35,0.00,0.83,0.49,
4.749,-1.47,1.00,-1.35,-0.02,0.86,0.51,
4.752,-1.47,1.00,-1.35,-0.03,0.88,0.54,
4.752,-1.93,1.03,-1.49,-0.03,0.88,0.54,
4.756,-1.93,1.03,-1.49,-0.05,0.89,0.56,
4.757,-1.93,1.03,-1.49,-0.07,0.90,0.58,
4.757,-2.06,1.03,-1.37,-0.07,0.90,0.58,
4.76,-2.06,1.03,-1.37,-0.08,0.90,0.60,
4.762,-2.06,1.03,-1.37,-0.08,0.88,0.63,
4.762,-2.40,0.91,-0.63,-0.08,0.88,0.63,
4.767,-2.10,0.81,-0.76,-0.08,0.88,0.63,
4.767,-2.10,0.81,-0.76,-0.07,0.84,0.67,
4.767,-2.10,0.81,-0.76,-0.08,0.81,0.69,
4.771,-2.10,0.81,-0.76,-0.10,0.78,0.71,
4.772,-2.11,0.73,-0.47,-0.10,0.78,0.71,
4.773,-2.11,0.73,-0.47,-0.10,0.74,0.74,
4.774,-2.11,0.73,-0.47,-0.10,0.68,0.77,
4.777,-1.95,0.56,0.13,-0.10,0.68,0.77,
4.777,-1.95,0.56,0.13,-0.10,0.63,0.80,
4.779,-1.95,0.56,0.13,-0.10,0.59,0.82,
4.782,-1.39,0.48,0.10,-0.10,0.59,0.82,
4.782,-1.39,0.48,0.10,-0.10,0.59,0.83,
4.784,-1.39,0.48,0.10,-0.10,0.62,0.83,
4.786,-1.39,0.48,0.10,-0.13,0.68,0.82,
4.808,-0.64,0.74,-0.43,-0.13,0.68,0.82,
4.808,-0.64,0.74,-0.43,-0.14,0.73,0.82,
4.809,-0.64,0.74,-0.43,-0.16,0.75,0.83,
4.809,-0.50,1.19,0.30,-0.16,0.75,0.83,
4.809,-0.50,1.19,0.30,-0.17,0.73,0.84,
4.809,-0.50,1.19,0.30,-0.17,0.69,0.86,
4.81,-0.80,1.60,1.05,-0.17,0.69,0.86,
4.81,-0.80,1.60,1.05,-0.18,0.66,0.87,
4.81,-0.80,1.60,1.05,-0.20,0.61,0.87,
4.81,-0.78,1.87,0.77,-0.20,0.61,0.87,
4.811,-0.78,1.87,0.77,-0.23,0.52,0.87,
4.811,-0.78,1.87,0.77,-0.25,0.44,0.88,
4.811,-1.08,2.09,0.69,-0.25,0.44,0.88,
4.811,-1.08,2.09,0.69,-0.26,0.41,0.88,
4.812,-1.08,2.09,0.69,-0.26,0.42,0.90,
4.812,-2.02,2.10,1.14,-0.26,0.42,0.90,
4.814,-2.02,2.10,1.14,-0.26,0.45,0.94,
4.816,-2.02,2.10,1.14,-0.27,0.49,0.98,
4.816,-2.62,1.91,1.18,-0.27,0.49,0.98,
4.818,-2.62,1.91,1.18,-0.28,0.57,1.01,
4.822,-2.62,1.91,1.18,-0.29,0.64,1.04,
4.822,-2.33,1.89,0.67,-0.29,0.64,1.04,
4.823,-2.33,1.89,0.67,-0.30,0.63,1.08,
4.826,-2.33,1.89,0.67,-0.32,0.55,1.11,
4.826,-2.08,1.69,0.50,-0.32,0.55,1.11,
4.828,-2.08,1.69,0.50,-0.33,0.46,1.13,
4.831,-2.08,1.69,0.50,-0.35,0.40,1.14,
4.831,-1.51,1.65,0.28,-0.35,0.40,1.14,
4.833,-1.51,1.65,0.28,-0.36,0.36,1.15,
4.84,-1.51,1.65,0.28,-0.36,0.34,1.16,
4.84,-1.07,1.57,-0.27,-0.36,0.34,1.16,
4.841,-1.07,1.57,-0.27,-0.37,0.35,1.17,
4.841,-1.07,1.57,-0.27,-0.39,0.38,1.17,
4.841,-0.88,1.68,-1.12,-0.39,0.38,1.17,
4.843,-0.88,1.68,-1.12,-0.42,0.41,1.18,
4.846,-0.70,1.97,-1.19,-0.42,0.41,1.18,
4.846,-0.70,1.97,-1.19,-0.44,0.43,1.19,
4.848,-0.70,1.97,-1.19,-0.46,0.43,1.19,
4.851,-0.70,1.97,-1.19,-0.46,0.45,1.20,
4.851,-0.86,2.17,-0.68,-0.46,0.45,1.20,
4.854,-0.86,2.17,-0.68,-0.46,0.47,1.21,
4.856,-1.14,2.15,-1.43,-0.46,0.47,1.21,
4.856,-1.14,2.15,-1.43,-0.48,0.53,1.22,
4.858,-1.14,2.15,-1.43,-0.50,0.58,1.24,
4.861,-1.14,2.15,-1.43,-0.52,0.61,1.25,
4.861,-1.61,2.22,-1.12,-0.52,0.61,1.25,
4.863,-1.61,2.22,-1.12,-0.54,0.61,1.27,
4.865,-1.61,2.22,-1.12,-0.56,0.60,1.29,
4.866,-1.94,2.37,-0.83,-0.56,0.60,1.29,
4.868,-1.94,2.37,-0.83,-0.59,0.60,1.31,
4.871,-2.27,2.52,-0.97,-0.59,0.60,1.31,
4.871,-2.27,2.52,-0.97,-0.61,0.60,1.34,
4.873,-2.27,2.52,-0.97,-0.64,0.60,1.36,
4.876,-2.29,2.72,-1.17,-0.64,0.60,1.36,
4.876,-2.29,2.72,-1.17,-0.67,0.62,1.39,
4.878,-2.29,2.72,-1.17,-0.70,0.65,1.42,
4.88,-2.29,2.72,-1.17,-0.72,0.66,1.45,
4.881,-2.37,3.04,-0.61,-0.72,0.66,1.45,
4.883,-2.37,3.04,-0.61,-0.74,0.65,1.48,
4.885,-2.37,3.04,-0.61,-0.76,0.64,1.51,
4.886,-2.13,3.33,-0.33,-0.76,0.64,1.51,
4.889,-2.13,3.33,-0.33,-0.78,0.63,1.54,
4.89,-2.13,3.33,-0.33,-0.80,0.62,1.56,
4.891,-2.19,3.58,-0.54,-0.80,0.62,1.56,
4.893,-2.19,3.58,-0.54,-0.83,0.60,1.57,
4.896,-2.19,3.58,-0.54,-0.85,0.58,1.59,
4.896,-2.40,3.79,-0.35,-0.85,0.58,1.59,
4.898,-2.40,3.79,-0.35,-0.87,0.58,1.61,
4.9,-2.40,3.79,-0.35,-0.89,0.58,1.63,
4.901,-2.77,3.95,-0.27,-0.89,0.58,1.63,
4.904,-2.77,3.95,-0.27,-0.91,0.58,1.65,
4.906,-3.21,4.08,-0.62,-0.91,0.58,1.65,
4.906,-3.21,4.08,-0.62,-0.93,0.59,1.68,
4.908,-3.21,4.08,-0.62,-0.95,0.60,1.71,
4.91,-3.53,4.29,-0.93,-0.95,0.60,1.71,
4.91,-3.53,4.29,-0.93,-0.97,0.62,1.74,
4.913,-3.53,4.29,-0.93,-1.00,0.62,1.78,
4.915,-3.53,4.29,-0.93,-1.02,0.59,1.81,
4.918,-3.53,4.29,-0.93,-1.04,0.56,1.85,
4.919,-3.92,4.61,-0.84,-1.04,0.56,1.85,
4.921,-4.46,5.05,-0.68,-1.04,0.56,1.85,
4.929,-4.46,5.05,-0.68,-1.06,0.54,1.90,
4.929,-4.46,5.05,-0.68,-1.09,0.52,1.96,
4.929,-4.46,5.05,-0.68,-1.11,0.52,2.02,
4.93,-4.91,5.32,-0.77,-1.11,0.52,2.02,
4.93,-4.91,5.32,-0.77,-1.13,0.52,2.08,
4.93,-4.91,5.32,-0.77,-1.15,0.53,2.13,
4.93,-5.28,5.32,-0.99,-1.15,0.53,2.13,
4.933,-5.28,5.32,-0.99,-1.17,0.54,2.17,
4.935,-5.28,5.32,-0.99,-1.20,0.55,2.21,
4.935,-5.38,5.28,-1.29,-1.20,0.55,2.21,
4.939,-5.38,5.28,-1.29,-1.23,0.59,2.24,
4.94,-5.29,5.86,-1.77,-1.23,0.59,2.24,
4.941,-5.29,5.86,-1.77,-1.26,0.64,2.28,
4.942,-5.29,5.86,-1.77,-1.29,0.68,2.32,
4.945,-5.29,5.86,-1.77,-1.31,0.72,2.36,
4.945,-5.72,6.44,-1.48,-1.31,0.72,2.36,
4.947,-5.72,6.44,-1.48,-1.34,0.74,2.41,
4.95,-5.72,6.44,-1.48,-1.37,0.76,2.46,
4.95,-6.39,6.98,-1.55,-1.37,0.76,2.46,
4.961,-6.39,6.98,-1.55,-1.39,0.79,2.51,
4.961,-6.99,7.50,-2.12,-1.39,0.79,2.51,
4.961,-6.99,7.50,-2.12,-1.42,0.83,2.56,
4.961,-6.99,7.50,-2.12,-1.46,0.84,2.60,
4.961,-6.99,7.50,-2.12,-1.49,0.85,2.64,
4.961,-7.84,8.20,-2.43,-1.49,0.85,2.64,
4.962,-7.84,8.20,-2.43,-1.53,0.85,2.67,
4.965,-7.84,8.20,-2.43,-1.57,0.84,2.70,
4.965,-8.74,8.83,-2.90,-1.57,0.84,2.70,
4.967,-8.74,8.83,-2.90,-1.62,0.80,2.73,
4.97,-9.95,9.62,-3.69,-1.62,0.80,2.73,
4.971,-9.95,9.62,-3.69,-1.66,0.77,2.76,
4.972,-9.95,9.62,-3.69,-1.69,0.78,2.79,
4.975,-9.95,9.62,-3.69,-1.71,0.80,2.81,
4.975,-10.89,10.30,-4.68,-1.71,0.80,2.81,
4.977,-10.89,10.30,-4.68,-1.74,0.85,2.83,
4.981,-10.89,10.30,-4.68,-1.76,0.88,2.83,
4.981,-11.36,10.78,-5.62,-1.76,0.88,2.83,
4.984,-11.36,10.78,-5.62,-1.79,0.90,2.83,
4.986,-11.36,10.78,-5.62,-1.83,0.93,2.82,
4.986,-11.31,11.05,-6.80,-1.83,0.93,2.82,
4.988,-11.31,11.05,-6.80,-1.86,0.96,2.79,
4.991,-11.31,11.05,-6.80,-1.89,0.99,2.76,
4.992,-11.34,11.73,-7.98,-1.89,0.99,2.76,
4.992,-11.34,11.73,-7.98,-1.93,1.01,2.74,
4.995,-11.69,13.28,-8.79,-1.93,1.01,2.74,
4.995,-11.69,13.28,-8.79,-1.96,1.03,2.73,
4.997,-11.69,13.28,-8.79,-1.98,1.05,2.73,
5.0,-11.69,13.28,-8.79,-1.98,1.08,2.75,
