
time,ax,ay,az,wx,wy,wz,
0.009,0.11,-0.15,-0.44,0.14,0.14,-0.26,
0.009,-0.08,-0.12,-0.33,0.14,0.14,-0.26,
0.01,-0.08,-0.12,-0.33,0.11,0.09,-0.26,
0.01,-0.08,-0.12,-0.33,0.08,0.04,-0.25,
0.01,-0.33,-0.07,-0.24,0.08,0.04,-0.25,
0.01,-0.33,-0.07,-0.24,0.05,-0.01,-0.25,
0.01,-0.33,-0.07,-0.24,0.03,-0.07,-0.24,
0.011,-0.45,-0.01,-0.07,0.03,-0.07,-0.24,
0.011,-0.45,-0.01,-0.07,0.01,-0.12,-0.24,
0.013,-0.45,-0.01,-0.07,0.00,-0.17,-0.23,
0.013,-0.50,0.06,0.10,0.00,-0.17,-0.23,
0.015,-0.50,0.06,0.10,0.00,-0.22,-0.22,
0.017,-0.54,0.11,0.59,0.00,-0.22,-0.22,
0.017,-0.54,0.11,0.59,0.00,-0.26,-0.21,
0.02,-0.54,0.11,0.59,0.00,-0.27,-0.19,
0.022,-0.54,0.11,0.59,0.00,-0.29,-0.18,
0.022,-0.70,0.20,0.46,0.00,-0.29,-0.18,
0.025,-0.70,0.20,0.46,0.00,-0.29,-0.16,
0.027,-0.70,0.20,0.46,0.00,-0.29,-0.14,
0.027,-0.69,0.28,0.30,0.00,-0.29,-0.14,
0.029,-0.69,0.28,0.30,-0.00,-0.28,-0.14,
0.032,-0.69,0.28,0.30,-0.01,-0.28,-0.14,
0.032,-0.36,0.18,-0.05,-0.01,-0.28,-0.14,
0.035,-0.36,0.18,-0.05,-0.02,-0.27,-0.14,
0.037,-0.36,0.18,-0.05,-0.04,-0.27,-0.15,
0.037,-0.10,0.03,-0.36,-0.04,-0.27,-0.15,
0.04,-0.10,0.03,-0.36,-0.05,-0.26,-0.17,
0.042,-0.10,0.03,-0.36,-0.06,-0.26,-0.18,
0.042,0.11,-0.07,-0.56,-0.06,-0.26,-0.18,
0.044,0.11,-0.07,-0.56,-0.07,-0.26,-0.20,
0.047,0.11,-0.07,-0.56,-0.09,-0.26,-0.21,
0.047,0.22,-0.11,-0.62,-0.09,-0.26,-0.21,
0.05,0.22,-0.11,-0.62,-0.10,-0.27,-0.23,
0.051,0.22,-0.11,-0.62,-0.11,-0.27,-0.25,
0.052,0.18,-0.11,-0.56,-0.11,-0.27,-0.25,
0.054,0.18,-0.11,-0.56,-0.12,-0.22,-0.27,
0.058,0.18,-0.11,-0.56,-0.14,-0.17,-0.29,
0.058,-0.61,-0.51,-0.59,-0.14,-0.17,-0.29,
0.061,-0.61,-0.51,-0.59,-0.16,-0.13,-0.32,
0.062,-0.61,-0.51,-0.59,-0.16,-0.09,-0.35,
0.062,-0.57,-0.91,-0.33,-0.16,-0.09,-0.35,
0.064,-0.57,-0.91,-0.33,-0.16,-0.09,-0.37,
0.067,-0.57,-0.91,-0.33,-0.16,-0.11,-0.36,
0.067,-0.92,-0.85,0.09,-0.16,-0.11,-0.36,
0.069,-0.92,-0.85,0.09,-0.15,-0.15,-0.36,
0.072,-0.92,-0.85,0.09,-0.13,-0.19,-0.35,
0.072,-0.93,-0.46,0.42,-0.13,-0.19,-0.35,
0.075,-0.93,-0.46,0.42,-0.11,-0.23,-0.34,
0.077,-0.93,-0.46,0.42,-0.08,-0.26,-0.32,
0.077,-0.96,-0.21,0.47,-0.08,-0.26,-0.32,
0.079,-0.96,-0.21,0.47,-0.05,-0.29,-0.31,
0.081,-0.96,-0.21,0.47,-0.03,-0.29,-0.34,
0.082,-0.18,-0.94,0.43,-0.03,-0.29,-0.34,
0.084,-0.18,-0.94,0.43,-0.01,-0.27,-0.39,
0.087,-0.18,-0.94,0.43,-0.00,-0.28,-0.43,
0.088,0.14,-2.15,0.03,-0.00,-0.28,-0.43,
0.089,0.14,-2.15,0.03,0.00,-0.27,-0.45,
0.092,0.14,-2.15,0.03,0.01,-0.23,-0.46,
0.092,-1.18,-1.00,-0.23,0.01,-0.23,-0.46,
0.097,-1.31,-0.26,0.13,0.01,-0.23,-0.46,
0.097,-1.31,-0.26,0.13,0.02,-0.17,-0.45,
0.097,-1.31,-0.26,0.13,0.03,-0.11,-0.45,
0.099,-1.31,-0.26,0.13,0.06,-0.07,-0.44,
0.101,-1.31,-0.26,0.13,0.08,-0.03,-0.42,
0.101,-1.19,0.09,0.42,0.08,-0.03,-0.42,
0.104,-1.19,0.09,0.42,0.10,-0.01,-0.40,
0.106,-1.19,0.09,0.42,0.12,0.01,-0.38,
0.106,-0.88,0.16,0.41,0.12,0.01,-0.38,
0.109,-0.88,0.16,0.41,0.13,0.03,-0.37,
0.111,-0.88,0.16,0.41,0.13,0.05,-0.35,
0.111,-0.43,0.10,0.29,0.13,0.05,-0.35,
0.116,-0.43,0.10,0.29,0.13,0.06,-0.34,
0.116,-0.43,0.10,0.29,0.12,0.07,-0.34,
0.116,-0.20,0.04,0.13,0.12,0.07,-0.34,
0.119,-0.20,0.04,0.13,0.10,0.08,-0.34,
0.122,-0.28,0.03,-0.01,0.10,0.08,-0.34,
0.123,-0.28,0.03,-0.01,0.07,0.08,-0.35,
0.126,-0.33,0.10,-0.03,0.07,0.08,-0.35,
0.127,-0.33,0.10,-0.03,0.05,0.08,-0.35,
0.127,-0.33,0.10,-0.03,0.03,0.07,-0.36,
0.128,-0.33,0.10,-0.03,0.00,0.05,-0.37,
0.131,-0.33,0.10,-0.03,-0.02,0.03,-0.38,
0.131,-0.52,0.04,-0.08,-0.02,0.03,-0.38,
0.133,-0.52,0.04,-0.08,-0.04,0.01,-0.39,
0.136,-0.52,0.04,-0.08,-0.06,-0.01,-0.39,
0.136,-0.64,-0.01,-0.09,-0.06,-0.01,-0.39,
0.138,-0.64,-0.01,-0.09,-0.07,-0.04,-0.39,
0.141,-0.75,-0.03,-0.09,-0.07,-0.04,-0.39,
0.141,-0.75,-0.03,-0.09,-0.08,-0.06,-0.39,
0.143,-0.75,-0.03,-0.09,-0.09,-0.07,-0.39,
0.146,-0.75,-0.03,-0.09,-0.10,-0.08,-0.38,
0.146,-0.87,-0.00,-0.09,-0.10,-0.08,-0.38,
0.148,-0.87,-0.00,-0.09,-0.11,-0.09,-0.38,
0.151,-0.87,-0.00,-0.09,-0.11,-0.09,-0.37,
0.151,-0.88,0.03,-0.07,-0.11,-0.09,-0.37,
0.156,-0.92,0.10,-0.11,-0.11,-0.09,-0.37,
0.156,-0.92,0.10,-0.11,-0.11,-0.09,-0.36,
0.156,-0.92,0.10,-0.11,-0.11,-0.08,-0.35,
0.159,-0.92,0.10,-0.11,-0.10,-0.06,-0.34,
0.161,-0.96,0.18,-0.18,-0.10,-0.06,-0.34,
0.161,-0.96,0.18,-0.18,-0.09,-0.04,-0.34,
0.163,-0.96,0.18,-0.18,-0.08,-0.01,-0.32,
0.165,-0.96,0.18,-0.18,-0.07,0.03,-0.32,
0.166,-1.04,0.22,-0.26,-0.07,0.03,-0.32,
0.168,-1.04,0.22,-0.26,-0.06,0.07,-0.31,
0.17,-1.04,0.22,-0.26,-0.04,0.11,-0.30,
0.171,-0.93,0.32,-0.24,-0.04,0.11,-0.30,
0.174,-0.93,0.32,-0.24,-0.02,0.15,-0.28,
0.176,-0.84,0.44,-0.13,-0.02,0.15,-0.28,
0.176,-0.84,0.44,-0.13,0.00,0.21,-0.27,
0.178,-0.84,0.44,-0.13,0.02,0.26,-0.26,
0.18,-0.84,0.44,-0.13,0.05,0.31,-0.24,
0.18,-0.85,0.55,-0.03,0.05,0.31,-0.24,
0.183,-0.85,0.55,-0.03,0.08,0.36,-0.23,
0.185,-0.85,0.55,-0.03,0.11,0.41,-0.21,
0.185,-0.65,0.59,0.07,0.11,0.41,-0.21,
0.189,-0.65,0.59,0.07,0.13,0.45,-0.21,
0.191,-0.49,0.56,0.30,0.13,0.45,-0.21,
0.191,-0.49,0.56,0.30,0.16,0.49,-0.20,
0.193,-0.49,0.56,0.30,0.19,0.53,-0.19,
0.195,-0.49,0.56,0.30,0.22,0.57,-0.18,
0.196,-0.47,0.51,0.44,0.22,0.57,-0.18,
0.198,-0.47,0.51,0.44,0.25,0.60,-0.17,
0.2,-0.47,0.51,0.44,0.27,0.62,-0.16,
0.2,-0.57,0.44,0.46,0.27,0.62,-0.16,
0.203,-0.57,0.44,0.46,0.30,0.64,-0.15,
0.205,-0.57,0.44,0.46,0.32,0.66,-0.14,
0.205,-0.59,0.43,0.48,0.32,0.66,-0.14,
0.209,-0.59,0.43,0.48,0.34,0.68,-0.14,
0.213,-0.61,0.38,0.38,0.34,0.68,-0.14,
0.213,-0.61,0.38,0.38,0.35,0.68,-0.13,
0.213,-0.61,0.38,0.38,0.36,0.69,-0.12,
0.215,-0.62,0.25,0.28,0.36,0.69,-0.12,
0.221,-0.62,0.25,0.28,0.37,0.68,-0.12,
0.222,-0.62,0.09,0.07,0.37,0.68,-0.12,
0.222,-0.62,0.09,0.07,0.37,0.67,-0.13,
0.232,-0.62,0.09,0.07,0.37,0.65,-0.13,
0.232,-0.62,0.09,0.07,0.37,0.62,-0.13,
0.232,-0.53,0.07,0.07,0.37,0.62,-0.13,
0.232,-0.53,0.07,0.07,0.36,0.59,-0.14,
0.233,-0.53,0.07,0.07,0.36,0.57,-0.14,
0.233,-0.53,0.07,0.07,0.35,0.53,-0.14,
0.233,-0.54,0.06,-0.01,0.35,0.53,-0.14,
0.233,-0.54,0.06,-0.01,0.34,0.49,-0.15,
0.235,-0.54,0.06,-0.01,0.32,0.46,-0.16,
0.235,-0.48,0.15,-0.07,0.32,0.46,-0.16,
0.237,-0.48,0.15,-0.07,0.31,0.41,-0.16,
0.24,-0.48,0.15,-0.07,0.29,0.37,-0.17,
0.24,-0.46,0.22,-0.16,0.29,0.37,-0.17,
0.243,-0.46,0.22,-0.16,0.28,0.32,-0.17,
0.245,-0.46,0.22,-0.16,0.26,0.28,-0.18,
0.246,-0.33,0.26,-0.20,0.26,0.28,-0.18,
0.247,-0.33,0.26,-0.20,0.25,0.23,-0.19,
0.25,-0.33,0.26,-0.20,0.23,0.19,-0.20,
0.25,-0.25,0.27,-0.27,0.23,0.19,-0.20,
0.252,-0.25,0.27,-0.27,0.21,0.14,-0.21,
0.255,-0.32,0.18,-0.36,0.21,0.14,-0.21,
0.255,-0.32,0.18,-0.36,0.19,0.10,-0.21,
0.257,-0.32,0.18,-0.36,0.17,0.05,-0.22,
0.26,-0.32,0.18,-0.36,0.14,-0.01,-0.23,
0.26,-0.44,0.10,-0.40,0.14,-0.01,-0.23,
0.262,-0.44,0.10,-0.40,0.10,-0.08,-0.24,
0.264,-0.44,0.10,-0.40,0.07,-0.15,-0.25,
0.265,-0.56,-0.04,-0.47,0.07,-0.15,-0.25,
0.267,-0.56,-0.04,-0.47,0.04,-0.20,-0.26,
0.271,-0.56,-0.04,-0.47,0.02,-0.24,-0.28,
0.271,-0.56,-0.22,-0.42,0.02,-0.24,-0.28,
0.272,-0.56,-0.22,-0.42,0.00,-0.28,-0.29,
0.276,-0.50,-0.28,-0.28,0.00,-0.28,-0.29,
0.276,-0.50,-0.28,-0.28,-0.01,-0.32,-0.31,
0.277,-0.50,-0.28,-0.28,-0.02,-0.36,-0.31,
0.28,-0.50,-0.28,-0.28,-0.03,-0.39,-0.32,
0.28,-0.54,-0.22,-0.20,-0.03,-0.39,-0.32,
0.283,-0.54,-0.22,-0.20,-0.04,-0.42,-0.33,
0.285,-0.54,-0.22,-0.20,-0.05,-0.45,-0.34,
0.285,-0.55,-0.14,-0.17,-0.05,-0.45,-0.34,
0.287,-0.55,-0.14,-0.17,-0.05,-0.47,-0.34,
0.292,-0.53,-0.09,-0.14,-0.05,-0.47,-0.34,
0.293,-0.53,-0.09,-0.14,-0.05,-0.49,-0.35,
0.293,-0.53,-0.09,-0.14,-0.06,-0.51,-0.35,
0.295,-0.53,-0.09,-0.14,-0.06,-0.54,-0.36,
0.295,-0.50,-0.09,-0.09,-0.06,-0.54,-0.36,
0.297,-0.50,-0.09,-0.09,-0.06,-0.56,-0.36,
0.299,-0.50,-0.09,-0.09,-0.06,-0.58,-0.36,
0.299,-0.46,-0.09,-0.11,-0.06,-0.58,-0.36,
0.302,-0.46,-0.09,-0.11,-0.06,-0.59,-0.37,
0.304,-0.46,-0.09,-0.11,-0.06,-0.58,-0.38,
0.304,-0.36,-0.15,-0.28,-0.06,-0.58,-0.38,
0.307,-0.36,-0.15,-0.28,-0.06,-0.56,-0.40,
0.31,-0.18,-0.39,-0.53,-0.06,-0.56,-0.40,
0.311,-0.18,-0.39,-0.53,-0.07,-0.52,-0.44,
0.312,-0.18,-0.39,-0.53,-0.07,-0.50,-0.46,
0.314,-0.18,-0.39,-0.53,-0.05,-0.50,-0.47,
0.315,-0.18,-0.21,-0.46,-0.05,-0.50,-0.47,
0.317,-0.18,-0.21,-0.46,-0.04,-0.50,-0.47,
0.319,-0.18,-0.21,-0.46,-0.02,-0.50,-0.47,
0.319,-0.22,0.10,-0.33,-0.02,-0.50,-0.47,
0.322,-0.22,0.10,-0.33,-0.00,-0.50,-0.47,
0.324,-0.22,0.17,-0.33,-0.00,-0.50,-0.47,
0.325,-0.22,0.17,-0.33,0.01,-0.48,-0.47,
0.327,-0.22,0.17,-0.33,0.02,-0.46,-0.46,
0.329,-0.22,0.17,-0.33,0.03,-0.44,-0.46,
0.329,-0.19,0.12,-0.39,0.03,-0.44,-0.46,
0.332,-0.19,0.12,-0.39,0.05,-0.41,-0.45,
0.334,-0.13,0.03,-0.33,0.05,-0.41,-0.45,
0.334,-0.13,0.03,-0.33,0.06,-0.39,-0.45,
0.337,-0.13,0.03,-0.33,0.07,-0.36,-0.45,
0.339,-0.13,0.03,-0.33,0.08,-0.34,-0.45,
0.339,-0.16,-0.10,-0.18,0.08,-0.34,-0.45,
0.342,-0.16,-0.10,-0.18,0.10,-0.32,-0.46,
0.344,-0.16,-0.10,-0.18,0.11,-0.31,-0.46,
0.344,-0.23,-0.14,-0.03,0.11,-0.31,-0.46,
0.347,-0.23,-0.14,-0.03,0.12,-0.30,-0.46,
0.349,-0.23,-0.14,-0.03,0.13,-0.30,-0.45,
0.349,-0.26,-0.14,0.07,0.13,-0.30,-0.45,
0.351,-0.26,-0.14,0.07,0.13,-0.30,-0.45,
0.354,-0.26,-0.14,0.07,0.13,-0.30,-0.45,
0.354,-0.23,-0.10,0.07,0.13,-0.30,-0.45,
0.357,-0.23,-0.10,0.07,0.13,-0.31,-0.45,
0.359,-0.15,-0.13,-0.05,0.13,-0.31,-0.45,
0.36,-0.15,-0.13,-0.05,0.13,-0.31,-0.45,
0.361,-0.15,-0.13,-0.05,0.12,-0.32,-0.46,
0.364,-0.15,-0.13,-0.05,0.09,-0.34,-0.49,
0.364,0.43,-0.86,-0.17,0.09,-0.34,-0.49,
0.366,0.43,-0.86,-0.17,0.07,-0.36,-0.53,
0.369,0.43,-0.86,-0.17,0.05,-0.38,-0.55,
0.369,0.45,-1.13,-0.48,0.05,-0.38,-0.55,
0.371,0.45,-1.13,-0.48,0.03,-0.40,-0.56,
0.375,0.45,-1.13,-0.48,0.01,-0.43,-0.57,
0.375,-0.23,-0.17,-0.53,0.01,-0.43,-0.57,
0.376,-0.23,-0.17,-0.53,-0.01,-0.42,-0.59,
0.379,-0.23,-0.17,-0.53,-0.03,-0.41,-0.60,
0.379,-0.38,0.44,-0.48,-0.03,-0.41,-0.60,
0.382,-0.38,0.44,-0.48,-0.04,-0.40,-0.61,
0.385,-0.24,0.68,-0.41,-0.04,-0.40,-0.61,
0.385,-0.24,0.68,-0.41,-0.04,-0.38,-0.62,
0.402,-0.24,0.68,-0.41,-0.04,-0.36,-0.62,
0.402,-0.24,0.68,-0.41,-0.05,-0.34,-0.61,
0.402,-0.12,0.56,-0.33,-0.05,-0.34,-0.61,
0.402,-0.12,0.56,-0.33,-0.06,-0.32,-0.60,
0.402,-0.01,0.16,-0.27,-0.06,-0.32,-0.60,
0.402,-0.01,0.16,-0.27,-0.07,-0.30,-0.60,
0.403,-0.01,0.16,-0.27,-0.08,-0.28,-0.59,
0.403,0.06,-0.14,-0.11,-0.08,-0.28,-0.59,
0.403,0.06,-0.14,-0.11,-0.09,-0.26,-0.59,
0.403,0.06,-0.14,-0.11,-0.09,-0.25,-0.59,
0.404,0.07,-0.23,0.13,-0.09,-0.25,-0.59,
0.405,0.07,-0.23,0.13,-0.09,-0.24,-0.60,
0.406,0.07,-0.23,0.13,-0.09,-0.23,-0.60,
0.41,0.02,-0.21,0.33,-0.09,-0.23,-0.60,
0.41,0.02,-0.21,0.33,-0.08,-0.22,-0.61,
0.411,0.02,-0.21,0.33,-0.07,-0.21,-0.61,
0.414,-0.05,-0.12,0.48,-0.07,-0.21,-0.61,
0.414,-0.05,-0.12,0.48,-0.06,-0.20,-0.62,
0.416,-0.05,-0.12,0.48,-0.05,-0.19,-0.62,
0.419,-0.05,-0.12,0.48,-0.03,-0.17,-0.63,
0.419,0.03,-0.36,0.44,-0.03,-0.17,-0.63,
0.421,0.03,-0.36,0.44,-0.02,-0.15,-0.63,
0.424,0.03,-0.36,0.44,-0.02,-0.15,-0.62,
0.424,-0.19,-0.20,0.40,-0.02,-0.15,-0.62,
0.427,-0.19,-0.20,0.40,-0.01,-0.13,-0.62,
0.428,-0.19,-0.20,0.40,-0.00,-0.10,-0.61,
0.429,-0.24,-0.03,0.33,-0.00,-0.10,-0.61,
0.431,-0.24,-0.03,0.33,0.01,-0.07,-0.60,
0.434,-0.24,-0.03,0.33,0.02,-0.04,-0.59,
0.434,-0.21,-0.00,0.23,0.02,-0.04,-0.59,
0.436,-0.21,-0.00,0.23,0.03,-0.01,-0.58,
0.438,-0.21,-0.00,0.23,0.04,0.02,-0.56,
0.438,-0.26,0.03,0.13,0.04,0.02,-0.56,
0.441,-0.26,0.03,0.13,0.04,0.06,-0.55,
0.444,-0.26,0.03,0.13,0.05,0.09,-0.53,
0.444,-0.20,-0.03,0.04,0.05,0.09,-0.53,
0.446,-0.20,-0.03,0.04,0.06,0.13,-0.52,
0.448,-0.20,-0.03,0.04,0.06,0.16,-0.50,
0.448,-0.18,-0.12,-0.08,0.06,0.16,-0.50,
0.451,-0.18,-0.12,-0.08,0.07,0.19,-0.49,
0.454,-0.18,-0.12,-0.08,0.07,0.22,-0.48,
0.454,-0.17,-0.19,-0.17,0.07,0.22,-0.48,
0.456,-0.17,-0.19,-0.17,0.07,0.25,-0.46,
0.458,-0.14,-0.21,-0.22,0.07,0.25,-0.46,
0.458,-0.14,-0.21,-0.22,0.08,0.27,-0.45,
0.461,-0.14,-0.21,-0.22,0.08,0.29,-0.44,
0.463,-0.14,-0.26,-0.21,0.08,0.29,-0.44,
0.463,-0.14,-0.26,-0.21,0.08,0.31,-0.42,
0.465,-0.14,-0.26,-0.21,0.09,0.33,-0.41,
0.468,-0.14,-0.26,-0.21,0.09,0.35,-0.40,
0.468,-0.18,-0.25,-0.18,0.09,0.35,-0.40,
0.47,-0.18,-0.25,-0.18,0.10,0.36,-0.38,
0.474,-0.18,-0.25,-0.18,0.10,0.38,-0.37,
0.475,-0.18,-0.26,-0.13,0.10,0.38,-0.37,
0.476,-0.18,-0.26,-0.13,0.11,0.39,-0.36,
0.478,-0.18,-0.26,-0.13,0.11,0.39,-0.34,
0.478,-0.22,-0.25,-0.09,0.11,0.39,-0.34,
0.481,-0.22,-0.25,-0.09,0.11,0.39,-0.33,
0.483,-0.22,-0.25,-0.09,0.11,0.38,-0.32,
0.483,-0.27,-0.24,-0.09,0.11,0.38,-0.32,
0.486,-0.27,-0.24,-0.09,0.11,0.38,-0.31,
0.489,-0.27,-0.24,-0.09,0.11,0.38,-0.30,
0.489,-0.26,-0.27,-0.15,0.11,0.38,-0.30,
0.492,-0.26,-0.27,-0.15,0.10,0.36,-0.29,
0.494,-0.30,-0.24,-0.20,0.10,0.36,-0.29,
0.495,-0.30,-0.24,-0.20,0.10,0.35,-0.28,
0.496,-0.30,-0.24,-0.20,0.09,0.33,-0.27,
0.498,-0.30,-0.24,-0.20,0.09,0.32,-0.26,
0.498,-0.34,-0.16,-0.24,0.09,0.32,-0.26,
0.501,-0.34,-0.16,-0.24,0.09,0.30,-0.25,
0.503,-0.30,-0.14,-0.31,0.09,0.30,-0.25,
0.503,-0.30,-0.14,-0.31,0.08,0.28,-0.24,
0.505,-0.30,-0.14,-0.31,0.08,0.26,-0.23,
0.511,-0.30,-0.14,-0.31,0.08,0.24,-0.22,
0.511,-0.33,-0.15,-0.16,0.08,0.24,-0.22,
0.512,-0.33,-0.15,-0.16,0.09,0.23,-0.21,
0.514,-0.32,-0.17,-0.08,0.09,0.23,-0.21,
0.514,-0.32,-0.17,-0.08,0.09,0.22,-0.20,
0.516,-0.32,-0.17,-0.08,0.10,0.21,-0.20,
0.518,-0.30,-0.15,-0.02,0.10,0.21,-0.20,
0.519,-0.30,-0.15,-0.02,0.10,0.20,-0.19,
0.521,-0.30,-0.15,-0.02,0.11,0.19,-0.18,
0.523,-0.30,-0.15,-0.02,0.12,0.18,-0.17,
0.523,-0.30,-0.13,0.05,0.12,0.18,-0.17,
0.536,-0.30,-0.13,0.05,0.13,0.16,-0.16,
0.537,-0.30,-0.13,0.05,0.14,0.14,-0.15,
0.537,-0.33,-0.17,0.08,0.14,0.14,-0.15,
0.537,-0.33,-0.17,0.08,0.14,0.12,-0.13,
0.537,-0.33,-0.17,0.08,0.15,0.10,-0.13,
0.537,-0.37,-0.22,0.13,0.15,0.10,-0.13,
0.538,-0.37,-0.22,0.13,0.16,0.08,-0.12,
0.538,-0.37,-0.22,0.13,0.17,0.07,-0.13,
0.538,-0.14,-0.08,0.17,0.17,0.07,-0.13,
0.54,-0.14,-0.08,0.17,0.17,0.06,-0.13,
0.547,-0.14,-0.08,0.17,0.17,0.06,-0.13,
0.547,-0.11,0.09,0.18,0.17,0.06,-0.13,
0.547,-0.11,0.09,0.18,0.17,0.06,-0.13,
0.55,-0.14,0.13,0.17,0.17,0.06,-0.13,
0.55,-0.14,0.13,0.17,0.18,0.07,-0.14,
0.55,-0.14,0.13,0.17,0.19,0.10,-0.15,
0.567,-0.14,0.13,0.17,0.19,0.12,-0.16,
0.567,0.02,-0.23,0.16,0.19,0.12,-0.16,
0.567,0.02,-0.23,0.16,0.20,0.13,-0.17,
0.567,0.02,-0.23,0.16,0.21,0.15,-0.18,
0.568,-0.20,-0.02,0.26,0.21,0.15,-0.18,
0.568,-0.20,-0.02,0.26,0.22,0.16,-0.19,
0.568,-0.20,-0.02,0.26,0.24,0.18,-0.19,
0.568,-0.16,-0.19,0.26,0.24,0.18,-0.19,
0.568,-0.16,-0.19,0.26,0.25,0.18,-0.19,
0.568,-0.16,-0.19,0.26,0.25,0.17,-0.18,
0.569,-0.34,-0.12,0.30,0.25,0.17,-0.18,
0.572,-0.34,-0.12,0.30,0.25,0.17,-0.18,
0.573,-0.34,-0.12,0.30,0.25,0.17,-0.19,
0.574,-0.30,0.05,0.24,0.25,0.17,-0.19,
0.576,-0.30,0.05,0.24,0.26,0.19,-0.20,
0.579,-0.30,0.05,0.24,0.25,0.21,-0.22,
0.58,-0.03,0.08,0.21,0.25,0.21,-0.22,
0.58,-0.03,0.08,0.21,0.25,0.23,-0.24,
0.582,0.12,-0.11,0.08,0.25,0.23,-0.24,
0.582,0.12,-0.11,0.08,0.25,0.25,-0.27,
0.584,0.12,-0.11,0.08,0.24,0.26,-0.30,
0.587,0.12,-0.11,0.08,0.24,0.26,-0.32,
0.587,0.12,-0.30,-0.09,0.24,0.26,-0.32,
0.589,0.12,-0.30,-0.09,0.23,0.27,-0.34,
0.6,0.05,-0.39,-0.18,0.23,0.27,-0.34,
0.601,0.05,-0.39,-0.18,0.22,0.27,-0.36,
0.601,0.05,-0.39,-0.18,0.21,0.28,-0.39,
0.601,-0.00,-0.47,-0.23,0.21,0.28,-0.39,
0.601,-0.00,-0.47,-0.23,0.21,0.28,-0.42,
0.601,-0.00,-0.47,-0.23,0.20,0.29,-0.45,
0.602,-0.00,-0.47,-0.23,0.18,0.32,-0.50,
0.603,-0.05,-0.68,-0.35,0.18,0.32,-0.50,
0.604,-0.05,-0.68,-0.35,0.16,0.34,-0.56,
0.607,-0.03,-0.82,-0.37,0.16,0.34,-0.56,
0.607,-0.03,-0.82,-0.37,0.16,0.35,-0.61,
0.612,-0.03,-0.82,-0.37,0.15,0.34,-0.66,
0.612,-0.19,-0.58,-0.30,0.15,0.34,-0.66,
0.612,-0.19,-0.58,-0.30,0.15,0.33,-0.69,
0.614,-0.19,-0.58,-0.30,0.15,0.33,-0.73,
0.617,-0.19,-0.58,-0.30,0.15,0.33,-0.76,
0.617,-0.35,-0.42,-0.41,0.15,0.33,-0.76,
0.62,-0.35,-0.42,-0.41,0.15,0.33,-0.78,
0.622,-0.35,-0.42,-0.41,0.15,0.35,-0.80,
0.623,-0.47,-0.37,-0.62,0.15,0.35,-0.80,
0.625,-0.47,-0.37,-0.62,0.15,0.37,-0.82,
0.627,-0.77,-0.40,-0.88,0.15,0.37,-0.82,
0.628,-0.77,-0.40,-0.88,0.14,0.43,-0.81,
0.63,-0.77,-0.40,-0.88,0.13,0.49,-0.79,
0.632,-1.81,-0.29,-1.12,0.13,0.49,-0.79,
0.632,-1.81,-0.29,-1.12,0.12,0.54,-0.76,
0.634,-1.81,-0.29,-1.12,0.12,0.59,-0.71,
0.636,-1.81,-0.29,-1.12,0.13,0.63,-0.66,
0.637,-2.12,-0.15,-1.09,0.13,0.63,-0.66,
0.639,-2.12,-0.15,-1.09,0.13,0.67,-0.61,
0.642,-2.44,-0.06,-1.13,0.13,0.67,-0.61,
0.642,-2.44,-0.06,-1.13,0.13,0.71,-0.56,
0.644,-2.44,-0.06,-1.13,0.14,0.74,-0.51,
0.646,-2.44,-0.06,-1.13,0.15,0.79,-0.47,
0.646,-2.63,-0.20,-1.26,0.15,0.79,-0.47,
0.649,-2.63,-0.20,-1.26,0.16,0.83,-0.42,
0.651,-2.63,-0.20,-1.26,0.17,0.88,-0.39,
0.652,-2.64,-0.48,-1.50,0.17,0.88,-0.39,
0.654,-2.64,-0.48,-1.50,0.18,0.93,-0.35,
0.656,-2.64,-0.48,-1.50,0.18,0.98,-0.33,
0.657,-2.60,-0.80,-1.76,0.18,0.98,-0.33,
0.659,-2.60,-0.80,-1.76,0.18,1.04,-0.31,
0.661,-2.42,-1.17,-1.98,0.18,1.04,-0.31,
0.662,-2.42,-1.17,-1.98,0.18,1.10,-0.30,
0.664,-2.42,-1.17,-1.98,0.18,1.15,-0.31,
0.666,-2.12,-1.58,-2.01,0.18,1.15,-0.31,
0.667,-2.12,-1.58,-2.01,0.19,1.21,-0.32,
0.669,-2.12,-1.58,-2.01,0.19,1.26,-0.34,
0.671,-1.77,-1.91,-2.05,0.19,1.26,-0.34,
0.672,-1.77,-1.91,-2.05,0.20,1.32,-0.37,
0.675,-1.77,-1.91,-2.05,0.21,1.37,-0.40,
0.677,-1.46,-2.20,-2.10,0.21,1.37,-0.40,
0.677,-1.46,-2.20,-2.10,0.22,1.43,-0.44,
0.679,-1.46,-2.20,-2.10,0.23,1.50,-0.47,
0.681,-1.20,-2.53,-2.21,0.23,1.50,-0.47,
0.681,-1.20,-2.53,-2.21,0.24,1.57,-0.52,
0.684,-1.20,-2.53,-2.21,0.26,1.65,-0.57,
0.686,-0.95,-2.88,-2.25,0.26,1.65,-0.57,
0.686,-0.95,-2.88,-2.25,0.28,1.73,-0.63,
0.689,-0.95,-2.88,-2.25,0.29,1.81,-0.69,
0.691,-0.67,-3.16,-2.21,0.29,1.81,-0.69,
0.691,-0.67,-3.16,-2.21,0.32,1.91,-0.76,
0.697,-0.67,-3.16,-2.21,0.35,2.00,-0.83,
0.698,-0.41,-3.36,-2.15,0.35,2.00,-0.83,
0.699,-0.41,-3.36,-2.15,0.38,2.10,-0.90,
0.701,-0.41,-3.36,-2.15,0.42,2.20,-0.97,
0.702,-0.22,-3.53,-2.09,0.42,2.20,-0.97,
0.702,-0.22,-3.53,-2.09,0.46,2.30,-1.04,
0.704,-0.22,-3.53,-2.09,0.51,2.40,-1.10,
0.706,-0.22,-3.53,-2.09,0.56,2.50,-1.17,
0.708,-0.13,-3.70,-2.06,0.56,2.50,-1.17,
0.728,-0.13,-3.70,-2.06,0.62,2.62,-1.22,
0.729,-0.13,-3.70,-2.06,0.68,2.74,-1.28,
0.729,-0.13,-3.86,-2.03,0.68,2.74,-1.28,
0.73,-0.13,-3.86,-2.03,0.74,2.87,-1.32,
0.73,-0.13,-3.86,-2.03,0.81,3.00,-1.37,
0.757,-0.23,-3.91,-1.98,0.81,3.00,-1.37,
0.757,-0.23,-3.91,-1.98,0.88,3.14,-1.41,
0.757,-0.35,-3.96,-1.89,0.88,3.14,-1.41,
0.757,-0.35,-3.96,-1.89,0.96,3.29,-1.46,
0.758,-0.35,-3.96,-1.89,1.03,3.45,-1.51,
0.758,-0.43,-4.05,-1.84,1.03,3.45,-1.51,
0.758,-0.43,-4.05,-1.84,1.11,3.60,-1.55,
0.758,-0.43,-4.05,-1.84,1.20,3.76,-1.60,
0.759,-0.43,-4.05,-1.84,1.28,3.92,-1.66,
0.759,-0.47,-4.19,-1.78,1.28,3.92,-1.66,
0.759,-0.47,-4.19,-1.78,1.36,4.07,-1.72,
0.759,-0.45,-4.36,-1.72,1.36,4.07,-1.72,
0.76,-0.45,-4.36,-1.72,1.45,4.22,-1.77,
0.76,-0.45,-4.36,-1.72,1.54,4.36,-1.82,
0.76,-0.53,-4.43,-1.69,1.54,4.36,-1.82,
0.76,-0.53,-4.43,-1.69,1.64,4.51,-1.86,
0.761,-0.53,-4.43,-1.69,1.73,4.65,-1.90,
0.761,-0.81,-4.37,-1.51,1.73,4.65,-1.90,
0.761,-0.81,-4.37,-1.51,1.82,4.78,-1.93,
0.761,-0.81,-4.37,-1.51,1.91,4.90,-1.97,
0.762,-0.81,-4.37,-1.51,2.00,5.01,-1.99,
0.762,-1.09,-4.28,-1.22,2.00,5.01,-1.99,
0.762,-1.09,-4.28,-1.22,2.09,5.11,-2.02,
0.762,-1.09,-4.28,-1.22,2.17,5.20,-2.04,
0.763,-1.30,-4.16,-0.97,2.17,5.20,-2.04,
0.763,-1.30,-4.16,-0.97,2.25,5.27,-2.06,
0.763,-1.48,-4.15,-0.83,2.25,5.27,-2.06,
0.764,-1.48,-4.15,-0.83,2.33,5.33,-2.08,
0.765,-1.48,-4.15,-0.83,2.39,5.38,-2.09,
0.769,-1.49,-4.31,-0.87,2.39,5.38,-2.09,
0.77,-1.49,-4.31,-0.87,2.45,5.41,-2.11,
0.77,-1.49,-4.31,-0.87,2.49,5.43,-2.13,
0.771,-1.49,-4.31,-0.87,2.53,5.43,-2.15,
0.771,-1.23,-4.58,-1.01,2.53,5.43,-2.15,
0.773,-1.23,-4.58,-1.01,2.55,5.42,-2.17,
0.777,-1.23,-4.58,-1.01,2.57,5.39,-2.20,
0.778,-0.58,-4.79,-1.21,2.57,5.39,-2.20,
0.779,-0.58,-4.79,-1.21,2.58,5.37,-2.25,
0.781,-0.58,-4.79,-1.21,2.58,5.35,-2.29,
0.781,0.37,-4.83,-1.45,2.58,5.35,-2.29,
0.784,0.37,-4.83,-1.45,2.57,5.33,-2.35,
0.786,0.37,-4.83,-1.45,2.56,5.33,-2.41,
0.786,1.33,-4.74,-1.60,2.56,5.33,-2.41,
0.788,1.33,-4.74,-1.60,2.55,5.33,-2.49,
0.79,1.33,-4.74,-1.60,2.54,5.34,-2.57,
0.79,2.13,-4.74,-1.66,2.54,5.34,-2.57,
0.793,2.13,-4.74,-1.66,2.53,5.36,-2.67,
0.795,2.13,-4.74,-1.66,2.52,5.37,-2.78,
0.795,2.67,-4.94,-1.58,2.52,5.37,-2.78,
0.797,2.67,-4.94,-1.58,2.52,5.36,-2.89,
0.8,2.67,-4.94,-1.58,2.52,5.34,-3.00,
0.8,3.05,-5.30,-1.47,2.52,5.34,-3.00,
0.802,3.05,-5.30,-1.47,2.51,5.33,-3.11,
0.805,3.05,-5.30,-1.47,2.50,5.34,-3.22,
0.805,3.22,-5.54,-1.48,2.50,5.34,-3.22,
0.807,3.22,-5.54,-1.48,2.48,5.35,-3.33,
0.812,3.15,-5.63,-1.31,2.48,5.35,-3.33,
0.812,3.15,-5.63,-1.31,2.47,5.36,-3.43,
0.813,3.15,-5.63,-1.31,2.47,5.37,-3.53,
0.815,3.15,-5.63,-1.31,2.48,5.36,-3.62,
0.815,2.99,-5.65,-0.91,2.48,5.36,-3.62,
0.818,2.99,-5.65,-0.91,2.50,5.36,-3.71,
0.82,2.79,-5.66,-0.49,2.50,5.36,-3.71,
0.82,2.79,-5.66,-0.49,2.51,5.35,-3.80,
0.822,2.79,-5.66,-0.49,2.53,5.34,-3.88,
0.834,2.79,-5.66,-0.49,2.55,5.32,-3.97,
0.835,2.58,-5.58,-0.03,2.55,5.32,-3.97,
0.835,2.58,-5.58,-0.03,2.56,5.27,-4.05,
0.835,2.58,-5.58,-0.03,2.57,5.20,-4.13,
0.835,2.39,-5.46,0.44,2.57,5.20,-4.13,
0.835,2.39,-5.46,0.44,2.57,5.11,-4.20,
0.836,2.39,-5.46,0.44,2.57,5.01,-4.27,
0.836,2.12,-5.28,0.64,2.57,5.01,-4.27,
0.837,2.12,-5.28,0.64,2.55,4.90,-4.34,
0.841,1.70,-5.15,0.62,2.55,4.90,-4.34,
0.841,1.70,-5.15,0.62,2.52,4.77,-4.40,
0.843,1.70,-5.15,0.62,2.49,4.63,-4.46,
0.846,1.70,-5.15,0.62,2.44,4.46,-4.51,
0.847,1.29,-5.04,0.62,2.44,4.46,-4.51,
0.847,1.29,-5.04,0.62,2.38,4.29,-4.57,
0.851,1.29,-5.04,0.62,2.32,4.11,-4.61,
0.851,0.86,-4.88,0.71,2.32,4.11,-4.61,
0.852,0.86,-4.88,0.71,2.25,3.92,-4.65,
0.855,0.86,-4.88,0.71,2.18,3.73,-4.69,
0.855,0.35,-4.59,0.96,2.18,3.73,-4.69,
0.857,0.35,-4.59,0.96,2.11,3.53,-4.72,
0.86,0.35,-4.59,0.96,2.05,3.31,-4.74,
0.86,-0.17,-4.31,1.37,2.05,3.31,-4.74,
0.862,-0.17,-4.31,1.37,2.00,3.10,-4.76,
0.865,-0.17,-4.31,1.37,1.94,2.88,-4.78,
0.865,-0.59,-4.18,1.72,1.94,2.88,-4.78,
0.867,-0.59,-4.18,1.72,1.89,2.67,-4.79,
0.87,-0.59,-4.18,1.72,1.84,2.47,-4.80,
0.87,-0.72,-4.07,1.96,1.84,2.47,-4.80,
0.872,-0.72,-4.07,1.96,1.79,2.29,-4.80,
0.875,-0.61,-3.87,2.04,1.79,2.29,-4.80,
0.875,-0.61,-3.87,2.04,1.75,2.12,-4.81,
0.877,-0.61,-3.87,2.04,1.71,1.96,-4.83,
0.88,-0.44,-3.65,2.04,1.71,1.96,-4.83,
0.88,-0.44,-3.65,2.04,1.67,1.83,-4.85,
0.9,-0.44,-3.65,2.04,1.63,1.71,-4.87,
0.9,-0.44,-3.65,2.04,1.60,1.61,-4.90,
0.9,-0.24,-3.56,2.01,1.60,1.61,-4.90,
0.9,-0.24,-3.56,2.01,1.58,1.52,-4.93,
0.9,-0.01,-3.47,2.01,1.58,1.52,-4.93,
0.9,-0.01,-3.47,2.01,1.56,1.44,-4.96,
0.901,-0.01,-3.47,2.01,1.55,1.37,-5.00,
0.901,0.27,-3.31,2.08,1.55,1.37,-5.00,
0.901,0.27,-3.31,2.08,1.54,1.32,-5.04,
0.901,0.27,-3.31,2.08,1.55,1.28,-5.09,
0.901,0.41,-2.99,2.10,1.55,1.28,-5.09,
0.901,0.41,-2.99,2.10,1.55,1.26,-5.14,
0.905,0.41,-2.99,2.10,1.56,1.25,-5.18,
0.908,0.41,-2.99,2.10,1.58,1.25,-5.23,
0.908,0.24,-2.62,2.07,1.58,1.25,-5.23,
0.908,0.24,-2.62,2.07,1.59,1.25,-5.27,
0.915,0.24,-2.62,2.07,1.61,1.25,-5.30,
0.915,-0.14,-2.30,2.15,1.61,1.25,-5.30,
0.915,-0.14,-2.30,2.15,1.63,1.26,-5.33,
0.916,-0.14,-2.30,2.15,1.65,1.27,-5.35,
0.916,-0.48,-2.00,2.20,1.65,1.27,-5.35,
0.923,-0.48,-2.00,2.20,1.66,1.30,-5.36,
0.927,-0.48,-2.00,2.20,1.68,1.35,-5.37,
0.927,-0.87,-1.67,2.15,1.68,1.35,-5.37,
0.927,-0.87,-1.67,2.15,1.69,1.43,-5.38,
0.927,-1.47,-1.23,2.14,1.69,1.43,-5.38,
0.928,-1.47,-1.23,2.14,1.69,1.53,-5.39,
0.928,-1.47,-1.23,2.14,1.70,1.63,-5.41,
0.929,-1.47,-1.23,2.14,1.73,1.68,-5.40,
0.93,-1.91,-0.70,2.21,1.73,1.68,-5.40,
0.932,-1.91,-0.70,2.21,1.77,1.70,-5.38,
0.934,-1.91,-0.70,2.21,1.80,1.74,-5.36,
0.934,-2.25,-0.33,2.36,1.80,1.74,-5.36,
0.936,-2.25,-0.33,2.36,1.83,1.77,-5.33,
0.939,-2.25,-0.33,2.36,1.86,1.79,-5.29,
0.939,-2.77,-0.11,2.35,1.86,1.79,-5.29,
0.941,-2.77,-0.11,2.35,1.89,1.80,-5.25,
0.944,-2.77,-0.11,2.35,1.91,1.81,-5.21,
0.944,-3.00,0.15,2.31,1.91,1.81,-5.21,
0.946,-3.00,0.15,2.31,1.94,1.80,-5.16,
0.949,-3.13,0.24,2.23,1.94,1.80,-5.16,
0.949,-3.13,0.24,2.23,1.97,1.79,-5.13,
0.951,-3.13,0.24,2.23,1.98,1.79,-5.11,
0.954,-3.13,0.24,2.23,2.00,1.75,-5.08,
0.954,-3.16,0.19,2.09,2.00,1.75,-5.08,
0.956,-3.16,0.19,2.09,2.02,1.69,-5.05,
0.959,-3.16,0.19,2.09,2.05,1.60,-5.01,
0.96,-3.20,0.25,2.19,2.05,1.60,-5.01,
0.962,-3.20,0.25,2.19,2.07,1.50,-4.97,
0.964,-3.20,0.25,2.19,2.08,1.39,-4.94,
0.964,-3.21,0.16,2.27,2.08,1.39,-4.94,
0.967,-3.21,0.16,2.27,2.08,1.28,-4.91,
0.969,-3.21,0.16,2.27,2.08,1.16,-4.90,
0.97,-3.13,0.08,2.20,2.08,1.16,-4.90,
0.971,-3.13,0.08,2.20,2.07,1.04,-4.89,
0.974,-3.13,0.08,2.20,2.06,0.91,-4.89,
0.975,-3.28,0.09,2.11,2.06,0.91,-4.89,
0.977,-3.28,0.09,2.11,2.05,0.77,-4.88,
0.979,-3.28,0.09,2.11,2.04,0.63,-4.87,
0.98,-3.89,0.35,2.01,2.04,0.63,-4.87,
0.981,-3.89,0.35,2.01,2.02,0.49,-4.84,
0.983,-3.89,0.35,2.01,2.00,0.34,-4.80,
0.984,-4.69,0.75,1.76,2.00,0.34,-4.80,
0.986,-4.69,0.75,1.76,1.98,0.20,-4.76,
0.989,-4.69,0.75,1.76,1.96,0.08,-4.71,
0.989,-5.38,1.15,1.37,1.96,0.08,-4.71,
0.991,-5.38,1.15,1.37,1.92,-0.03,-4.65,
0.998,-6.01,1.60,0.81,1.92,-0.03,-4.65,
0.999,-6.01,1.60,0.81,1.89,-0.11,-4.59,
0.999,-6.01,1.60,0.81,1.85,-0.17,-4.52,
1.0,-6.51,2.08,0.37,1.85,-0.17,-4.52,
1.0,-6.51,2.08,0.37,1.81,-0.22,-4.45,
1.001,-6.51,2.08,0.37,1.78,-0.26,-4.37,
1.004,-6.51,2.08,0.37,1.75,-0.29,-4.29,
1.004,-6.93,2.44,0.16,1.75,-0.29,-4.29,
1.006,-6.93,2.44,0.16,1.71,-0.32,-4.21,
1.009,-7.50,2.78,-0.27,1.71,-0.32,-4.21,
1.009,-7.50,2.78,-0.27,1.67,-0.32,-4.11,
1.026,-7.50,2.78,-0.27,1.60,-0.30,-4.01,
1.027,-8.19,3.26,-1.34,1.60,-0.30,-4.01,
1.027,-8.19,3.26,-1.34,1.53,-0.28,-3.90,
1.027,-8.19,3.26,-1.34,1.46,-0.27,-3.79,
1.028,-8.19,3.26,-1.34,1.42,-0.28,-3.69,
1.028,-8.59,3.74,-1.64,1.42,-0.28,-3.69,
1.028,-8.59,3.74,-1.64,1.40,-0.30,-3.58,
1.028,-8.59,3.74,-1.64,1.41,-0.35,-3.50,
1.029,-8.82,3.96,-0.68,1.41,-0.35,-3.50,
1.029,-8.82,3.96,-0.68,1.43,-0.40,-3.42,
1.029,-8.40,3.87,0.47,1.43,-0.40,-3.42,
1.03,-8.40,3.87,0.47,1.45,-0.44,-3.35,
1.031,-8.40,3.87,0.47,1.47,-0.47,-3.27,
1.033,-8.84,3.84,0.39,1.47,-0.47,-3.27,
1.033,-8.84,3.84,0.39,1.50,-0.48,-3.18,
1.036,-8.84,3.84,0.39,1.54,-0.49,-3.09,
1.038,-8.84,3.84,0.39,1.58,-0.47,-2.99,
1.038,-9.23,3.86,0.79,1.58,-0.47,-2.99,
1.04,-9.23,3.86,0.79,1.62,-0.45,-2.89,
1.043,-9.23,3.86,0.79,1.65,-0.41,-2.78,
1.044,-9.67,4.38,0.28,1.65,-0.41,-2.78,
1.046,-9.67,4.38,0.28,1.65,-0.38,-2.67,
1.068,-9.89,4.87,-0.88,1.65,-0.38,-2.67,
1.068,-9.89,4.87,-0.88,1.64,-0.35,-2.56,
1.069,-9.89,4.87,-0.88,1.62,-0.34,-2.44,
1.069,-9.89,4.87,-0.88,1.61,-0.33,-2.32,
1.07,-10.35,5.12,-1.71,1.61,-0.33,-2.32,
1.07,-10.35,5.12,-1.71,1.60,-0.34,-2.20,
1.071,-10.34,5.51,-2.06,1.60,-0.34,-2.20,
1.072,-10.34,5.51,-2.06,1.59,-0.33,-2.08,
1.072,-10.34,5.51,-2.06,1.55,-0.23,-1.99,
1.073,-10.34,5.51,-2.06,1.47,-0.06,-1.92,
1.073,-10.33,5.83,-2.93,1.47,-0.06,-1.92,
1.073,-10.33,5.83,-2.93,1.41,0.02,-1.84,
1.074,-9.85,6.13,-3.79,1.41,0.02,-1.84,
1.074,-9.85,6.13,-3.79,1.35,0.02,-1.77,
1.074,-9.85,6.13,-3.79,1.29,-0.02,-1.73,
1.074,-9.85,6.13,-3.79,1.23,-0.10,-1.62,
1.075,-9.69,5.91,-4.30,1.23,-0.10,-1.62,
1.077,-9.69,5.91,-4.30,1.18,-0.21,-1.49,
1.079,-9.69,5.91,-4.30,1.15,-0.30,-1.31,
1.08,-10.18,6.90,-4.07,1.15,-0.30,-1.31,
1.08,-10.18,6.90,-4.07,1.12,-0.40,-1.12,
1.084,-10.60,7.49,-3.99,1.12,-0.40,-1.12,
1.085,-10.60,7.49,-3.99,1.08,-0.51,-0.91,
1.087,-10.60,7.49,-3.99,1.01,-0.60,-0.72,
1.088,-10.47,7.43,-5.06,1.01,-0.60,-0.72,
1.088,-10.47,7.43,-5.06,0.92,-0.66,-0.55,
1.091,-10.47,7.43,-5.06,0.81,-0.69,-0.41,
1.093,-10.47,7.43,-5.06,0.66,-0.71,-0.30,
1.094,-9.57,7.37,-6.38,0.66,-0.71,-0.30,
1.102,-9.57,7.37,-6.38,0.53,-0.73,-0.20,
1.103,-9.57,7.37,-6.38,0.40,-0.74,-0.10,
1.104,-8.64,7.52,-7.04,0.40,-0.74,-0.10,
1.104,-8.64,7.52,-7.04,0.28,-0.76,-0.00,
1.104,-8.64,7.52,-7.04,0.17,-0.78,0.09,
1.105,-8.11,7.43,-7.02,0.17,-0.78,0.09,
1.105,-8.11,7.43,-7.02,0.06,-0.80,0.19,
1.113,-7.57,7.39,-7.15,0.06,-0.80,0.19,
1.114,-7.57,7.39,-7.15,-0.04,-0.81,0.29,
1.114,-7.57,7.39,-7.15,-0.14,-0.81,0.37,
1.114,-7.57,7.39,-7.15,-0.25,-0.80,0.46,
1.115,-6.90,7.40,-7.58,-0.25,-0.80,0.46,
1.115,-6.90,7.40,-7.58,-0.35,-0.77,0.53,
1.122,-6.90,7.40,-7.58,-0.44,-0.73,0.60,
1.123,-5.96,7.08,-7.78,-0.44,-0.73,0.60,
1.123,-5.96,7.08,-7.78,-0.51,-0.67,0.65,
1.123,-5.96,7.08,-7.78,-0.56,-0.60,0.71,
1.124,-4.89,6.45,-7.28,-0.56,-0.60,0.71,
1.125,-4.89,6.45,-7.28,-0.59,-0.50,0.76,
1.127,-4.18,5.74,-6.26,-0.59,-0.50,0.76,
1.128,-4.18,5.74,-6.26,-0.60,-0.39,0.82,
1.132,-4.18,5.74,-6.26,-0.61,-0.27,0.87,
1.132,-4.18,5.74,-6.26,-0.61,-0.13,0.93,
1.132,-3.56,5.16,-5.54,-0.61,-0.13,0.93,
1.135,-3.56,5.16,-5.54,-0.60,0.01,0.97,
1.137,-3.56,5.16,-5.54,-0.60,0.15,1.01,
1.137,-2.63,4.52,-5.27,-0.60,0.15,1.01,
1.139,-2.63,4.52,-5.27,-0.61,0.28,1.03,
1.142,-2.63,4.52,-5.27,-0.62,0.40,1.04,
1.142,-1.62,3.78,-5.10,-0.62,0.40,1.04,
1.145,-1.62,3.78,-5.10,-0.63,0.50,1.04,
1.147,-1.62,3.78,-5.10,-0.65,0.59,1.04,
1.147,-0.68,2.96,-4.91,-0.65,0.59,1.04,
1.15,-0.68,2.96,-4.91,-0.68,0.68,1.02,
1.152,-0.68,2.96,-4.91,-0.71,0.77,1.00,
1.152,0.42,2.01,-4.88,-0.71,0.77,1.00,
1.155,0.42,2.01,-4.88,-0.76,0.86,0.97,
1.157,0.42,2.01,-4.88,-0.80,0.93,0.93,
1.157,1.56,1.12,-5.16,-0.80,0.93,0.93,
1.16,1.56,1.12,-5.16,-0.84,1.00,0.88,
1.163,2.33,0.79,-4.74,-0.84,1.00,0.88,
1.163,2.33,0.79,-4.74,-0.86,1.05,0.84,
1.164,2.33,0.79,-4.74,-0.86,1.12,0.79,
1.167,2.33,0.79,-4.74,-0.84,1.18,0.75,
1.167,2.66,0.18,-3.74,-0.84,1.18,0.75,
1.171,2.66,0.18,-3.74,-0.81,1.26,0.70,
1.172,2.66,0.18,-3.74,-0.79,1.35,0.66,
1.172,2.77,-0.51,-3.00,-0.79,1.35,0.66,
1.174,2.77,-0.51,-3.00,-0.75,1.46,0.61,
1.177,2.77,-0.51,-3.00,-0.71,1.58,0.55,
1.177,3.01,-1.01,-2.59,-0.71,1.58,0.55,
1.179,3.01,-1.01,-2.59,-0.67,1.77,0.49,
1.182,3.01,-1.01,-2.59,-0.69,2.10,0.37,
1.182,2.96,-1.65,-2.54,-0.69,2.10,0.37,
1.184,2.96,-1.65,-2.54,-0.68,2.36,0.23,
1.187,3.56,-2.10,-2.45,-0.68,2.36,0.23,
1.187,3.56,-2.10,-2.45,-0.64,2.52,0.13,
1.189,3.56,-2.10,-2.45,-0.56,2.59,0.08,
1.192,3.56,-2.10,-2.45,-0.47,2.61,0.08,
1.192,2.85,-1.47,-1.51,-0.47,2.61,0.08,
1.195,2.85,-1.47,-1.51,-0.39,2.58,0.12,
1.202,2.85,-1.47,-1.51,-0.30,2.55,0.17,
1.202,1.56,-0.70,-1.01,-0.30,2.55,0.17,
1.202,1.56,-0.70,-1.01,-0.23,2.51,0.22,
1.203,1.56,-0.70,-1.01,-0.20,2.45,0.26,
1.203,1.25,-0.86,-1.25,-0.20,2.45,0.26,
1.205,1.25,-0.86,-1.25,-0.21,2.40,0.28,
1.207,1.51,-1.42,-2.77,-0.21,2.40,0.28,
1.207,1.51,-1.42,-2.77,-0.25,2.37,0.29,
1.214,1.51,-1.42,-2.77,-0.29,2.37,0.30,
1.214,1.49,0.03,-2.25,-0.29,2.37,0.30,
1.224,1.49,0.03,-2.25,-0.32,2.35,0.29,
1.224,1.49,0.03,-2.25,-0.34,2.30,0.27,
1.224,1.49,0.03,-2.25,-0.36,2.21,0.26,
1.225,1.53,0.68,-1.33,-0.36,2.21,0.26,
1.225,1.53,0.68,-1.33,-0.37,2.09,0.24,
1.225,1.53,0.68,-1.33,-0.39,1.95,0.23,
1.225,1.21,0.34,-0.93,-0.39,1.95,0.23,
1.225,1.21,0.34,-0.93,-0.43,1.82,0.22,
1.227,1.21,0.34,-0.93,-0.49,1.72,0.21,
1.228,0.80,-0.63,-1.31,-0.49,1.72,0.21,
1.229,0.80,-0.63,-1.31,-0.57,1.66,0.20,
1.232,0.80,-0.63,-1.31,-0.66,1.62,0.19,
1.233,0.79,-0.67,-1.90,-0.66,1.62,0.19,
1.235,0.79,-0.67,-1.90,-0.75,1.60,0.18,
1.236,0.79,-0.67,-1.90,-0.83,1.57,0.16,
1.236,1.05,-0.16,-1.88,-0.83,1.57,0.16,
1.24,1.05,-0.16,-1.88,-0.88,1.53,0.15,
1.242,1.05,-0.16,-1.88,-0.91,1.49,0.14,
1.242,1.00,0.34,-0.80,-0.91,1.49,0.14,
1.245,1.00,0.34,-0.80,-0.93,1.46,0.14,
1.246,0.12,0.16,0.91,-0.93,1.46,0.14,
1.247,0.12,0.16,0.91,-0.90,1.39,0.15,
1.249,0.12,0.16,0.91,-0.91,1.31,0.15,
1.252,0.12,0.16,0.91,-0.93,1.20,0.15,
1.252,-0.63,-0.29,1.85,-0.93,1.20,0.15,
1.254,-0.63,-0.29,1.85,-0.99,1.08,0.16,
1.256,-0.63,-0.29,1.85,-1.09,0.95,0.16,
1.256,-1.29,0.01,1.07,-1.09,0.95,0.16,
1.259,-1.29,0.01,1.07,-1.24,0.79,0.17,
1.262,-1.89,0.63,-0.38,-1.24,0.79,0.17,
1.262,-1.89,0.63,-0.38,-1.43,0.55,0.18,
1.264,-1.89,0.63,-0.38,-1.70,0.26,0.21,
1.266,-1.89,0.63,-0.38,-1.99,-0.09,0.24,
1.266,-3.09,1.74,-2.76,-1.99,-0.09,0.24,
1.269,-3.09,1.74,-2.76,-2.27,-0.39,0.27,
1.271,-3.09,1.74,-2.76,-2.48,-0.58,0.31,
1.271,-4.73,3.44,-3.19,-2.48,-0.58,0.31,
1.274,-4.73,3.44,-3.19,-2.56,-0.78,0.35,
1.278,-5.08,0.41,1.66,-2.56,-0.78,0.35,
1.278,-5.08,0.41,1.66,-2.56,-1.00,0.42,
1.28,-5.08,0.41,1.66,-2.49,-1.12,0.51,
1.281,-5.08,0.41,1.66,-2.29,-1.22,0.57,
1.281,-4.91,-1.44,6.11,-2.29,-1.22,0.57,
1.284,-4.91,-1.44,6.11,-2.05,-1.24,0.59,
1.286,-4.91,-1.44,6.11,-1.84,-1.13,0.60,
1.286,-3.09,-2.88,9.28,-1.84,-1.13,0.60,
1.288,-3.09,-2.88,9.28,-1.62,-0.91,0.62,
1.291,-3.09,-2.88,9.28,-1.37,-0.64,0.67,
1.291,-2.86,-2.04,8.65,-1.37,-0.64,0.67,
1.298,-2.86,-2.04,8.65,-1.07,-0.37,0.71,
1.299,-2.86,-2.04,8.65,-0.77,-0.11,0.71,
1.299,-2.40,-2.81,9.70,-0.77,-0.11,0.71,
1.304,-2.40,-2.81,9.70,-0.48,0.14,0.69,
1.305,-2.40,-2.81,9.70,-0.22,0.38,0.66,
1.305,-2.40,-2.81,9.70,0.02,0.60,0.61,
1.305,-0.46,-3.84,8.90,0.02,0.60,0.61,
1.307,0.87,-3.99,7.08,0.02,0.60,0.61,
1.307,0.87,-3.99,7.08,0.23,0.79,0.54,
1.314,0.87,-3.99,7.08,0.39,0.95,0.47,
1.314,1.86,-3.98,4.21,0.39,0.95,0.47,
1.314,1.86,-3.98,4.21,0.50,1.08,0.39,
1.314,1.86,-3.98,4.21,0.55,1.19,0.33,
1.316,1.86,-3.98,4.21,0.56,1.25,0.25,
1.316,2.46,-4.02,0.91,0.56,1.25,0.25,
1.318,2.46,-4.02,0.91,0.51,1.28,0.15,
1.321,2.46,-4.02,0.91,0.41,1.29,0.04,
1.321,4.16,-4.66,-2.23,0.41,1.29,0.04,
1.323,4.16,-4.66,-2.23,0.28,1.28,-0.06,
1.326,4.16,-4.66,-2.23,0.15,1.25,-0.13,
1.326,2.20,-3.63,-3.77,0.15,1.25,-0.13,
1.329,2.20,-3.63,-3.77,0.04,1.17,-0.17,
1.33,2.20,-3.63,-3.77,-0.07,1.16,-0.20,
1.331,0.82,-1.85,-2.76,-0.07,1.16,-0.20,
1.333,0.82,-1.85,-2.76,-0.23,1.34,-0.28,
1.335,0.82,-1.85,-2.76,-0.33,1.38,-0.35,
1.336,0.27,-2.73,-2.80,-0.33,1.38,-0.35,
1.338,0.27,-2.73,-2.80,-0.39,1.25,-0.41,
1.34,0.27,-2.73,-2.80,-0.42,1.05,-0.47,
1.341,1.84,-3.78,-2.00,-0.42,1.05,-0.47,
1.344,1.84,-3.78,-2.00,-0.44,0.86,-0.47,
1.346,0.92,-2.32,-1.63,-0.44,0.86,-0.47,
1.346,0.92,-2.32,-1.63,-0.46,0.67,-0.45,
1.348,0.92,-2.32,-1.63,-0.51,0.54,-0.40,
1.35,0.92,-2.32,-1.63,-0.58,0.47,-0.33,
1.351,-0.10,0.67,-1.28,-0.58,0.47,-0.33,
1.353,-0.10,0.67,-1.28,-0.63,0.44,-0.26,
1.356,-0.10,0.67,-1.28,-0.66,0.40,-0.19,
1.356,-0.30,1.59,-0.53,-0.66,0.40,-0.19,
1.358,-0.30,1.59,-0.53,-0.67,0.33,-0.15,
1.361,-0.30,1.59,-0.53,-0.65,0.25,-0.11,
1.362,0.51,0.57,0.08,-0.65,0.25,-0.11,
1.364,0.51,0.57,0.08,-0.63,0.04,-0.11,
1.366,0.51,0.57,0.08,-0.61,-0.17,-0.14,
1.366,2.19,-2.07,0.96,-0.61,-0.17,-0.14,
1.368,2.19,-2.07,0.96,-0.59,-0.24,-0.17,
1.37,2.19,-2.07,0.96,-0.58,-0.20,-0.18,
1.371,0.89,-1.82,-0.02,-0.58,-0.20,-0.18,
1.374,0.89,-1.82,-0.02,-0.60,-0.09,-0.18,
1.375,-0.97,0.44,-0.87,-0.60,-0.09,-0.18,
1.376,-0.97,0.44,-0.87,-0.63,0.01,-0.17,
1.398,-0.97,0.44,-0.87,-0.65,0.04,-0.16,
1.398,-0.97,0.44,-0.87,-0.64,-0.00,-0.13,
1.399,0.52,0.84,0.43,-0.64,-0.00,-0.13,
1.399,0.52,0.84,0.43,-0.61,-0.08,-0.09,
1.399,0.52,0.84,0.43,-0.56,-0.16,-0.05,
1.4,0.63,0.17,0.98,-0.56,-0.16,-0.05,
1.4,0.63,0.17,0.98,-0.53,-0.23,-0.03,
1.4,0.63,0.17,0.98,-0.51,-0.27,-0.02,
1.4,0.34,-0.85,0.61,-0.51,-0.27,-0.02,
1.4,0.34,-0.85,0.61,-0.51,-0.30,-0.03,
1.401,0.34,-0.85,0.61,-0.51,-0.31,-0.05,
1.401,0.43,-1.29,0.31,-0.51,-0.31,-0.05,
1.401,0.43,-1.29,0.31,-0.50,-0.30,-0.06,
1.401,0.24,-1.15,-0.14,-0.50,-0.30,-0.06,
1.402,0.24,-1.15,-0.14,-0.49,-0.26,-0.07,
1.403,0.24,-1.15,-0.14,-0.48,-0.21,-0.07,
1.405,-0.30,-1.07,-0.12,-0.48,-0.21,-0.07,
1.405,-0.30,-1.07,-0.12,-0.45,-0.13,-0.08,
1.407,-0.30,-1.07,-0.12,-0.43,-0.05,-0.07,
1.41,-0.87,-0.96,0.22,-0.43,-0.05,-0.07,
1.412,-0.87,-0.96,0.22,-0.39,0.03,-0.06,
1.413,-0.87,-0.96,0.22,-0.36,0.12,-0.06,
1.415,-0.87,-0.96,0.22,-0.32,0.20,-0.07,
1.415,-0.93,-1.17,0.42,-0.32,0.20,-0.07,
1.417,-0.93,-1.17,0.42,-0.28,0.27,-0.07,
1.42,-0.93,-1.17,0.42,-0.24,0.34,-0.06,
1.42,-0.79,-1.02,0.49,-0.24,0.34,-0.06,
1.422,-0.79,-1.02,0.49,-0.21,0.40,-0.06,
1.425,-0.79,-1.02,0.49,-0.20,0.49,-0.05,
1.425,-0.75,-0.97,0.11,-0.20,0.49,-0.05,
1.431,-0.75,-0.97,0.11,-0.22,0.65,-0.05,
1.431,-0.75,-0.97,0.11,-0.26,0.82,-0.06,
1.431,-1.22,-1.39,-0.73,-0.26,0.82,-0.06,
1.432,-1.22,-1.39,-0.73,-0.28,0.93,-0.04,
1.438,-1.22,-1.39,-0.73,-0.29,0.99,-0.00,
1.439,-1.47,-0.93,-0.76,-0.29,0.99,-0.00,
1.439,-1.47,-0.93,-0.76,-0.29,1.03,0.08,
1.44,-1.47,-0.93,-0.76,-0.27,1.06,0.17,
1.441,-2.59,-0.54,-0.42,-0.27,1.06,0.17,
1.444,-2.59,-0.54,-0.42,-0.24,1.08,0.28,
1.445,-2.59,-0.54,-0.42,-0.19,1.09,0.39,
1.445,-3.44,-0.45,0.33,-0.19,1.09,0.39,
1.45,-3.44,-0.45,0.33,-0.14,1.10,0.50,
1.45,-3.99,-0.82,0.83,-0.14,1.10,0.50,
1.45,-3.99,-0.82,0.83,-0.08,1.09,0.61,
1.452,-3.99,-0.82,0.83,-0.01,1.05,0.72,
1.455,-3.99,-0.82,0.83,0.06,1.00,0.85,
1.456,-4.53,-1.18,0.84,0.06,1.00,0.85,
1.458,-4.53,-1.18,0.84,0.14,0.94,0.96,
1.46,-4.53,-1.18,0.84,0.21,0.87,1.05,
1.461,-4.25,-1.01,0.33,0.21,0.87,1.05,
1.462,-4.25,-1.01,0.33,0.27,0.78,1.08,
1.465,-4.25,-1.01,0.33,0.34,0.69,1.08,
1.465,-2.30,-1.54,-0.05,0.34,0.69,1.08,
1.467,-2.30,-1.54,-0.05,0.40,0.57,1.10,
1.47,-3.04,-1.48,-0.25,0.40,0.57,1.10,
1.47,-3.04,-1.48,-0.25,0.45,0.46,1.16,
1.472,-3.04,-1.48,-0.25,0.49,0.35,1.24,
1.474,-3.04,-1.48,-0.25,0.53,0.26,1.32,
1.475,-4.11,-0.90,-0.69,0.53,0.26,1.32,
1.478,-4.11,-0.90,-0.69,0.55,0.16,1.39,
1.48,-4.11,-0.90,-0.69,0.54,0.11,1.49,
1.481,-4.37,0.04,-1.17,0.54,0.11,1.49,
1.482,-4.37,0.04,-1.17,0.54,0.07,1.62,
1.484,-4.37,0.04,-1.17,0.52,0.06,1.66,
1.485,-5.92,0.61,-1.50,0.52,0.06,1.66,
1.487,-5.92,0.61,-1.50,0.49,0.08,1.50,
1.489,1.30,-1.54,-1.27,0.49,0.08,1.50,
1.49,1.30,-1.54,-1.27,0.54,0.02,1.35,
1.492,1.30,-1.54,-1.27,0.62,-0.07,1.44,
1.5,1.30,-1.54,-1.27,0.68,-0.16,1.65,
1.5,-6.82,-1.12,1.38,0.68,-0.16,1.65,
1.5,-6.82,-1.12,1.38,0.75,-0.23,1.86,
1.501,-6.82,-1.12,1.38,0.79,-0.28,2.03,
1.501,-7.48,1.35,1.45,0.79,-0.28,2.03,
1.502,-7.48,1.35,1.45,0.82,-0.32,2.14,
1.504,-7.48,1.35,1.45,0.83,-0.34,2.21,
1.505,-5.97,1.70,1.43,0.83,-0.34,2.21,
1.507,-5.97,1.70,1.43,0.83,-0.34,2.27,
1.51,-5.97,1.70,1.43,0.81,-0.37,2.33,
1.512,-5.64,1.23,0.68,0.81,-0.37,2.33,
1.513,-5.64,1.23,0.68,0.79,-0.44,2.38,
1.519,-4.92,1.84,0.45,0.79,-0.44,2.38,
1.519,-4.92,1.84,0.45,0.78,-0.54,2.42,
1.519,-4.92,1.84,0.45,0.78,-0.67,2.42,
1.52,-4.92,1.84,0.45,0.78,-0.81,2.41,
1.52,-3.32,1.72,1.18,0.78,-0.81,2.41,
1.521,-3.32,1.72,1.18,0.80,-0.94,2.36,
1.524,-3.32,1.72,1.18,0.77,-1.06,2.26,
1.524,-1.78,0.10,1.43,0.77,-1.06,2.26,
1.527,-1.78,0.10,1.43,0.70,-1.17,2.16,
1.529,0.41,-0.35,0.24,0.70,-1.17,2.16,
1.53,0.41,-0.35,0.24,0.61,-1.25,2.04,
1.531,0.41,-0.35,0.24,0.51,-1.33,1.92,
1.534,0.41,-0.35,0.24,0.39,-1.38,1.79,
1.534,1.83,-0.11,-0.64,0.39,-1.38,1.79,
1.536,1.83,-0.11,-0.64,0.27,-1.45,1.68,
1.539,2.77,0.30,-1.12,0.27,-1.45,1.68,
1.539,2.77,0.30,-1.12,0.15,-1.51,1.58,
1.541,2.77,0.30,-1.12,0.05,-1.55,1.49,
1.563,3.09,0.76,-1.27,0.05,-1.55,1.49,
1.564,3.09,0.76,-1.27,-0.05,-1.58,1.40,
1.564,3.09,0.76,-1.27,-0.13,-1.59,1.33,
1.564,3.09,0.76,-1.27,-0.18,-1.58,1.27,
1.564,3.17,1.38,-1.10,-0.18,-1.58,1.27,
1.565,3.17,1.38,-1.10,-0.21,-1.53,1.23,
1.565,3.17,1.89,-0.75,-0.21,-1.53,1.23,
1.565,3.17,1.89,-0.75,-0.22,-1.46,1.19,
1.565,3.17,1.89,-0.75,-0.23,-1.36,1.16,
1.566,3.29,2.14,-0.83,-0.23,-1.36,1.16,
1.566,3.29,2.14,-0.83,-0.22,-1.23,1.14,
1.566,3.29,2.14,-0.83,-0.19,-1.08,1.12,
1.566,3.40,2.47,-0.78,-0.19,-1.08,1.12,
1.567,3.40,2.47,-0.78,-0.15,-0.92,1.12,
1.567,3.40,2.47,-0.78,-0.11,-0.75,1.11,
1.569,3.71,2.64,-0.69,-0.11,-0.75,1.11,
1.569,3.71,2.64,-0.69,-0.06,-0.56,1.10,
1.571,3.71,2.64,-0.69,-0.01,-0.40,1.09,
1.574,4.07,2.69,-0.73,-0.01,-0.40,1.09,
1.575,4.07,2.69,-0.73,0.03,-0.24,1.08,
1.577,4.07,2.69,-0.73,0.08,-0.09,1.05,
1.588,4.67,2.78,-0.95,0.08,-0.09,1.05,
1.589,4.67,2.78,-0.95,0.11,0.03,1.02,
1.589,4.67,2.78,-0.95,0.13,0.14,0.99,
1.59,4.67,2.78,-0.95,0.14,0.24,0.94,
1.59,5.28,2.95,-1.58,0.14,0.24,0.94,
1.59,5.28,2.95,-1.58,0.14,0.32,0.88,
1.59,5.83,3.02,-2.29,0.14,0.32,0.88,
1.59,5.83,3.02,-2.29,0.11,0.38,0.82,
1.593,5.83,3.02,-2.29,0.05,0.43,0.76,
1.606,5.83,3.02,-2.29,-0.03,0.47,0.70,
1.607,5.97,3.05,-3.19,-0.03,0.47,0.70,
1.607,5.97,3.05,-3.19,-0.12,0.51,0.63,
1.607,5.97,3.05,-3.19,-0.22,0.53,0.56,
1.607,6.13,3.08,-3.50,-0.22,0.53,0.56,
1.607,6.13,3.08,-3.50,-0.31,0.54,0.51,
1.608,6.13,3.08,-3.50,-0.41,0.53,0.44,
1.608,5.87,3.25,-3.13,-0.41,0.53,0.44,
1.608,5.87,3.25,-3.13,-0.49,0.51,0.37,
1.608,5.87,3.25,-3.13,-0.59,0.47,0.32,
1.608,6.09,3.14,-2.79,-0.59,0.47,0.32,
1.612,6.09,3.14,-2.79,-0.67,0.43,0.26,
1.614,6.09,3.14,-2.79,-0.75,0.39,0.20,
1.614,6.01,3.30,-2.21,-0.75,0.39,0.20,
1.616,6.01,3.30,-2.21,-0.82,0.36,0.13,
1.618,6.01,3.30,-2.21,-0.90,0.33,0.06,
1.618,6.33,3.28,-1.96,-0.90,0.33,0.06,
1.62,6.33,3.28,-1.96,-0.97,0.30,-0.02,
1.623,6.58,3.24,-1.86,-0.97,0.30,-0.02,
1.623,6.58,3.24,-1.86,-1.05,0.28,-0.09,
1.625,6.58,3.24,-1.86,-1.12,0.26,-0.16,
1.629,6.76,3.17,-1.94,-1.12,0.26,-0.16,
1.629,6.76,3.17,-1.94,-1.20,0.25,-0.23,
1.631,6.76,3.17,-1.94,-1.29,0.26,-0.30,
1.633,6.76,3.17,-1.94,-1.37,0.30,-0.36,
1.633,6.75,3.01,-2.29,-1.37,0.30,-0.36,
1.635,6.75,3.01,-2.29,-1.46,0.35,-0.42,
1.638,6.75,3.01,-2.29,-1.54,0.37,-0.49,
1.638,7.02,2.76,-2.50,-1.54,0.37,-0.49,
1.64,7.02,2.76,-2.50,-1.62,0.39,-0.58,
1.643,7.02,2.76,-2.50,-1.70,0.40,-0.68,
1.643,7.65,2.62,-2.75,-1.70,0.40,-0.68,
1.646,7.65,2.62,-2.75,-1.80,0.43,-0.78,
1.648,7.45,1.75,-3.30,-1.80,0.43,-0.78,
1.648,7.45,1.75,-3.30,-1.92,0.51,-0.87,
1.65,7.45,1.75,-3.30,-2.03,0.58,-0.96,
1.653,7.45,1.75,-3.30,-2.14,0.58,-1.06,
1.653,7.16,0.88,-3.44,-2.14,0.58,-1.06,
1.656,7.16,0.88,-3.44,-2.24,0.55,-1.19,
1.658,7.24,0.22,-3.24,-2.24,0.55,-1.19,
1.658,7.24,0.22,-3.24,-2.34,0.48,-1.32,
1.661,7.24,0.22,-3.24,-2.44,0.39,-1.47,
1.664,7.24,0.22,-3.24,-2.55,0.27,-1.61,
1.664,6.88,-0.66,-3.09,-2.55,0.27,-1.61,
1.666,6.88,-0.66,-3.09,-2.66,0.17,-1.75,
1.668,6.16,-1.00,-2.95,-2.66,0.17,-1.75,
1.668,6.16,-1.00,-2.95,-2.79,0.09,-1.87,
1.671,6.16,-1.00,-2.95,-2.91,0.01,-1.97,
1.673,4.79,-2.16,-2.62,-2.91,0.01,-1.97,
1.674,4.79,-2.16,-2.62,-3.03,-0.05,-2.05,
1.676,4.79,-2.16,-2.62,-3.12,-0.10,-2.09,
1.679,4.79,-2.16,-2.62,-3.21,-0.14,-2.11,
1.681,2.85,-3.29,-1.63,-3.21,-0.14,-2.11,
1.682,2.85,-3.29,-1.63,-3.29,-0.16,-2.10,
1.685,2.85,-3.29,-1.63,-3.36,-0.16,-2.09,
1.686,1.30,-4.07,-0.93,-3.36,-0.16,-2.09,
1.686,1.30,-4.07,-0.93,-3.42,-0.17,-2.05,
1.688,1.30,-4.07,-0.93,-3.46,-0.17,-1.99,
1.688,-0.48,-4.46,0.25,-3.46,-0.17,-1.99,
1.69,-0.48,-4.46,0.25,-3.50,-0.17,-1.92,
1.693,-0.48,-4.46,0.25,-3.50,-0.16,-1.85,
1.694,-1.87,-4.33,1.69,-3.50,-0.16,-1.85,
1.7,-1.87,-4.33,1.69,-3.50,-0.06,-1.82,
1.701,-1.87,-4.33,1.69,-3.47,0.03,-1.83,
1.701,-0.96,-2.15,3.26,-3.47,0.03,-1.83,
1.702,-0.96,-2.15,3.26,-3.40,0.08,-1.86,
1.703,-0.19,0.62,4.91,-3.40,0.08,-1.86,
1.704,-0.19,0.62,4.91,-3.31,0.17,-1.91,
1.706,-0.19,0.62,4.91,-3.21,0.26,-1.96,
1.708,-0.19,0.62,4.91,-3.08,0.33,-2.02,
1.725,-0.46,1.61,5.74,-3.08,0.33,-2.02,
1.725,-0.46,1.61,5.74,-2.94,0.41,-2.07,
1.726,-0.46,1.61,5.74,-2.78,0.48,-2.13,
1.726,-0.46,1.61,5.74,-2.62,0.55,-2.20,
1.726,-0.72,1.99,6.25,-2.62,0.55,-2.20,
1.726,-0.33,1.85,6.41,-2.62,0.55,-2.20,
1.726,-0.33,1.85,6.41,-2.43,0.64,-2.27,
1.726,-0.33,1.85,6.41,-2.24,0.73,-2.36,
1.727,-0.33,1.85,6.41,-2.03,0.82,-2.45,
1.727,0.00,1.11,6.44,-2.03,0.82,-2.45,
1.727,0.00,1.11,6.44,-1.81,0.93,-2.55,
1.737,-0.08,0.05,6.50,-1.81,0.93,-2.55,
1.737,-0.08,0.05,6.50,-1.57,1.03,-2.65,
1.738,-0.08,0.05,6.50,-1.28,1.10,-2.73,
1.738,-0.08,0.05,6.50,-0.95,1.10,-2.75,
1.738,-2.20,-1.04,7.51,-0.95,1.10,-2.75,
1.738,-2.20,-1.04,7.51,-0.61,1.11,-2.73,
1.738,-2.20,-1.04,7.51,-0.27,1.15,-2.76,
1.739,-4.34,-2.09,8.53,-0.27,1.15,-2.76,
1.744,-3.62,-2.55,6.32,-0.27,1.15,-2.76,
1.744,-3.62,-2.55,6.32,0.02,1.19,-2.84,
1.744,-3.62,-2.55,6.32,0.26,1.26,-2.97,
1.745,-3.62,-2.55,6.32,0.47,1.36,-3.10,
1.748,-3.38,-2.79,4.15,0.47,1.36,-3.10,
1.748,-3.38,-2.79,4.15,0.68,1.45,-3.22,
1.75,-3.38,-2.79,4.15,0.92,1.49,-3.30,
1.752,-3.38,-2.79,4.15,1.21,1.48,-3.32,
1.752,-5.36,-3.27,4.95,1.21,1.48,-3.32,
1.754,-5.36,-3.27,4.95,1.54,1.46,-3.24,
1.757,-5.36,-3.27,4.95,1.88,1.48,-3.15,
1.757,-9.48,-3.34,6.31,1.88,1.48,-3.15,
1.759,-9.48,-3.34,6.31,2.19,1.60,-3.08,
1.762,-9.48,-3.34,6.31,2.42,1.88,-3.08,
1.762,-6.23,-2.53,2.69,2.42,1.88,-3.08,
1.764,-6.23,-2.53,2.69,2.59,2.28,-3.10,
1.767,-6.23,-2.53,2.69,2.73,2.72,-3.12,
1.767,-2.12,-0.96,-2.44,2.73,2.72,-3.12,
1.769,-2.12,-0.96,-2.44,2.87,3.19,-3.13,
1.771,-2.12,-0.96,-2.44,2.99,3.69,-3.13,
1.772,-1.34,-0.44,-4.39,2.99,3.69,-3.13,
1.774,-1.34,-0.44,-4.39,3.09,4.26,-3.13,
1.777,-1.34,-0.44,-4.39,3.17,4.80,-3.13,
1.778,0.37,0.23,-6.86,3.17,4.80,-3.13,
1.781,0.37,0.23,-6.86,3.24,5.22,-3.10,
1.782,0.37,0.23,-6.86,3.29,5.42,-3.06,
1.782,1.50,0.70,-7.14,3.29,5.42,-3.06,
1.785,1.50,0.70,-7.14,3.33,5.36,-2.98,
1.787,1.50,0.70,-7.14,3.23,4.88,-2.87,
1.787,1.85,0.74,-7.03,3.23,4.88,-2.87,
1.79,1.85,0.74,-7.03,3.03,4.07,-2.72,
1.791,1.85,0.74,-7.03,2.87,3.27,-2.57,
1.792,1.61,0.45,-9.07,2.87,3.27,-2.57,
1.799,1.61,0.45,-9.07,2.74,2.52,-2.42,
1.8,1.61,0.45,-9.07,2.63,1.75,-2.27,
1.8,1.89,0.68,-6.12,2.63,1.75,-2.27,
1.8,1.89,0.68,-6.12,2.58,0.93,-2.09,
1.802,0.31,0.33,-2.35,2.58,0.93,-2.09,
1.802,0.31,0.33,-2.35,2.55,0.05,-1.88,
1.804,0.31,0.33,-2.35,2.56,-0.82,-1.65,
1.808,0.31,0.33,-2.35,2.56,-1.60,-1.40,
1.808,-2.14,-0.33,0.68,2.56,-1.60,-1.40,
1.809,-2.14,-0.33,0.68,2.56,-2.26,-1.15,
1.816,-2.14,-0.33,0.68,2.51,-2.74,-0.96,
1.817,-2.85,-0.83,-0.13,2.51,-2.74,-0.96,
1.817,-2.85,-0.83,-0.13,2.40,-3.01,-0.85,
1.817,-2.85,-0.83,-0.13,2.28,-3.17,-0.78,
1.818,0.75,-0.22,-4.69,2.28,-3.17,-0.78,
1.819,0.75,-0.22,-4.69,2.26,-3.41,-0.67,
1.821,0.75,-0.22,-4.69,2.26,-3.62,-0.58,
1.822,-0.56,-0.83,-2.06,2.26,-3.62,-0.58,
1.824,-0.56,-0.83,-2.06,2.18,-3.62,-0.55,
1.826,-0.56,-0.83,-2.06,2.11,-3.54,-0.55,
1.826,1.52,-0.85,-5.47,2.11,-3.54,-0.55,
1.829,1.52,-0.85,-5.47,2.10,-3.58,-0.56,
1.832,1.52,-0.85,-5.47,2.14,-3.72,-0.55,
1.833,1.55,-0.78,-2.13,2.14,-3.72,-0.55,
1.834,1.55,-0.78,-2.13,2.17,-3.90,-0.55,
1.836,1.55,-0.78,-2.13,2.10,-4.10,-0.57,
1.836,0.65,-1.28,-1.21,2.10,-4.10,-0.57,
1.838,0.65,-1.28,-1.21,1.96,-4.34,-0.62,
1.841,0.65,-1.28,-1.21,1.79,-4.62,-0.69,
1.841,1.44,-1.64,-2.30,1.79,-4.62,-0.69,
1.844,1.44,-1.64,-2.30,1.61,-4.87,-0.76,
1.847,1.52,-1.38,-2.16,1.61,-4.87,-0.76,
1.847,1.52,-1.38,-2.16,1.50,-5.04,-0.81,
1.848,1.52,-1.38,-2.16,1.46,-5.10,-0.83,
1.851,1.52,-1.38,-2.16,1.43,-5.07,-0.84,
1.851,1.70,0.00,-1.11,1.43,-5.07,-0.84,
1.854,1.70,0.00,-1.11,1.40,-5.08,-0.86,
1.856,1.70,0.00,-1.11,1.36,-5.12,-0.90,
1.856,1.73,0.43,0.21,1.36,-5.12,-0.90,
1.858,1.73,0.43,0.21,1.31,-5.14,-0.93,
1.861,1.73,0.43,0.21,1.23,-5.10,-0.96,
1.862,1.22,0.45,0.62,1.23,-5.10,-0.96,
1.864,1.22,0.45,0.62,1.13,-4.98,-0.99,
1.866,1.22,0.45,0.62,1.05,-4.84,-1.03,
1.867,0.84,0.27,-0.31,1.05,-4.84,-1.03,
1.869,0.84,0.27,-0.31,1.01,-4.65,-1.05,
1.871,0.84,0.27,-0.31,0.99,-4.31,-1.04,
1.871,0.66,-1.13,1.69,0.99,-4.31,-1.04,
1.895,0.66,-1.13,1.69,0.98,-3.87,-1.02,
1.896,0.65,-1.70,1.47,0.98,-3.87,-1.02,
1.896,0.65,-1.70,1.47,0.95,-3.46,-0.99,
1.896,0.65,-1.70,1.47,0.91,-3.07,-0.98,
1.896,0.57,-1.37,2.01,0.91,-3.07,-0.98,
1.897,0.57,-1.37,2.01,0.87,-2.67,-0.95,
1.897,0.57,-1.37,2.01,0.83,-2.29,-0.92,
1.897,-0.30,-0.69,2.13,0.83,-2.29,-0.92,
1.897,-0.30,-0.69,2.13,0.79,-1.93,-0.87,
1.898,-0.30,-0.69,2.13,0.75,-1.59,-0.82,
1.898,-0.30,-0.69,2.13,0.70,-1.26,-0.79,
1.898,-0.48,-0.78,2.79,0.70,-1.26,-0.79,
1.898,-0.48,-0.78,2.79,0.64,-0.93,-0.78,
1.898,0.37,-1.15,2.16,0.64,-0.93,-0.78,
1.899,0.37,-1.15,2.16,0.55,-0.62,-0.81,
1.899,0.37,-1.15,2.16,0.45,-0.38,-0.88,
1.902,1.92,-1.91,2.24,0.45,-0.38,-0.88,
1.902,1.92,-1.91,2.24,0.35,-0.19,-1.00,
1.903,1.92,-1.91,2.24,0.23,-0.06,-1.17,
1.905,1.92,-1.91,2.24,0.10,0.03,-1.36,
1.906,3.60,-2.88,2.12,0.10,0.03,-1.36,
1.908,3.60,-2.88,2.12,-0.04,0.11,-1.55,
1.91,3.13,-3.92,1.33,-0.04,0.11,-1.55,
1.911,3.13,-3.92,1.33,-0.18,0.16,-1.73,
1.914,3.13,-3.92,1.33,-0.30,0.12,-1.89,
1.916,1.35,-4.97,1.64,-0.30,0.12,-1.89,
1.916,1.35,-4.97,1.64,-0.43,0.03,-2.04,
1.918,1.35,-4.97,1.64,-0.59,-0.07,-2.20,
1.921,1.35,-4.97,1.64,-0.76,-0.17,-2.37,
1.921,0.82,-5.86,0.83,-0.76,-0.17,-2.37,
1.923,0.82,-5.86,0.83,-0.92,-0.26,-2.54,
1.926,0.82,-5.86,0.83,-1.05,-0.34,-2.73,
1.926,0.89,-6.38,0.73,-1.05,-0.34,-2.73,
1.935,0.89,-6.38,0.73,-1.18,-0.44,-2.90,
1.935,0.89,-6.38,0.73,-1.29,-0.52,-3.08,
1.936,0.33,-6.52,1.04,-1.29,-0.52,-3.08,
1.936,0.33,-6.52,1.04,-1.38,-0.56,-3.25,
1.936,0.33,-6.52,1.04,-1.48,-0.58,-3.42,
1.937,-0.51,-6.28,1.22,-1.48,-0.58,-3.42,
1.938,-0.51,-6.28,1.22,-1.58,-0.58,-3.56,
1.941,-1.86,-4.63,0.97,-1.58,-0.58,-3.56,
1.941,-1.86,-4.63,0.97,-1.69,-0.57,-3.67,
1.944,-1.86,-4.63,0.97,-1.80,-0.54,-3.73,
1.945,-3.64,-1.67,0.75,-1.80,-0.54,-3.73,
1.946,-3.64,-1.67,0.75,-1.90,-0.48,-3.75,
1.948,-3.64,-1.67,0.75,-2.00,-0.40,-3.77,
1.95,-4.41,0.32,0.54,-2.00,-0.40,-3.77,
1.95,-4.41,0.32,0.54,-2.08,-0.29,-3.78,
1.954,-4.41,0.32,0.54,-2.14,-0.15,-3.79,
1.956,-4.39,0.89,0.31,-2.14,-0.15,-3.79,
1.956,-4.39,0.89,0.31,-2.18,0.03,-3.78,
1.958,-4.39,0.89,0.31,-2.20,0.21,-3.77,
1.96,-4.39,0.89,0.31,-2.21,0.35,-3.77,
1.96,-3.96,0.51,0.16,-2.21,0.35,-3.77,
1.964,-3.96,0.51,0.16,-2.21,0.47,-3.76,
1.965,-2.84,-0.18,0.02,-2.21,0.47,-3.76,
1.965,-2.84,-0.18,0.02,-2.21,0.59,-3.76,
1.968,-2.84,-0.18,0.02,-2.19,0.68,-3.74,
1.97,-2.84,-0.18,0.02,-2.16,0.76,-3.71,
1.97,-2.11,-0.64,-0.16,-2.16,0.76,-3.71,
1.973,-2.11,-0.64,-0.16,-2.11,0.82,-3.66,
1.976,-2.11,-0.64,-0.16,-2.05,0.86,-3.61,
1.976,-1.42,-0.67,-0.40,-2.05,0.86,-3.61,
1.98,-1.42,-0.67,-0.40,-1.98,0.91,-3.55,
1.981,-1.42,-0.67,-0.40,-1.90,0.95,-3.50,
1.982,-0.63,-0.70,-0.52,-1.90,0.95,-3.50,
1.984,-0.63,-0.70,-0.52,-1.84,0.98,-3.44,
1.985,-0.49,-0.69,-0.82,-1.84,0.98,-3.44,
1.986,-0.49,-0.69,-0.82,-1.77,0.99,-3.38,
1.988,-0.49,-0.69,-0.82,-1.69,0.98,-3.33,
1.99,-0.56,-0.64,-0.49,-1.69,0.98,-3.33,
1.99,-0.56,-0.64,-0.49,-1.61,0.94,-3.29,
1.993,-0.56,-0.64,-0.49,-1.53,0.89,-3.29,
1.998,-0.44,-0.69,-0.29,-1.53,0.89,-3.29,
1.998,-0.44,-0.69,-0.29,-1.44,0.80,-3.31,
1.999,-0.44,-0.69,-0.29,-1.35,0.70,-3.36,
2.006,-0.53,-0.96,-0.09,-1.35,0.70,-3.36,
2.006,-0.53,-0.96,-0.09,-1.27,0.58,-3.44,
2.006,-0.79,-1.49,-0.21,-1.27,0.58,-3.44,
2.008,-0.79,-1.49,-0.21,-1.20,0.45,-3.54,
2.008,-0.79,-1.49,-0.21,-1.13,0.33,-3.68,
2.008,-0.79,-1.49,-0.21,-1.07,0.20,-3.84,
2.011,-0.73,-1.88,-0.32,-1.07,0.20,-3.84,
2.027,-0.73,-1.88,-0.32,-1.00,0.10,-4.02,
2.028,-0.73,-1.88,-0.32,-0.94,0.02,-4.21,
2.028,-0.75,-2.55,-0.34,-0.94,0.02,-4.21,
2.028,-0.75,-2.55,-0.34,-0.86,-0.02,-4.41,
2.029,-0.75,-2.55,-0.34,-0.77,-0.04,-4.63,
2.029,-0.35,-3.07,-0.35,-0.77,-0.04,-4.63,
2.029,-0.35,-3.07,-0.35,-0.67,-0.04,-4.85,
2.03,-0.35,-3.07,-0.35,-0.57,-0.01,-5.07,
2.03,-0.07,-3.30,-0.46,-0.57,-0.01,-5.07,
2.031,-0.07,-3.30,-0.46,-0.46,0.04,-5.29,
2.031,-0.07,-3.30,-0.46,-0.36,0.11,-5.50,
2.032,-0.07,-3.30,-0.46,-0.26,0.17,-5.71,
2.032,-0.01,-3.33,-0.54,-0.26,0.17,-5.71,
2.033,-0.01,-3.33,-0.54,-0.17,0.23,-5.91,
2.035,-0.01,-3.33,-0.54,-0.10,0.29,-6.11,
2.035,0.29,-2.85,-0.57,-0.10,0.29,-6.11,
2.037,0.29,-2.85,-0.57,-0.03,0.33,-6.29,
2.052,0.29,-2.85,-0.57,0.01,0.35,-6.50,
2.052,-0.01,-1.21,-0.44,0.01,0.35,-6.50,
2.052,-0.01,-1.21,-0.44,0.02,0.37,-6.68,
2.053,-0.01,-1.21,-0.44,0.02,0.41,-6.83,
2.053,-0.97,0.60,-0.47,0.02,0.41,-6.83,
2.053,-0.97,0.60,-0.47,0.03,0.50,-6.91,
2.053,-2.45,2.61,-0.42,0.03,0.50,-6.91,
2.054,-2.45,2.61,-0.42,0.07,0.64,-6.92,
2.054,-2.45,2.61,-0.42,0.11,0.74,-6.89,
2.055,-2.45,2.61,-0.42,0.13,0.74,-6.87,
2.056,-3.26,3.64,0.00,0.13,0.74,-6.87,
2.057,-3.26,3.64,0.00,0.09,0.65,-6.85,
2.06,-3.26,3.64,0.00,0.04,0.56,-6.80,
2.06,-3.37,3.64,0.35,0.04,0.56,-6.80,
2.064,-3.37,3.64,0.35,0.04,0.61,-6.68,
2.066,-3.37,3.64,0.35,0.10,0.79,-6.49,
2.066,-3.52,4.80,-0.27,0.10,0.79,-6.49,
2.067,-3.52,4.80,-0.27,0.22,1.06,-6.23,
2.07,-3.52,4.80,-0.27,0.38,1.35,-5.91,
2.07,-3.07,6.14,-0.75,0.38,1.35,-5.91,
2.072,-3.07,6.14,-0.75,0.57,1.61,-5.51,
2.077,-2.67,7.19,-0.53,0.57,1.61,-5.51,
2.077,-2.67,7.19,-0.53,0.77,1.81,-5.06,
2.077,-2.67,7.19,-0.53,0.95,1.90,-4.56,
2.08,-1.87,7.20,-0.34,0.95,1.90,-4.56,
2.08,-1.87,7.20,-0.34,1.11,1.88,-4.05,
2.082,-1.87,7.20,-0.34,1.22,1.74,-3.52,
2.084,-1.87,7.20,-0.34,1.31,1.52,-2.99,
2.085,-0.40,6.63,-0.27,1.31,1.52,-2.99,
2.087,-0.40,6.63,-0.27,1.35,1.23,-2.48,
2.09,-0.40,6.63,-0.27,1.37,0.90,-1.98,
2.09,1.32,5.43,-0.39,1.37,0.90,-1.98,
2.092,1.32,5.43,-0.39,1.35,0.56,-1.52,
2.095,1.32,5.43,-0.39,1.32,0.22,-1.09,
2.095,2.65,4.38,-0.61,1.32,0.22,-1.09,
2.098,2.65,4.38,-0.61,1.27,-0.10,-0.73,
2.103,2.65,4.38,-0.61,1.20,-0.37,-0.43,
2.103,3.55,3.07,-0.59,1.20,-0.37,-0.43,
2.103,3.55,3.07,-0.59,1.11,-0.57,-0.20,
2.12,3.94,2.16,-0.92,1.11,-0.57,-0.20,
2.12,3.50,1.75,-0.25,1.11,-0.57,-0.20,
2.121,3.50,1.75,-0.25,1.03,-0.73,-0.03,
2.121,3.50,1.75,-0.25,0.95,-0.82,0.09,
2.121,3.50,1.75,-0.25,0.88,-0.86,0.17,
2.121,3.50,1.75,-0.25,0.82,-0.85,0.21,
2.122,3.50,1.75,-0.25,0.78,-0.81,0.22,
2.122,2.90,1.72,0.15,0.78,-0.81,0.22,
2.122,2.90,1.72,0.15,0.75,-0.73,0.22,
2.122,2.90,1.72,0.15,0.71,-0.62,0.20,
2.123,2.19,1.82,0.58,0.71,-0.62,0.20,
2.123,2.19,1.82,0.58,0.68,-0.50,0.18,
2.124,2.19,1.82,0.58,0.66,-0.38,0.15,
2.124,1.54,2.11,0.40,0.66,-0.38,0.15,
2.126,1.54,2.11,0.40,0.65,-0.27,0.13,
2.129,1.54,2.11,0.40,0.63,-0.15,0.10,
2.129,0.87,2.31,0.80,0.63,-0.15,0.10,
2.133,0.87,2.31,0.80,0.62,-0.02,0.09,
2.134,0.87,2.31,0.80,0.61,0.14,0.15,
2.134,-0.77,0.01,0.86,0.61,0.14,0.15,
2.136,-0.77,0.01,0.86,0.58,0.23,0.11,
2.139,-0.77,0.01,0.86,0.59,0.32,0.17,
2.139,-0.41,0.07,0.79,0.59,0.32,0.17,
2.141,-0.41,0.07,0.79,0.56,0.40,0.26,
2.143,-0.41,0.07,0.79,0.50,0.48,0.40,
2.144,-2.22,-2.92,-0.26,0.50,0.48,0.40,
2.147,-2.22,-2.92,-0.26,0.46,0.54,0.55,
2.148,-2.22,-2.92,-0.26,0.43,0.60,0.70,
2.149,-2.98,-5.45,0.11,0.43,0.60,0.70,
2.151,-2.98,-5.45,0.11,0.40,0.66,0.86,
2.153,-2.98,-5.45,0.11,0.39,0.70,1.01,
2.154,-2.81,-6.77,0.61,0.39,0.70,1.01,
2.156,-2.81,-6.77,0.61,0.39,0.70,1.13,
2.158,-2.81,-6.77,0.61,0.38,0.65,1.20,
2.158,-1.49,-6.64,1.22,0.38,0.65,1.20,
2.161,-1.49,-6.64,1.22,0.37,0.58,1.22,
2.164,0.32,-5.18,1.26,0.37,0.58,1.22,
2.164,0.32,-5.18,1.26,0.35,0.51,1.20,
2.166,0.32,-5.18,1.26,0.33,0.45,1.17,
2.168,0.32,-5.18,1.26,0.30,0.39,1.12,
2.168,0.99,-3.80,0.42,0.30,0.39,1.12,
2.171,0.99,-3.80,0.42,0.27,0.35,1.08,
2.174,0.99,-3.80,0.42,0.25,0.34,1.05,
2.174,0.54,-2.70,-0.37,0.25,0.34,1.05,
2.176,0.54,-2.70,-0.37,0.23,0.35,1.04,
2.18,-0.56,-1.87,-0.66,0.23,0.35,1.04,
2.181,-0.56,-1.87,-0.66,0.22,0.36,1.04,
2.182,-0.56,-1.87,-0.66,0.21,0.37,1.06,
2.186,-0.56,-1.87,-0.66,0.21,0.38,1.09,
2.187,-1.40,-1.10,-0.67,0.21,0.38,1.09,
2.187,-1.40,-1.10,-0.67,0.22,0.37,1.11,
2.188,-1.40,-1.10,-0.67,0.22,0.36,1.13,
2.189,-1.62,-0.48,-0.57,0.22,0.36,1.13,
2.191,-1.62,-0.48,-0.57,0.22,0.34,1.15,
2.194,-1.62,-0.48,-0.57,0.23,0.32,1.16,
2.194,-1.52,0.02,-0.61,0.23,0.32,1.16,
2.197,-1.52,0.02,-0.61,0.23,0.31,1.17,
2.199,-1.52,0.02,-0.61,0.23,0.28,1.17,
2.199,-1.27,0.42,-0.66,0.23,0.28,1.17,
2.201,-1.27,0.42,-0.66,0.24,0.25,1.17,
2.204,-1.27,0.42,-0.66,0.24,0.21,1.16,
2.218,-0.92,0.58,-0.63,0.24,0.21,1.16,
2.218,-0.92,0.58,-0.63,0.24,0.18,1.14,
2.218,-0.92,0.58,-0.63,0.25,0.13,1.12,
2.218,-0.58,0.56,-0.63,0.25,0.13,1.12,
2.218,-0.58,0.56,-0.63,0.26,0.09,1.10,
2.219,-0.42,0.54,-0.55,0.26,0.09,1.10,
2.219,-0.42,0.54,-0.55,0.27,0.05,1.08,
2.219,-0.42,0.54,-0.55,0.28,0.01,1.07,
2.219,-0.42,0.54,-0.55,0.29,-0.00,1.07,
2.219,-0.75,0.74,-0.39,0.29,-0.00,1.07,
2.232,-0.75,0.74,-0.39,0.30,0.01,1.07,
2.233,-0.95,1.18,-0.52,0.30,0.01,1.07,
2.233,-0.95,1.18,-0.52,0.32,0.03,1.08,
2.233,-0.95,1.18,-0.52,0.33,0.05,1.10,
2.234,-1.02,0.90,-0.36,0.33,0.05,1.10,
2.234,-1.02,0.90,-0.36,0.35,0.05,1.12,
2.234,-1.02,0.90,-0.36,0.36,0.05,1.13,
2.234,-1.02,0.90,-0.36,0.36,0.04,1.15,
2.234,-1.03,0.59,-0.26,0.36,0.04,1.15,
2.235,-1.03,0.59,-0.26,0.36,0.04,1.16,
2.238,-1.03,0.59,-0.26,0.35,0.03,1.17,
2.238,-0.91,0.50,-0.24,0.35,0.03,1.17,
2.24,-0.91,0.50,-0.24,0.34,-0.00,1.18,
2.243,-0.91,0.50,-0.24,0.33,-0.04,1.18,
2.243,-0.67,0.52,-0.03,0.33,-0.04,1.18,
2.251,-0.67,0.52,-0.03,0.32,-0.08,1.18,
2.251,-0.67,0.52,-0.03,0.31,-0.11,1.19,
2.251,-0.63,0.63,-0.02,0.31,-0.11,1.19,
2.251,-0.63,0.63,-0.02,0.30,-0.12,1.20,
2.252,-0.63,0.63,-0.02,0.28,-0.11,1.21,
2.252,-0.77,0.58,-0.09,0.28,-0.11,1.21,
2.255,-0.77,0.58,-0.09,0.27,-0.09,1.23,
2.257,-0.77,0.58,-0.09,0.25,-0.05,1.25,
2.258,-0.82,0.59,-0.29,0.25,-0.05,1.25,
2.26,-0.82,0.59,-0.29,0.22,-0.00,1.25,
2.268,-0.40,0.75,-0.58,0.22,-0.00,1.25,
2.268,-0.40,0.75,-0.58,0.19,0.03,1.25,
2.268,-0.40,0.75,-0.58,0.17,0.07,1.25,
2.269,-0.40,0.75,-0.58,0.15,0.10,1.24,
2.269,-0.16,0.56,-0.39,0.15,0.10,1.24,
2.271,-0.16,0.56,-0.39,0.14,0.12,1.24,
2.273,-0.16,0.56,-0.39,0.13,0.13,1.25,
2.273,-0.33,0.32,-0.10,0.13,0.13,1.25,
2.275,-0.33,0.32,-0.10,0.12,0.14,1.25,
2.278,-0.33,0.32,-0.10,0.12,0.15,1.26,
2.278,-0.46,0.12,0.12,0.12,0.15,1.26,
2.284,-0.46,0.12,0.12,0.12,0.16,1.26,
2.284,-0.46,0.12,0.12,0.12,0.16,1.26,
2.284,-0.43,0.02,0.05,0.12,0.16,1.26,
2.285,-0.43,0.02,0.05,0.12,0.16,1.27,
2.287,-0.43,0.02,0.05,0.12,0.15,1.27,
2.287,-0.37,-0.02,-0.10,0.12,0.15,1.27,
2.29,-0.37,-0.02,-0.10,0.12,0.13,1.27,
2.292,-0.37,-0.02,-0.10,0.11,0.10,1.27,
2.292,-0.37,0.03,-0.13,0.11,0.10,1.27,
2.304,-0.37,0.03,-0.13,0.11,0.06,1.27,
2.305,-0.37,0.03,-0.13,0.10,0.02,1.28,
2.305,-0.38,0.08,-0.16,0.10,0.02,1.28,
2.305,-0.38,0.08,-0.16,0.09,-0.01,1.28,
2.305,-0.38,0.08,-0.16,0.09,-0.04,1.28,
2.305,-0.43,0.15,-0.21,0.09,-0.04,1.28,
2.306,-0.43,0.15,-0.21,0.08,-0.07,1.28,
2.308,-0.43,0.15,-0.21,0.08,-0.08,1.28,
2.308,-0.39,0.23,-0.20,0.08,-0.08,1.28,
2.31,-0.39,0.23,-0.20,0.08,-0.09,1.28,
2.323,-0.39,0.23,-0.20,0.09,-0.10,1.28,
2.323,-0.32,0.31,-0.22,0.09,-0.10,1.28,
2.324,-0.32,0.31,-0.22,0.09,-0.10,1.28,
2.324,-0.26,0.36,-0.19,0.09,-0.10,1.28,
2.324,-0.26,0.36,-0.19,0.10,-0.10,1.28,
2.324,-0.26,0.36,-0.19,0.10,-0.10,1.27,
2.324,-0.26,0.36,-0.19,0.11,-0.10,1.27,
2.324,-0.25,0.33,-0.15,0.11,-0.10,1.27,
2.325,-0.25,0.33,-0.15,0.12,-0.11,1.27,
2.328,-0.25,0.33,-0.15,0.13,-0.12,1.26,
2.328,-0.11,0.26,-0.11,0.13,-0.12,1.26,
2.37,-0.11,0.26,-0.11,0.14,-0.13,1.25,
2.37,-0.11,0.26,-0.11,0.15,-0.14,1.24,
2.37,-0.14,0.22,-0.02,0.15,-0.14,1.24,
2.37,-0.14,0.22,-0.02,0.16,-0.15,1.24,
2.371,-0.14,0.22,-0.02,0.16,-0.16,1.23,
2.371,-0.10,0.12,-0.01,0.16,-0.16,1.23,
2.371,-0.10,0.12,-0.01,0.17,-0.17,1.22,
2.371,-0.10,0.12,-0.01,0.18,-0.17,1.21,
2.371,-0.03,-0.01,-0.04,0.18,-0.17,1.21,
2.372,-0.03,-0.01,-0.04,0.19,-0.18,1.19,
2.372,-0.03,-0.01,-0.04,0.19,-0.18,1.18,
2.372,0.03,-0.08,-0.06,0.19,-0.18,1.18,
2.372,0.03,-0.08,-0.06,0.19,-0.18,1.17,
2.372,0.03,-0.08,-0.06,0.19,-0.17,1.16,
2.372,-0.03,-0.21,-0.11,0.19,-0.17,1.16,
2.373,-0.03,-0.21,-0.11,0.20,-0.17,1.14,
2.373,-0.03,-0.21,-0.11,0.19,-0.16,1.13,
2.373,0.07,-0.33,-0.15,0.19,-0.16,1.13,
2.374,0.07,-0.33,-0.15,0.20,-0.16,1.11,
2.374,0.07,-0.33,-0.15,0.19,-0.16,1.10,
2.374,0.13,-0.45,-0.25,0.19,-0.16,1.10,
2.374,0.13,-0.45,-0.25,0.19,-0.16,1.08,
2.375,0.13,-0.45,-0.25,0.19,-0.16,1.06,
2.375,0.14,-0.50,-0.25,0.19,-0.16,1.06,
2.399,0.14,-0.50,-0.25,0.19,-0.16,1.04,
2.399,0.10,-0.53,-0.32,0.19,-0.16,1.04,
2.399,0.10,-0.53,-0.32,0.19,-0.16,1.02,
2.399,0.10,-0.53,-0.32,0.19,-0.16,1.00,
2.4,0.10,-0.53,-0.32,0.19,-0.16,0.98,
2.4,0.16,-0.51,-0.31,0.19,-0.16,0.98,
2.4,0.16,-0.51,-0.31,0.19,-0.17,0.95,
2.4,0.16,-0.51,-0.31,0.19,-0.17,0.93,
2.401,0.16,-0.56,-0.38,0.19,-0.17,0.93,
2.401,0.16,-0.56,-0.38,0.19,-0.16,0.91,
2.401,0.16,-0.56,-0.38,0.20,-0.16,0.89,
2.401,0.16,-0.60,-0.38,0.20,-0.16,0.89,
2.402,0.16,-0.60,-0.38,0.20,-0.16,0.86,
2.402,0.16,-0.60,-0.38,0.20,-0.16,0.83,
2.402,0.18,-0.56,-0.37,0.20,-0.16,0.83,
2.402,0.18,-0.56,-0.37,0.21,-0.17,0.80,
2.403,0.23,-0.55,-0.40,0.21,-0.17,0.80,
2.403,0.23,-0.55,-0.40,0.21,-0.17,0.77,
2.403,0.23,-0.55,-0.40,0.22,-0.18,0.74,
2.403,0.23,-0.55,-0.40,0.23,-0.19,0.72,
2.404,0.20,-0.62,-0.41,0.23,-0.19,0.72,
2.404,0.20,-0.62,-0.41,0.23,-0.18,0.69,
2.406,0.20,-0.62,-0.41,0.24,-0.19,0.66,
2.407,0.13,-0.73,-0.41,0.24,-0.19,0.66,
2.409,0.13,-0.73,-0.41,0.25,-0.19,0.63,
2.411,0.09,-0.84,-0.34,0.25,-0.19,0.63,
2.412,0.09,-0.84,-0.34,0.26,-0.21,0.60,
2.418,0.09,-0.84,-0.34,0.27,-0.22,0.57,
2.419,0.09,-0.84,-0.34,0.28,-0.24,0.54,
2.419,0.12,-0.92,-0.32,0.28,-0.24,0.54,
2.42,0.12,-0.92,-0.32,0.28,-0.25,0.51,
2.421,0.03,-1.04,-0.38,0.28,-0.25,0.51,
2.422,0.03,-1.04,-0.38,0.28,-0.26,0.49,
2.424,0.03,-1.04,-0.38,0.28,-0.25,0.46,
2.427,-0.12,-1.13,-0.55,0.28,-0.25,0.46,
2.428,-0.12,-1.13,-0.55,0.28,-0.25,0.44,
2.429,-0.12,-1.13,-0.55,0.27,-0.24,0.42,
2.431,-0.13,-1.03,-0.71,0.27,-0.24,0.42,
2.432,-0.13,-1.03,-0.71,0.26,-0.22,0.39,
2.433,-0.13,-1.03,-0.71,0.25,-0.21,0.37,
2.436,-0.19,-0.87,-0.88,0.25,-0.21,0.37,
2.436,-0.19,-0.87,-0.88,0.23,-0.20,0.35,
2.439,-0.19,-0.87,-0.88,0.21,-0.18,0.33,
2.442,-0.19,-0.87,-0.88,0.19,-0.16,0.31,
2.442,-0.33,-0.67,-1.10,0.19,-0.16,0.31,
2.444,-0.33,-0.67,-1.10,0.16,-0.13,0.29,
2.446,-0.40,-0.45,-1.31,0.16,-0.13,0.29,
2.447,-0.40,-0.45,-1.31,0.13,-0.11,0.28,
2.449,-0.40,-0.45,-1.31,0.10,-0.09,0.26,
2.451,-0.50,-0.15,-1.44,0.10,-0.09,0.26,
2.451,-0.50,-0.15,-1.44,0.07,-0.06,0.24,
2.454,-0.50,-0.15,-1.44,0.03,-0.04,0.23,
2.456,-0.50,-0.15,-1.44,0.00,-0.02,0.21,
2.456,-0.60,0.03,-1.54,0.00,-0.02,0.21,
2.458,-0.60,0.03,-1.54,-0.03,-0.01,0.20,
2.461,-0.60,0.03,-1.54,-0.05,-0.01,0.19,
2.461,-0.69,0.19,-1.53,-0.05,-0.01,0.19,
2.464,-0.69,0.19,-1.53,-0.07,-0.02,0.18,
2.466,-0.69,0.19,-1.53,-0.08,-0.03,0.17,
2.466,-0.74,0.36,-1.28,-0.08,-0.03,0.17,
2.468,-0.74,0.36,-1.28,-0.08,-0.06,0.16,
2.471,-0.74,0.36,-1.28,-0.07,-0.08,0.15,
2.471,-0.79,0.45,-0.99,-0.07,-0.08,0.15,
2.473,-0.79,0.45,-0.99,-0.05,-0.10,0.15,
2.476,-0.79,0.45,-0.99,-0.02,-0.11,0.14,
2.476,-0.82,0.62,-0.82,-0.02,-0.11,0.14,
2.478,-0.82,0.62,-0.82,-0.00,-0.11,0.12,
2.482,-0.82,0.62,-0.82,0.01,-0.10,0.11,
2.482,-0.61,0.88,-1.32,0.01,-0.10,0.11,
2.483,-0.61,0.88,-1.32,0.04,-0.07,0.09,
2.485,-0.61,0.88,-1.32,0.07,-0.06,0.06,
2.486,-0.53,0.81,-1.46,0.07,-0.06,0.06,
2.488,-0.53,0.81,-1.46,0.11,-0.03,0.04,
2.491,-0.53,0.81,-1.46,0.15,-0.00,0.02,
2.491,-0.77,0.67,-1.30,0.15,-0.00,0.02,
2.493,-0.77,0.67,-1.30,0.20,0.03,0.00,
2.501,-0.77,0.67,-1.30,0.24,0.05,-0.02,
2.502,-1.01,0.19,-1.33,0.24,0.05,-0.02,
2.502,-1.01,0.19,-1.33,0.29,0.07,-0.04,
2.503,-1.01,0.19,-1.33,0.32,0.07,-0.06,
2.503,-1.14,-0.12,-1.32,0.32,0.07,-0.06,
2.504,-1.14,-0.12,-1.32,0.36,0.05,-0.08,
2.534,-1.20,-0.20,-1.16,0.36,0.05,-0.08,
2.536,-1.20,-0.20,-1.16,0.39,0.02,-0.10,
2.536,-1.01,-0.20,-1.09,0.39,0.02,-0.10,
2.537,-1.01,-0.20,-1.09,0.41,-0.01,-0.13,
2.537,-1.01,-0.20,-1.09,0.44,-0.04,-0.15,
2.537,-1.01,-0.20,-1.09,0.46,-0.05,-0.16,
2.538,-1.01,-0.20,-1.09,0.47,-0.06,-0.18,
2.538,-0.95,-0.07,-1.12,0.47,-0.06,-0.18,
2.538,-0.95,-0.07,-1.12,0.49,-0.05,-0.20,
2.539,-0.88,-0.01,-1.31,0.49,-0.05,-0.20,
2.54,-0.88,-0.01,-1.31,0.49,-0.04,-0.21,
2.54,-0.88,-0.01,-1.31,0.50,-0.01,-0.23,
2.54,-0.86,0.06,-1.45,0.50,-0.01,-0.23,
2.541,-0.86,0.06,-1.45,0.50,0.01,-0.24,
2.541,-0.86,0.06,-1.45,0.49,0.04,-0.25,
2.542,-0.86,0.06,-1.45,0.49,0.07,-0.26,
2.542,-0.81,0.03,-1.45,0.49,0.07,-0.26,
2.542,-0.81,0.03,-1.45,0.47,0.09,-0.26,
2.575,-0.81,0.03,-1.45,0.45,0.11,-0.27,
2.575,-0.81,0.12,-1.42,0.45,0.11,-0.27,
2.576,-0.81,0.12,-1.42,0.44,0.12,-0.27,
2.576,-0.81,0.12,-1.42,0.42,0.11,-0.28,
2.576,-0.70,0.28,-1.18,0.42,0.11,-0.28,
2.576,-0.70,0.28,-1.18,0.42,0.11,-0.28,
2.577,-0.70,0.28,-1.18,0.41,0.10,-0.28,
2.577,-0.60,0.28,-0.96,0.41,0.10,-0.28,
2.577,-0.60,0.28,-0.96,0.40,0.09,-0.29,
2.577,-0.51,0.25,-0.89,0.40,0.09,-0.29,
2.578,-0.51,0.25,-0.89,0.39,0.08,-0.29,
2.578,-0.51,0.25,-0.89,0.38,0.08,-0.29,
2.578,-0.51,0.25,-0.89,0.36,0.08,-0.28,
2.578,-0.69,-0.35,-1.04,0.36,0.08,-0.28,
2.579,-0.69,-0.35,-1.04,0.35,0.08,-0.28,
2.579,-0.69,-0.35,-1.04,0.33,0.09,-0.27,
2.579,-0.69,-0.38,-1.16,0.33,0.09,-0.27,
2.579,-0.69,-0.38,-1.16,0.31,0.09,-0.27,
2.58,-0.69,-0.38,-1.16,0.30,0.08,-0.27,
2.58,-0.50,-0.25,-1.22,0.30,0.08,-0.27,
2.58,-0.50,-0.25,-1.22,0.28,0.10,-0.27,
2.58,-0.50,-0.25,-1.22,0.27,0.11,-0.27,
2.581,-0.31,-0.13,-1.30,0.27,0.11,-0.27,
2.581,-0.31,-0.13,-1.30,0.27,0.13,-0.28,
2.581,-0.31,-0.13,-1.30,0.26,0.15,-0.28,
2.581,-0.27,-0.02,-1.31,0.26,0.15,-0.28,
2.582,-0.27,-0.02,-1.31,0.26,0.17,-0.29,
2.582,-0.27,-0.02,-1.31,0.26,0.18,-0.28,
2.582,-0.35,0.21,-1.37,0.26,0.18,-0.28,
2.582,-0.35,0.21,-1.37,0.26,0.19,-0.28,
2.588,-0.42,0.35,-1.42,0.26,0.19,-0.28,
2.591,-0.42,0.35,-1.42,0.26,0.20,-0.27,
2.592,-0.42,0.35,-1.42,0.26,0.20,-0.27,
2.594,-0.42,0.35,-1.42,0.25,0.20,-0.27,
2.594,-0.28,0.41,-1.49,0.25,0.20,-0.27,
2.594,-0.28,0.41,-1.49,0.26,0.20,-0.26,
2.597,-0.28,0.41,-1.49,0.26,0.19,-0.26,
2.597,-0.18,0.37,-1.50,0.26,0.19,-0.26,
2.611,-0.18,0.37,-1.50,0.26,0.17,-0.26,
2.612,-0.18,0.37,-1.50,0.27,0.15,-0.25,
2.612,-0.20,0.35,-1.50,0.27,0.15,-0.25,
2.613,-0.20,0.35,-1.50,0.27,0.14,-0.25,
2.613,-0.20,0.35,-1.50,0.28,0.13,-0.25,
2.614,-0.13,0.53,-1.46,0.28,0.13,-0.25,
2.614,-0.13,0.53,-1.46,0.29,0.13,-0.25,
2.614,-0.13,0.53,-1.46,0.30,0.12,-0.25,
2.614,0.02,0.70,-1.49,0.30,0.12,-0.25,
2.618,0.02,0.70,-1.49,0.31,0.11,-0.25,
2.621,0.02,0.70,-1.49,0.31,0.09,-0.25,
2.621,-0.12,0.28,-1.49,0.31,0.09,-0.25,
2.621,-0.12,0.28,-1.49,0.31,0.07,-0.24,
2.621,-0.17,0.14,-1.56,0.31,0.07,-0.24,
2.622,-0.17,0.14,-1.56,0.31,0.04,-0.23,
2.622,-0.17,0.14,-1.56,0.31,0.02,-0.22,
2.626,-0.17,0.14,-1.56,0.31,-0.00,-0.21,
2.626,-0.08,-0.00,-1.56,0.31,-0.00,-0.21,
2.627,-0.08,-0.00,-1.56,0.31,-0.02,-0.20,
2.63,-0.02,0.02,-1.56,0.31,-0.02,-0.20,
2.631,-0.02,0.02,-1.56,0.31,-0.02,-0.20,
2.633,-0.02,0.02,-1.56,0.31,-0.03,-0.20,
2.636,0.01,-0.03,-1.60,0.31,-0.03,-0.20,
2.636,0.01,-0.03,-1.60,0.31,-0.04,-0.19,
2.637,0.01,-0.03,-1.60,0.30,-0.04,-0.18,
2.639,-0.04,-0.11,-1.65,0.30,-0.04,-0.18,
2.639,-0.04,-0.11,-1.65,0.30,-0.04,-0.18,
2.642,-0.04,-0.11,-1.65,0.30,-0.03,-0.18,
2.645,-0.04,-0.11,-1.65,0.30,-0.03,-0.18,
2.645,0.05,-0.01,-1.66,0.30,-0.03,-0.18,
2.647,0.05,-0.01,-1.66,0.30,-0.04,-0.18,
2.649,0.02,0.04,-1.65,0.30,-0.04,-0.18,
2.649,0.02,0.04,-1.65,0.30,-0.04,-0.17,
2.652,0.02,0.04,-1.65,0.30,-0.04,-0.17,
2.654,-0.01,0.06,-1.67,0.30,-0.04,-0.17,
2.654,-0.01,0.06,-1.67,0.29,-0.05,-0.17,
2.657,-0.01,0.06,-1.67,0.29,-0.06,-0.17,
2.659,-0.07,0.08,-1.68,0.29,-0.06,-0.17,
2.659,-0.07,0.08,-1.68,0.29,-0.06,-0.17,
2.662,-0.07,0.08,-1.68,0.29,-0.06,-0.17,
2.665,-0.14,0.08,-1.67,0.29,-0.06,-0.17,
2.665,-0.14,0.08,-1.67,0.29,-0.06,-0.17,
2.667,-0.14,0.08,-1.67,0.29,-0.06,-0.16,
2.669,-0.16,0.12,-1.72,0.29,-0.06,-0.16,
2.669,-0.16,0.12,-1.72,0.29,-0.05,-0.16,
2.671,-0.16,0.12,-1.72,0.29,-0.04,-0.16,
2.674,-0.20,0.24,-1.76,0.29,-0.04,-0.16,
2.675,-0.20,0.24,-1.76,0.29,-0.03,-0.16,
2.677,-0.20,0.24,-1.76,0.29,-0.02,-0.15,
2.679,-0.20,0.24,-1.76,0.28,-0.01,-0.15,
2.679,-0.28,0.23,-1.75,0.28,-0.01,-0.15,
2.683,-0.28,0.23,-1.75,0.27,-0.01,-0.14,
2.684,-0.35,0.28,-1.72,0.27,-0.01,-0.14,
2.684,-0.35,0.28,-1.72,0.27,-0.01,-0.13,
2.686,-0.35,0.28,-1.72,0.27,-0.01,-0.12,
2.689,-0.37,0.30,-1.76,0.27,-0.01,-0.12,
2.689,-0.37,0.30,-1.76,0.26,-0.00,-0.12,
2.691,-0.37,0.30,-1.76,0.26,0.00,-0.11,
2.694,-0.37,0.30,-1.76,0.26,0.01,-0.10,
2.694,-0.42,0.39,-1.76,0.26,0.01,-0.10,
2.702,-0.42,0.39,-1.76,0.25,0.02,-0.10,
2.702,-0.42,0.39,-1.76,0.25,0.03,-0.09,
2.731,-0.53,0.47,-1.77,0.25,0.03,-0.09,
2.731,-0.53,0.47,-1.77,0.24,0.04,-0.08,
2.731,-0.53,0.47,-1.77,0.24,0.04,-0.07,
2.732,-0.52,0.52,-1.77,0.24,0.04,-0.07,
2.732,-0.52,0.52,-1.77,0.24,0.05,-0.06,
2.732,-0.52,0.52,-1.77,0.23,0.06,-0.05,
2.732,-0.57,0.62,-1.76,0.23,0.06,-0.05,
2.733,-0.57,0.62,-1.76,0.23,0.06,-0.04,
2.733,-0.57,0.62,-1.76,0.22,0.06,-0.04,
2.733,-0.63,0.69,-1.75,0.22,0.06,-0.04,
2.733,-0.63,0.69,-1.75,0.22,0.06,-0.03,
2.734,-0.63,0.69,-1.75,0.22,0.06,-0.02,
2.734,-0.66,0.74,-1.75,0.22,0.06,-0.02,
2.734,-0.66,0.74,-1.75,0.21,0.06,-0.02,
2.734,-0.71,0.81,-1.70,0.21,0.06,-0.02,
2.735,-0.71,0.81,-1.70,0.21,0.06,-0.01,
2.735,-0.71,0.81,-1.70,0.21,0.06,0.00,
2.735,-0.71,0.81,-1.70,0.21,0.07,0.01,
2.735,-0.72,0.84,-1.65,0.21,0.07,0.01,
2.736,-0.72,0.84,-1.65,0.21,0.07,0.01,
2.736,-0.72,0.84,-1.65,0.21,0.08,0.02,
2.736,-0.67,0.84,-1.67,0.21,0.08,0.02,
2.736,-0.67,0.84,-1.67,0.21,0.08,0.03,
2.741,-0.67,0.84,-1.67,0.21,0.07,0.04,
2.742,-0.68,0.70,-1.71,0.21,0.07,0.04,
2.742,-0.68,0.70,-1.71,0.20,0.07,0.04,
2.743,-0.68,0.70,-1.71,0.20,0.07,0.05,
2.743,-0.65,0.66,-1.68,0.20,0.07,0.05,
2.75,-0.65,0.66,-1.68,0.21,0.07,0.05,
2.751,-0.60,0.75,-1.64,0.21,0.07,0.05,
2.751,-0.60,0.75,-1.64,0.21,0.07,0.05,
2.752,-0.60,0.75,-1.64,0.21,0.07,0.05,
2.755,-0.61,0.72,-1.75,0.21,0.07,0.05,
2.755,-0.61,0.72,-1.75,0.21,0.08,0.05,
2.757,-0.61,0.72,-1.75,0.21,0.09,0.06,
2.758,-0.61,0.72,-1.75,0.21,0.10,0.06,
2.758,-0.64,0.61,-1.89,0.21,0.10,0.06,
2.761,-0.64,0.61,-1.89,0.21,0.10,0.06,
2.765,-0.58,0.53,-1.95,0.21,0.10,0.06,
2.765,-0.58,0.53,-1.95,0.21,0.10,0.06,
2.766,-0.58,0.53,-1.95,0.21,0.09,0.05,
2.768,-0.58,0.53,-1.95,0.21,0.09,0.05,
2.768,-0.58,0.52,-1.92,0.21,0.09,0.05,
2.771,-0.58,0.52,-1.92,0.22,0.09,0.04,
2.773,-0.58,0.52,-1.92,0.22,0.09,0.03,
2.774,-0.51,0.46,-1.90,0.22,0.09,0.03,
2.775,-0.51,0.46,-1.90,0.23,0.10,0.02,
2.778,-0.51,0.46,-1.90,0.23,0.10,0.01,
2.779,-0.49,0.46,-1.95,0.23,0.10,0.01,
2.781,-0.49,0.46,-1.95,0.24,0.10,-0.00,
2.783,-0.40,0.43,-1.95,0.24,0.10,-0.00,
2.783,-0.40,0.43,-1.95,0.24,0.11,-0.02,
2.785,-0.40,0.43,-1.95,0.25,0.11,-0.03,
2.789,-0.40,0.43,-1.95,0.25,0.12,-0.04,
2.789,-0.37,0.36,-1.96,0.25,0.12,-0.04,
2.79,-0.37,0.36,-1.96,0.26,0.12,-0.06,
2.793,-0.37,0.36,-1.96,0.26,0.12,-0.07,
2.793,-0.35,0.40,-1.86,0.26,0.12,-0.07,
2.795,-0.35,0.40,-1.86,0.26,0.12,-0.08,
2.799,-0.35,0.40,-1.86,0.27,0.12,-0.08,
2.799,-0.31,0.39,-1.85,0.27,0.12,-0.08,
2.804,-0.33,0.38,-1.83,0.27,0.12,-0.08,
2.804,-0.33,0.38,-1.83,0.27,0.13,-0.09,
2.804,-0.33,0.38,-1.83,0.27,0.13,-0.09,
2.805,-0.33,0.38,-1.83,0.27,0.14,-0.09,
2.808,-0.33,0.38,-1.83,0.27,0.14,-0.09,
2.809,-0.33,0.38,-1.81,0.27,0.14,-0.09,
2.811,-0.33,0.38,-1.81,0.27,0.14,-0.09,
2.823,-0.35,0.41,-1.73,0.27,0.14,-0.09,
2.824,-0.35,0.41,-1.73,0.28,0.13,-0.08,
2.824,-0.35,0.41,-1.73,0.28,0.14,-0.07,
2.825,-0.35,0.41,-1.73,0.29,0.14,-0.07,
2.825,-0.33,0.41,-1.63,0.29,0.14,-0.07,
2.825,-0.33,0.41,-1.63,0.29,0.14,-0.06,
2.825,-0.33,0.30,-1.63,0.29,0.14,-0.06,
2.826,-0.33,0.30,-1.63,0.30,0.14,-0.05,
2.826,-0.33,0.30,-1.63,0.31,0.14,-0.05,
2.828,-0.33,0.30,-1.63,0.31,0.13,-0.05,
2.828,-0.29,0.30,-1.65,0.31,0.13,-0.05,
2.831,-0.29,0.30,-1.65,0.32,0.13,-0.05,
2.833,-0.27,0.20,-1.69,0.32,0.13,-0.05,
2.838,-0.32,-0.04,-1.77,0.32,0.13,-0.05,
2.838,-0.32,-0.04,-1.77,0.32,0.12,-0.04,
2.838,-0.32,-0.04,-1.77,0.33,0.12,-0.04,
2.838,-0.32,-0.04,-1.77,0.33,0.12,-0.04,
2.84,-0.32,-0.04,-1.77,0.33,0.11,-0.04,
2.842,-0.32,-0.04,-1.77,0.34,0.10,-0.04,
2.843,-0.35,-0.31,-1.82,0.34,0.10,-0.04,
2.845,-0.35,-0.31,-1.82,0.34,0.09,-0.04,
2.848,-0.37,-0.43,-1.89,0.34,0.09,-0.04,
2.848,-0.37,-0.43,-1.89,0.33,0.09,-0.04,
2.85,-0.37,-0.43,-1.89,0.33,0.08,-0.04,
2.853,-0.32,-0.52,-2.03,0.33,0.08,-0.04,
2.853,-0.32,-0.52,-2.03,0.33,0.09,-0.04,
2.855,-0.32,-0.52,-2.03,0.32,0.10,-0.04,
2.857,-0.32,-0.52,-2.03,0.31,0.12,-0.04,
2.858,-0.31,-0.62,-2.19,0.31,0.12,-0.04,
2.86,-0.31,-0.62,-2.19,0.30,0.13,-0.05,
2.862,-0.31,-0.62,-2.19,0.29,0.14,-0.05,
2.863,-0.29,-0.70,-2.25,0.29,0.14,-0.05,
2.889,-0.29,-0.70,-2.25,0.28,0.15,-0.06,
2.89,-0.29,-0.70,-2.25,0.27,0.16,-0.06,
2.89,-0.26,-0.94,-2.25,0.27,0.16,-0.06,
2.891,-0.26,-0.94,-2.25,0.26,0.17,-0.07,
2.891,-0.26,-0.94,-2.25,0.24,0.18,-0.08,
2.892,-0.13,-1.13,-2.34,0.24,0.18,-0.08,
2.892,-0.13,-1.13,-2.34,0.23,0.19,-0.10,
2.893,-0.05,-1.22,-2.25,0.23,0.19,-0.10,
2.893,-0.05,-1.22,-2.25,0.22,0.19,-0.11,
2.893,-0.05,-1.22,-2.25,0.21,0.19,-0.12,
2.894,-0.05,-1.22,-2.25,0.21,0.18,-0.13,
2.894,-0.08,-1.29,-2.09,0.21,0.18,-0.13,
2.894,-0.08,-1.29,-2.09,0.21,0.18,-0.14,
2.894,-0.10,-1.36,-2.07,0.21,0.18,-0.14,
2.895,-0.10,-1.36,-2.07,0.21,0.19,-0.14,
2.895,-0.10,-1.36,-2.07,0.20,0.19,-0.15,
2.895,0.02,-1.48,-2.03,0.20,0.19,-0.15,
2.895,0.02,-1.48,-2.03,0.21,0.18,-0.16,
2.896,0.02,-1.48,-2.03,0.21,0.18,-0.16,
2.898,0.09,-1.46,-1.99,0.21,0.18,-0.16,
2.9,0.09,-1.46,-1.99,0.21,0.16,-0.17,
2.904,0.09,-1.46,-1.99,0.22,0.15,-0.17,
2.904,0.07,-1.47,-1.94,0.22,0.15,-0.17,
2.905,0.07,-1.47,-1.94,0.22,0.14,-0.18,
2.908,0.05,-1.51,-1.89,0.22,0.14,-0.18,
2.909,0.05,-1.51,-1.89,0.23,0.14,-0.17,
2.909,0.05,-1.51,-1.89,0.23,0.13,-0.16,
2.911,0.05,-1.51,-1.89,0.24,0.12,-0.16,
2.913,0.06,-1.59,-1.93,0.24,0.12,-0.16,
2.914,0.06,-1.59,-1.93,0.25,0.11,-0.15,
2.921,0.06,-1.59,-1.93,0.25,0.10,-0.15,
2.924,0.01,-1.62,-2.03,0.25,0.10,-0.15,
2.924,0.01,-1.62,-2.03,0.25,0.10,-0.13,
2.924,0.01,-1.62,-2.03,0.26,0.10,-0.12,
2.924,-0.02,-1.73,-2.16,0.26,0.10,-0.12,
2.924,-0.02,-1.73,-2.16,0.26,0.10,-0.11,
2.924,-0.02,-1.73,-2.16,0.26,0.10,-0.10,
2.927,-0.07,-1.82,-2.26,0.26,0.10,-0.10,
2.927,-0.07,-1.82,-2.26,0.26,0.10,-0.09,
2.93,-0.07,-1.82,-2.26,0.26,0.10,-0.08,
2.936,-0.09,-1.96,-2.47,0.26,0.10,-0.08,
2.936,-0.09,-1.96,-2.47,0.25,0.10,-0.07,
2.937,-0.09,-1.96,-2.47,0.25,0.10,-0.07,
2.942,-0.11,-2.15,-2.63,0.25,0.10,-0.07,
2.943,-0.06,-2.31,-2.62,0.25,0.10,-0.07,
2.944,-0.06,-2.31,-2.62,0.24,0.09,-0.06,
2.944,-0.06,-2.31,-2.62,0.23,0.08,-0.06,
2.945,-0.06,-2.31,-2.62,0.22,0.07,-0.05,
2.946,-0.06,-2.31,-2.62,0.22,0.06,-0.05,
2.948,-0.05,-2.47,-2.49,0.22,0.06,-0.05,
2.948,-0.05,-2.47,-2.49,0.22,0.04,-0.06,
2.952,-0.05,-2.47,-2.49,0.21,0.02,-0.06,
2.952,-0.05,-2.47,-2.49,0.21,-0.00,-0.06,
2.952,-0.14,-2.44,-2.38,0.21,-0.00,-0.06,
2.954,-0.14,-2.44,-2.38,0.20,-0.02,-0.06,
2.957,-0.14,-2.44,-2.38,0.20,-0.04,-0.06,
2.958,-0.13,-2.52,-2.34,0.20,-0.04,-0.06,
2.96,-0.13,-2.52,-2.34,0.19,-0.06,-0.06,
2.961,-0.13,-2.52,-2.34,0.18,-0.08,-0.06,
2.961,-0.14,-2.55,-2.15,0.18,-0.08,-0.06,
2.966,-0.14,-2.55,-2.15,0.18,-0.11,-0.06,
2.967,-0.14,-2.55,-2.15,0.17,-0.14,-0.06,
2.967,-0.09,-2.49,-1.93,0.17,-0.14,-0.06,
2.97,-0.09,-2.49,-1.93,0.16,-0.18,-0.06,
2.971,-0.09,-2.49,-1.93,0.16,-0.22,-0.06,
2.971,-0.14,-2.36,-1.58,0.16,-0.22,-0.06,
2.974,-0.14,-2.36,-1.58,0.16,-0.27,-0.06,
2.976,-0.14,-2.36,-1.58,0.16,-0.32,-0.05,
2.977,-0.12,-2.17,-1.01,0.16,-0.32,-0.05,
2.979,-0.12,-2.17,-1.01,0.16,-0.39,-0.05,
2.981,-0.12,-2.17,-1.01,0.16,-0.45,-0.05,
2.982,-0.02,-2.25,-0.44,0.16,-0.45,-0.05,
2.984,-0.02,-2.25,-0.44,0.17,-0.53,-0.04,
2.986,-0.02,-2.25,-0.44,0.17,-0.60,-0.03,
2.987,-0.01,-2.31,0.03,0.17,-0.60,-0.03,
2.989,-0.01,-2.31,0.03,0.18,-0.69,-0.03,
2.991,-0.01,-2.31,0.03,0.19,-0.76,-0.03,
2.992,0.15,-2.38,0.54,0.19,-0.76,-0.03,
2.994,0.15,-2.38,0.54,0.20,-0.83,-0.03,
2.996,0.15,-2.72,0.67,0.20,-0.83,-0.03,
2.996,0.15,-2.72,0.67,0.20,-0.90,-0.03,
3.003,0.15,-2.72,0.67,0.19,-0.95,-0.03,
3.003,0.15,-2.72,0.67,0.19,-0.99,-0.04,
3.003,0.26,-3.28,0.63,0.19,-0.99,-0.04,
3.004,0.26,-3.28,0.63,0.17,-1.02,-0.05,
3.009,0.26,-3.28,0.63,0.16,-1.03,-0.06,
3.009,0.19,-3.74,0.50,0.16,-1.03,-0.06,
3.009,0.19,-3.74,0.50,0.13,-1.03,-0.07,
3.031,0.06,-4.03,0.38,0.13,-1.03,-0.07,
3.032,0.06,-4.03,0.38,0.11,-1.03,-0.09,
3.032,0.06,-4.03,0.38,0.08,-1.02,-0.10,
3.032,-0.20,-4.18,0.19,0.08,-1.02,-0.10,
3.032,-0.20,-4.18,0.19,0.04,-1.01,-0.11,
3.032,-0.20,-4.18,0.19,0.01,-0.98,-0.12,
3.033,-0.20,-4.18,0.19,-0.03,-0.96,-0.13,
3.033,-0.37,-4.09,-0.02,-0.03,-0.96,-0.13,
3.033,-0.37,-4.09,-0.02,-0.07,-0.94,-0.14,
3.034,-0.36,-3.75,0.13,-0.07,-0.94,-0.14,
3.034,-0.36,-3.75,0.13,-0.10,-0.93,-0.16,
3.034,-0.36,-3.75,0.13,-0.12,-0.93,-0.17,
3.059,-0.36,-3.75,0.13,-0.13,-0.93,-0.18,
3.059,-0.28,-2.99,0.37,-0.13,-0.93,-0.18,
3.059,-0.28,-2.99,0.37,-0.14,-0.94,-0.17,
3.06,-0.28,-2.99,0.37,-0.14,-0.93,-0.15,
3.06,-0.28,-2.18,0.57,-0.14,-0.93,-0.15,
3.06,-0.28,-2.18,0.57,-0.14,-0.92,-0.14,
3.061,-0.28,-2.18,0.57,-0.12,-0.91,-0.12,
3.061,-0.19,-1.50,0.87,-0.12,-0.91,-0.12,
3.061,-0.19,-1.50,0.87,-0.10,-0.91,-0.11,
3.061,-0.19,-1.50,0.87,-0.07,-0.91,-0.09,
3.062,0.03,-0.68,1.25,-0.07,-0.91,-0.09,
3.062,0.03,-0.68,1.25,-0.04,-0.92,-0.06,
3.062,0.03,-0.68,1.25,0.01,-0.92,-0.04,
3.063,0.17,0.06,1.53,0.01,-0.92,-0.04,
3.064,0.17,0.06,1.53,0.05,-0.93,-0.01,
3.064,0.16,0.79,1.74,0.05,-0.93,-0.01,
3.065,0.16,0.79,1.74,0.11,-0.93,0.02,
3.065,0.16,0.79,1.74,0.16,-0.94,0.05,
3.066,0.16,0.79,1.74,0.22,-0.95,0.08,
3.066,0.24,1.38,1.88,0.22,-0.95,0.08,
3.066,0.24,1.38,1.88,0.29,-0.96,0.12,
3.067,0.39,1.90,2.15,0.29,-0.96,0.12,
3.067,0.39,1.90,2.15,0.35,-0.97,0.15,
3.068,0.39,1.90,2.15,0.43,-0.99,0.17,
3.072,0.39,1.90,2.15,0.50,-1.00,0.21,
3.072,0.39,2.29,2.35,0.50,-1.00,0.21,
3.074,0.39,2.29,2.35,0.58,-1.01,0.23,
3.076,0.39,2.29,2.35,0.66,-1.01,0.26,
3.076,0.39,2.45,2.50,0.66,-1.01,0.26,
3.078,0.39,2.45,2.50,0.74,-1.01,0.28,
3.081,0.39,2.45,2.50,0.82,-1.01,0.30,
3.081,0.34,2.52,2.58,0.82,-1.01,0.30,
3.083,0.34,2.52,2.58,0.90,-1.00,0.31,
3.085,0.34,2.52,2.58,0.97,-0.99,0.33,
3.086,0.15,2.49,2.69,0.97,-0.99,0.33,
3.088,0.15,2.49,2.69,1.05,-0.97,0.34,
3.09,0.15,2.49,2.69,1.11,-0.95,0.35,
3.091,-0.08,2.43,2.75,1.11,-0.95,0.35,
3.093,-0.08,2.43,2.75,1.18,-0.92,0.36,
3.095,-0.28,2.39,2.85,1.18,-0.92,0.36,
3.095,-0.28,2.39,2.85,1.25,-0.90,0.36,
3.098,-0.28,2.39,2.85,1.32,-0.86,0.36,
3.101,-0.35,2.27,2.79,1.32,-0.86,0.36,
3.101,-0.35,2.27,2.79,1.37,-0.83,0.36,
3.103,-0.35,2.27,2.79,1.43,-0.81,0.36,
3.105,-0.35,2.27,2.79,1.48,-0.78,0.35,
3.105,-0.46,2.05,2.88,1.48,-0.78,0.35,
3.108,-0.46,2.05,2.88,1.53,-0.74,0.35,
3.11,-0.46,2.05,2.88,1.56,-0.70,0.34,
3.11,-0.52,1.81,2.78,1.56,-0.70,0.34,
3.113,-0.52,1.81,2.78,1.59,-0.66,0.33,
3.116,-0.55,1.45,2.67,1.59,-0.66,0.33,
3.116,-0.55,1.45,2.67,1.62,-0.61,0.32,
3.118,-0.55,1.45,2.67,1.63,-0.56,0.31,
3.12,-0.58,1.00,2.51,1.63,-0.56,0.31,
3.12,-0.58,1.00,2.51,1.63,-0.52,0.29,
3.122,-0.58,1.00,2.51,1.63,-0.48,0.28,
3.125,-0.58,1.00,2.51,1.61,-0.45,0.27,
3.125,-0.69,0.57,2.30,1.61,-0.45,0.27,
3.127,-0.69,0.57,2.30,1.58,-0.42,0.26,
3.135,-0.69,0.57,2.30,1.55,-0.38,0.25,
3.135,-0.74,0.14,2.04,1.55,-0.38,0.25,
3.135,-0.74,0.14,2.04,1.52,-0.34,0.23,
3.136,-0.69,-0.24,1.83,1.52,-0.34,0.23,
3.136,-0.69,-0.24,1.83,1.48,-0.30,0.21,
3.137,-0.69,-0.24,1.83,1.43,-0.25,0.20,
3.14,-0.69,-0.24,1.83,1.38,-0.19,0.18,
3.14,-0.66,-0.39,1.64,1.38,-0.19,0.18,
3.142,-0.66,-0.39,1.64,1.33,-0.13,0.16,
3.145,-0.66,-0.39,1.64,1.28,-0.07,0.14,
3.145,-0.68,-0.51,1.46,1.28,-0.07,0.14,
3.148,-0.68,-0.51,1.46,1.22,-0.00,0.13,
3.15,-0.82,-0.49,1.25,1.22,-0.00,0.13,
3.15,-0.82,-0.49,1.25,1.17,0.07,0.12,
3.152,-0.82,-0.49,1.25,1.11,0.14,0.12,
3.155,-0.82,-0.49,1.25,1.05,0.19,0.12,
3.155,-0.94,-0.37,0.91,1.05,0.19,0.12,
3.158,-0.94,-0.37,0.91,0.98,0.23,0.12,
3.16,-0.94,-0.37,0.91,0.90,0.26,0.12,
3.16,-0.77,-0.29,0.60,0.90,0.26,0.12,
3.163,-0.77,-0.29,0.60,0.83,0.28,0.12,
3.167,-0.77,-0.29,0.60,0.75,0.30,0.12,
3.167,-0.62,-0.13,0.20,0.75,0.30,0.12,
3.168,-0.62,-0.13,0.20,0.68,0.30,0.12,
3.17,-0.53,-0.05,0.05,0.68,0.30,0.12,
3.171,-0.53,-0.05,0.05,0.61,0.30,0.13,
3.172,-0.53,-0.05,0.05,0.55,0.30,0.13,
3.176,-0.41,0.00,-0.09,0.55,0.30,0.13,
3.176,-0.41,0.00,-0.09,0.49,0.30,0.14,
3.177,-0.41,0.00,-0.09,0.44,0.31,0.15,
3.18,-0.36,0.07,-0.21,0.44,0.31,0.15,
3.181,-0.36,0.07,-0.21,0.39,0.31,0.17,
3.184,-0.36,0.07,-0.21,0.36,0.31,0.19,
3.185,-0.44,0.09,-0.05,0.36,0.31,0.19,
3.186,-0.44,0.09,-0.05,0.34,0.30,0.21,
3.187,-0.44,0.09,-0.05,0.34,0.30,0.24,
3.19,-0.31,0.18,0.18,0.34,0.30,0.24,
3.19,-0.31,0.18,0.18,0.34,0.30,0.27,
3.192,-0.31,0.18,0.18,0.34,0.30,0.30,
3.196,0.14,0.40,-0.19,0.34,0.30,0.30,
3.207,0.14,0.40,-0.19,0.34,0.30,0.32,
3.208,0.14,0.40,-0.19,0.34,0.30,0.34,
3.208,0.14,0.40,-0.19,0.34,0.29,0.37,
3.208,0.23,0.50,-0.43,0.34,0.29,0.37,
3.208,0.23,0.50,-0.43,0.35,0.29,0.41,
3.209,0.23,0.50,-0.43,0.36,0.28,0.44,
3.21,0.09,0.59,-0.56,0.36,0.28,0.44,
3.21,0.09,0.59,-0.56,0.37,0.28,0.46,
3.213,0.09,0.59,-0.56,0.37,0.28,0.49,
3.214,0.27,0.42,-0.81,0.37,0.28,0.49,
3.214,0.27,0.42,-0.81,0.37,0.26,0.52,
3.219,0.27,0.42,-0.81,0.37,0.24,0.56,
3.22,0.11,0.34,-0.97,0.37,0.24,0.56,
3.22,0.11,0.34,-0.97,0.37,0.23,0.60,
3.227,0.11,0.34,-0.97,0.37,0.23,0.63,
3.227,0.02,0.38,-1.15,0.37,0.23,0.63,
3.227,0.02,0.38,-1.15,0.36,0.23,0.66,
3.228,0.02,0.38,-1.15,0.35,0.22,0.68,
3.228,0.40,0.45,-1.47,0.35,0.22,0.68,
3.228,0.40,0.45,-1.47,0.34,0.21,0.71,
3.229,0.40,0.45,-1.47,0.33,0.19,0.75,
3.23,-0.04,0.18,-1.59,0.33,0.19,0.75,
3.235,-0.04,0.18,-1.59,0.33,0.17,0.80,
3.235,-0.04,0.18,-1.59,0.32,0.15,0.84,
3.235,-0.30,-0.11,-1.58,0.32,0.15,0.84,
3.237,-0.30,-0.11,-1.58,0.32,0.13,0.87,
3.239,-0.30,-0.11,-1.58,0.32,0.10,0.91,
3.24,-0.39,-0.38,-1.70,0.32,0.10,0.91,
3.242,-0.39,-0.38,-1.70,0.32,0.07,0.96,
3.245,-0.39,-0.38,-1.70,0.32,0.05,1.01,
3.245,-0.77,-0.58,-1.85,0.32,0.05,1.01,
3.247,-0.77,-0.58,-1.85,0.30,0.03,1.06,
3.249,-0.86,-0.86,-2.66,0.30,0.03,1.06,
3.25,-0.86,-0.86,-2.66,0.27,0.01,1.10,
3.251,-0.86,-0.86,-2.66,0.23,-0.00,1.15,
3.254,-0.86,-0.86,-2.66,0.18,-0.01,1.19,
3.254,-0.77,-1.13,-3.25,0.18,-0.01,1.19,
3.257,-0.77,-1.13,-3.25,0.13,-0.01,1.24,
3.26,-0.77,-1.13,-3.25,0.09,-0.01,1.30,
3.26,-1.02,-1.03,-3.49,0.09,-0.01,1.30,
3.261,-1.02,-1.03,-3.49,0.04,0.00,1.35,
3.264,-1.02,-1.03,-3.49,-0.00,0.01,1.41,
3.264,-1.17,-0.74,-3.47,-0.00,0.01,1.41,
3.267,-1.17,-0.74,-3.47,-0.03,-0.01,1.47,
3.269,-1.17,-0.74,-3.47,-0.06,-0.04,1.54,
3.269,-1.32,-0.59,-2.91,-0.06,-0.04,1.54,
3.271,-1.32,-0.59,-2.91,-0.08,-0.07,1.62,
3.274,-1.32,-0.59,-2.91,-0.09,-0.10,1.70,
3.274,-1.66,-0.38,-2.72,-0.09,-0.10,1.70,
3.276,-1.66,-0.38,-2.72,-0.11,-0.13,1.78,
3.278,-1.66,-0.38,-2.72,-0.12,-0.15,1.85,
3.279,-1.64,-0.37,-2.58,-0.12,-0.15,1.85,
3.282,-1.64,-0.37,-2.58,-0.12,-0.18,1.92,
3.285,-1.37,-0.45,-2.44,-0.12,-0.18,1.92,
3.285,-1.37,-0.45,-2.44,-0.13,-0.22,1.99,
3.286,-1.37,-0.45,-2.44,-0.13,-0.26,2.05,
3.289,-1.37,-0.45,-2.44,-0.12,-0.28,2.10,
3.289,-1.24,-0.27,-2.15,-0.12,-0.28,2.10,
3.291,-1.24,-0.27,-2.15,-0.10,-0.28,2.15,
3.294,-1.24,-0.27,-2.15,-0.09,-0.27,2.19,
3.294,-0.93,-0.03,-2.06,-0.09,-0.27,2.19,
3.296,-0.93,-0.03,-2.06,-0.07,-0.25,2.22,
3.3,-0.64,0.23,-1.87,-0.07,-0.25,2.22,
3.3,-0.64,0.23,-1.87,-0.05,-0.24,2.25,
3.303,-0.64,0.23,-1.87,-0.01,-0.22,2.28,
3.324,-0.40,0.52,-1.65,-0.01,-0.22,2.28,
3.325,-0.40,0.52,-1.65,0.02,-0.18,2.30,
3.325,-0.40,0.52,-1.65,0.04,-0.13,2.31,
3.325,-0.40,0.52,-1.65,0.06,-0.08,2.32,
3.325,-0.40,0.52,-1.65,0.08,-0.04,2.34,
3.326,-0.40,0.52,-1.65,0.11,0.01,2.35,
3.326,-0.17,0.93,-1.84,0.11,0.01,2.35,
3.326,-0.12,1.34,-1.52,0.11,0.01,2.35,
3.326,-0.12,1.34,-1.52,0.14,0.05,2.37,
3.327,-0.12,1.34,-1.52,0.16,0.09,2.40,
3.327,-0.27,1.64,-1.40,0.16,0.09,2.40,
3.327,-0.27,1.64,-1.40,0.19,0.12,2.42,
3.327,-0.40,1.88,-1.40,0.19,0.12,2.42,
3.328,-0.40,1.88,-1.40,0.21,0.15,2.44,
3.33,-0.41,2.13,-1.14,0.21,0.15,2.44,
3.33,-0.41,2.13,-1.14,0.23,0.17,2.47,
3.33,-0.41,2.13,-1.14,0.26,0.17,2.49,
3.332,-0.41,2.13,-1.14,0.30,0.16,2.52,
3.334,-0.51,2.44,-0.64,0.30,0.16,2.52,
3.334,-0.51,2.44,-0.64,0.34,0.16,2.55,
3.34,-0.48,2.92,-0.62,0.34,0.16,2.55,
3.34,-0.48,2.92,-0.62,0.38,0.16,2.58,
3.341,-0.48,2.92,-0.62,0.42,0.16,2.61,
3.341,-0.48,2.92,-0.62,0.46,0.16,2.64,
3.343,-0.48,2.92,-0.62,0.50,0.15,2.67,
3.344,-0.31,3.37,-0.57,0.50,0.15,2.67,
3.346,-0.31,3.37,-0.57,0.53,0.14,2.71,
3.348,-0.29,3.91,-0.75,0.53,0.14,2.71,
3.349,-0.29,3.91,-0.75,0.56,0.15,2.74,
3.351,-0.29,3.91,-0.75,0.59,0.15,2.77,
3.353,0.10,4.22,-0.81,0.59,0.15,2.77,
3.354,0.10,4.22,-0.81,0.61,0.16,2.78,
3.355,0.10,4.22,-0.81,0.64,0.16,2.79,
3.358,0.10,4.22,-0.81,0.65,0.16,2.80,
3.358,0.44,4.25,-0.81,0.65,0.16,2.80,
3.378,0.44,4.25,-0.81,0.66,0.14,2.80,
3.378,0.44,4.25,-0.81,0.67,0.12,2.81,
3.378,0.66,4.15,-0.88,0.67,0.12,2.81,
3.378,0.66,4.15,-0.88,0.68,0.08,2.81,
3.379,0.66,4.15,-0.88,0.70,0.03,2.81,
3.379,0.77,3.94,-0.67,0.70,0.03,2.81,
3.379,0.77,3.94,-0.67,0.71,-0.04,2.80,
3.379,0.77,3.94,-0.67,0.72,-0.09,2.80,
3.38,0.70,3.69,-0.55,0.72,-0.09,2.80,
3.38,0.70,3.69,-0.55,0.77,-0.10,2.79,
3.38,0.45,3.22,-0.19,0.77,-0.10,2.79,
3.38,0.45,3.22,-0.19,0.82,-0.10,2.78,
3.382,0.45,3.22,-0.19,0.86,-0.10,2.76,
3.385,0.29,2.51,-0.01,0.86,-0.10,2.76,
3.386,0.29,2.51,-0.01,0.91,-0.12,2.73,
3.386,0.29,2.51,-0.01,0.95,-0.15,2.69,
3.388,0.29,2.51,-0.01,0.99,-0.19,2.64,
3.388,0.19,1.70,0.18,0.99,-0.19,2.64,
3.39,0.19,1.70,0.18,1.02,-0.23,2.57,
3.393,0.19,1.70,0.18,1.05,-0.28,2.49,
3.393,0.05,0.95,0.29,1.05,-0.28,2.49,
3.395,0.05,0.95,0.29,1.07,-0.35,2.36,
3.399,0.05,0.95,0.29,1.04,-0.49,2.11,
3.4,-0.28,-0.21,0.50,1.04,-0.49,2.11,
3.4,-0.28,-0.21,0.50,1.04,-0.57,1.85,
3.403,-0.28,-0.21,0.50,1.06,-0.63,1.57,
3.403,-1.01,-0.80,1.21,1.06,-0.63,1.57,
3.405,-1.01,-0.80,1.21,1.06,-0.66,1.28,
3.408,-1.01,-0.80,1.21,1.06,-0.67,1.00,
3.408,-1.41,-1.05,0.76,1.06,-0.67,1.00,
3.41,-1.41,-1.05,0.76,1.04,-0.68,0.73,
3.413,-1.98,-1.34,0.48,1.04,-0.68,0.73,
3.413,-1.98,-1.34,0.48,1.01,-0.73,0.48,
3.42,-1.98,-1.34,0.48,0.96,-0.77,0.27,
3.424,-3.33,-1.92,0.27,0.96,-0.77,0.27,
3.424,-3.33,-1.92,0.27,0.90,-0.83,0.09,
3.425,-3.33,-1.92,0.27,0.81,-0.90,-0.05,
3.425,-4.51,-2.44,-0.24,0.81,-0.90,-0.05,
3.425,-4.51,-2.44,-0.24,0.71,-0.96,-0.15,
3.425,-4.51,-2.44,-0.24,0.60,-1.02,-0.23,
3.428,-4.51,-2.44,-0.24,0.48,-1.06,-0.28,
3.428,-4.44,-2.63,-0.70,0.48,-1.06,-0.28,
3.43,-4.44,-2.63,-0.70,0.37,-1.06,-0.31,
3.434,-4.45,-3.11,-0.83,0.37,-1.06,-0.31,
3.434,-4.45,-3.11,-0.83,0.26,-0.99,-0.31,
3.435,-4.45,-3.11,-0.83,0.15,-0.90,-0.30,
3.437,-4.45,-3.11,-0.83,0.06,-0.79,-0.27,
3.437,-4.50,-3.23,-0.86,0.06,-0.79,-0.27,
3.44,-4.50,-3.23,-0.86,-0.02,-0.69,-0.23,
3.442,-4.50,-3.23,-0.86,-0.10,-0.62,-0.20,
3.442,-4.12,-3.01,-0.32,-0.10,-0.62,-0.20,
3.444,-4.12,-3.01,-0.32,-0.16,-0.56,-0.17,
3.448,-4.12,-3.01,-0.32,-0.22,-0.52,-0.15,
3.448,-3.46,-2.76,0.21,-0.22,-0.52,-0.15,
3.45,-3.46,-2.76,0.21,-0.27,-0.49,-0.14,
3.452,-3.46,-2.76,0.21,-0.31,-0.46,-0.14,
3.452,-2.89,-2.50,0.50,-0.31,-0.46,-0.14,
3.456,-2.89,-2.50,0.50,-0.35,-0.44,-0.15,
3.458,-2.89,-2.50,0.50,-0.39,-0.43,-0.16,
3.458,-2.68,-2.24,0.65,-0.39,-0.43,-0.16,
3.46,-2.68,-2.24,0.65,-0.42,-0.42,-0.18,
3.463,-2.68,-2.24,0.65,-0.43,-0.41,-0.21,
3.463,-2.82,-1.92,0.83,-0.43,-0.41,-0.21,
3.466,-2.82,-1.92,0.83,-0.44,-0.40,-0.23,
3.467,-3.26,-1.88,1.04,-0.44,-0.40,-0.23,
3.467,-3.26,-1.88,1.04,-0.44,-0.39,-0.26,
3.47,-3.26,-1.88,1.04,-0.43,-0.39,-0.29,
3.472,-3.26,-1.88,1.04,-0.42,-0.41,-0.34,
3.472,-3.41,-1.99,1.19,-0.42,-0.41,-0.34,
3.475,-3.41,-1.99,1.19,-0.41,-0.45,-0.40,
3.477,-3.41,-1.99,1.19,-0.39,-0.48,-0.47,
3.477,-3.68,-2.13,1.49,-0.39,-0.48,-0.47,
3.48,-3.68,-2.13,1.49,-0.36,-0.50,-0.54,
3.482,-3.68,-2.13,1.49,-0.32,-0.53,-0.63,
3.482,-3.75,-2.50,1.59,-0.32,-0.53,-0.63,
3.485,-3.75,-2.50,1.59,-0.28,-0.57,-0.72,
3.487,-3.75,-2.50,1.59,-0.24,-0.62,-0.82,
3.487,-3.87,-2.54,1.74,-0.24,-0.62,-0.82,
3.492,-3.79,-2.93,1.64,-0.24,-0.62,-0.82,
3.493,-3.79,-2.93,1.64,-0.20,-0.67,-0.93,
3.493,-3.79,-2.93,1.64,-0.18,-0.74,-1.03,
3.495,-3.79,-2.93,1.64,-0.17,-0.82,-1.14,
3.504,-3.79,-2.93,1.64,-0.18,-0.91,-1.23,
3.505,-3.80,-3.48,1.40,-0.18,-0.91,-1.23,
3.505,-3.80,-3.48,1.40,-0.21,-1.01,-1.31,
3.506,-3.80,-3.48,1.40,-0.25,-1.11,-1.36,
3.506,-4.31,-3.73,0.79,-0.25,-1.11,-1.36,
3.506,-4.31,-3.73,0.79,-0.30,-1.19,-1.38,
3.507,-4.31,-3.73,0.79,-0.37,-1.24,-1.38,
3.507,-4.95,-4.36,0.10,-0.37,-1.24,-1.38,
3.515,-4.95,-4.36,0.10,-0.47,-1.26,-1.35,
3.516,-4.95,-4.36,0.10,-0.58,-1.29,-1.27,
3.516,-5.96,-6.61,-0.80,-0.58,-1.29,-1.27,
3.517,-5.96,-6.61,-0.80,-0.65,-1.32,-1.15,
3.517,-5.96,-6.61,-0.80,-0.70,-1.32,-1.03,
3.517,-7.34,-6.95,0.41,-0.70,-1.32,-1.03,
3.521,-7.34,-6.95,0.41,-0.67,-1.31,-0.92,
3.522,-7.34,-6.95,0.41,-0.57,-1.31,-0.84,
3.522,-6.98,-6.70,3.26,-0.57,-1.31,-0.84,
3.524,-6.98,-6.70,3.26,-0.40,-1.30,-0.81,
3.539,-6.98,-6.70,3.26,-0.17,-1.26,-0.84,
3.539,-5.04,-5.65,6.83,-0.17,-1.26,-0.84,
3.539,-5.04,-5.65,6.83,0.11,-1.20,-0.91,
3.54,-2.84,-4.43,9.11,0.11,-1.20,-0.91,
3.54,-2.84,-4.43,9.11,0.40,-1.14,-1.00,
3.54,-2.84,-4.43,9.11,0.68,-1.10,-1.11,
3.541,-2.84,-4.43,9.11,0.94,-1.11,-1.21,
3.541,-1.51,-3.56,9.53,0.94,-1.11,-1.21,
3.541,-1.51,-3.56,9.53,1.15,-1.17,-1.31,
3.541,-1.51,-3.56,9.53,1.30,-1.25,-1.39,
3.542,-0.61,-3.15,8.66,1.30,-1.25,-1.39,
3.546,-0.61,-3.15,8.66,1.41,-1.36,-1.45,
3.547,-0.61,-3.15,8.66,1.46,-1.48,-1.50,
3.547,-0.08,-2.85,7.03,1.46,-1.48,-1.50,
3.551,-0.08,-2.85,7.03,1.46,-1.61,-1.55,
3.551,-0.08,-2.85,7.03,1.42,-1.75,-1.59,
3.552,0.65,-2.51,5.54,1.42,-1.75,-1.59,
3.554,0.65,-2.51,5.54,1.35,-1.88,-1.63,
3.556,0.65,-2.51,5.54,1.25,-1.96,-1.65,
3.556,1.18,-1.79,4.09,1.25,-1.96,-1.65,
3.559,1.18,-1.79,4.09,1.12,-2.00,-1.67,
3.561,1.18,-1.79,4.09,0.98,-1.99,-1.68,
3.561,1.51,-0.94,2.82,0.98,-1.99,-1.68,
3.565,1.51,-0.94,2.82,0.83,-1.91,-1.69,
3.567,1.51,-0.94,2.82,0.67,-1.80,-1.69,
3.567,1.86,-1.24,1.86,0.67,-1.80,-1.69,
3.569,1.86,-1.24,1.86,0.51,-1.66,-1.69,
3.571,1.86,-1.24,1.86,0.35,-1.52,-1.69,
3.571,2.10,-1.51,1.57,0.35,-1.52,-1.69,
3.574,2.10,-1.51,1.57,0.19,-1.39,-1.68,
3.576,2.10,-1.51,1.57,0.05,-1.26,-1.67,
3.576,2.43,-1.85,1.75,0.05,-1.26,-1.67,
3.578,2.43,-1.85,1.75,-0.09,-1.15,-1.66,
3.581,2.49,-2.05,2.06,-0.09,-1.15,-1.66,
3.584,2.49,-2.05,2.06,-0.21,-1.04,-1.64,
3.584,2.49,-2.05,2.06,-0.31,-0.94,-1.61,
3.586,2.49,-2.05,2.06,-0.38,-0.84,-1.58,
3.586,2.39,-1.80,2.61,-0.38,-0.84,-1.58,
3.588,2.39,-1.80,2.61,-0.42,-0.74,-1.55,
3.591,2.39,-1.80,2.61,-0.45,-0.65,-1.51,
3.591,2.34,-1.43,3.14,-0.45,-0.65,-1.51,
3.593,2.34,-1.43,3.14,-0.45,-0.57,-1.47,
3.596,2.34,-1.43,3.14,-0.45,-0.51,-1.43,
3.596,2.24,-1.08,3.24,-0.45,-0.51,-1.43,
3.599,2.24,-1.08,3.24,-0.44,-0.46,-1.39,
3.601,2.24,-1.08,3.24,-0.42,-0.42,-1.35,
3.601,2.10,-0.68,2.92,-0.42,-0.42,-1.35,
3.603,2.10,-0.68,2.92,-0.39,-0.38,-1.32,
3.606,2.10,-0.68,2.92,-0.37,-0.35,-1.28,
3.606,1.95,-0.37,2.38,-0.37,-0.35,-1.28,
3.608,1.95,-0.37,2.38,-0.34,-0.31,-1.24,
3.611,1.95,-0.37,2.38,-0.30,-0.28,-1.20,
3.611,1.65,0.01,1.77,-0.30,-0.28,-1.20,
3.613,1.65,0.01,1.77,-0.27,-0.24,-1.17,
3.617,1.65,0.01,1.77,-0.23,-0.21,-1.14,
3.621,1.52,0.32,1.23,-0.23,-0.21,-1.14,
3.622,1.52,0.32,1.23,-0.19,-0.18,-1.11,
3.622,1.34,0.54,0.83,-0.19,-0.18,-1.11,
3.622,1.34,0.54,0.83,-0.16,-0.16,-1.08,
3.623,1.34,0.54,0.83,-0.12,-0.14,-1.05,
3.64,1.34,0.54,0.83,-0.09,-0.12,-1.03,
3.64,1.31,0.72,0.39,-0.09,-0.12,-1.03,
3.64,1.31,0.72,0.39,-0.05,-0.10,-1.00,
3.64,1.20,0.77,0.12,-0.05,-0.10,-1.00,
3.641,1.20,0.77,0.12,-0.02,-0.09,-0.98,
3.641,1.20,0.77,0.12,0.00,-0.08,-0.96,
3.641,1.20,0.77,0.12,0.02,-0.07,-0.94,
3.641,1.14,0.81,-0.12,0.02,-0.07,-0.94,
3.641,1.14,0.81,-0.12,0.04,-0.07,-0.92,
3.642,1.10,0.79,-0.37,0.04,-0.07,-0.92,
3.642,1.10,0.79,-0.37,0.05,-0.07,-0.90,
3.643,1.10,0.79,-0.37,0.06,-0.08,-0.88,
3.645,1.10,0.79,-0.37,0.07,-0.07,-0.87,
3.646,1.18,0.71,-0.50,0.07,-0.07,-0.87,
3.648,1.18,0.71,-0.50,0.08,-0.06,-0.86,
3.651,1.27,0.63,-0.56,0.08,-0.06,-0.86,
3.651,1.27,0.63,-0.56,0.09,-0.05,-0.85,
3.653,1.27,0.63,-0.56,0.10,-0.02,-0.84,
3.656,1.31,0.49,-0.53,0.10,-0.02,-0.84,
3.656,1.31,0.49,-0.53,0.11,-0.00,-0.83,
3.658,1.31,0.49,-0.53,0.13,0.02,-0.82,
3.66,1.31,0.49,-0.53,0.14,0.04,-0.81,
3.66,1.21,0.32,-0.55,0.14,0.04,-0.81,
3.663,1.21,0.32,-0.55,0.15,0.05,-0.80,
3.665,1.32,0.08,-0.45,0.15,0.05,-0.80,
3.666,1.32,0.08,-0.45,0.17,0.07,-0.79,
3.668,1.32,0.08,-0.45,0.19,0.09,-0.79,
3.67,1.32,0.08,-0.45,0.20,0.10,-0.78,
3.671,1.49,-0.18,-0.31,0.20,0.10,-0.78,
3.673,1.49,-0.18,-0.31,0.22,0.12,-0.78,
3.676,1.49,-0.18,-0.31,0.24,0.15,-0.77,
3.676,1.47,-0.47,-0.21,0.24,0.15,-0.77,
3.678,1.47,-0.47,-0.21,0.27,0.17,-0.76,
3.681,1.47,-0.47,-0.21,0.29,0.18,-0.75,
3.681,1.40,-0.72,-0.05,0.29,0.18,-0.75,
3.684,1.40,-0.72,-0.05,0.32,0.20,-0.75,
3.688,1.40,-0.72,-0.05,0.35,0.20,-0.74,
3.688,1.43,-0.87,0.24,0.35,0.20,-0.74,
3.689,1.43,-0.87,0.24,0.38,0.20,-0.74,
3.69,1.58,-1.00,0.43,0.38,0.20,-0.74,
3.716,1.58,-1.00,0.43,0.41,0.19,-0.74,
3.717,1.58,-1.00,0.43,0.44,0.17,-0.74,
3.717,1.53,-1.22,0.67,0.44,0.17,-0.74,
3.717,1.53,-1.22,0.67,0.47,0.15,-0.74,
3.717,1.53,-1.22,0.67,0.50,0.13,-0.74,
3.718,1.53,-1.22,0.67,0.53,0.12,-0.74,
3.718,1.31,-1.46,0.84,0.53,0.12,-0.74,
3.718,1.31,-1.46,0.84,0.57,0.10,-0.74,
3.718,1.31,-1.46,0.84,0.60,0.09,-0.74,
3.719,1.20,-1.65,0.99,0.60,0.09,-0.74,
3.719,1.20,-1.65,0.99,0.64,0.07,-0.74,
3.719,1.20,-1.65,0.99,0.67,0.05,-0.75,
3.719,0.95,-1.80,1.19,0.67,0.05,-0.75,
3.719,0.95,-1.80,1.19,0.69,0.04,-0.75,
3.72,0.95,-1.80,1.19,0.72,0.03,-0.77,
3.72,0.92,-2.00,1.18,0.72,0.03,-0.77,
3.72,0.92,-2.00,1.18,0.73,0.02,-0.78,
3.72,0.92,-2.00,1.18,0.74,0.02,-0.79,
3.721,0.70,-2.16,0.97,0.74,0.02,-0.79,
3.726,0.70,-2.16,0.97,0.74,0.03,-0.81,
3.727,0.70,-2.16,0.97,0.73,0.05,-0.82,
3.727,0.49,-2.31,0.74,0.73,0.05,-0.82,
3.728,0.49,-2.31,0.74,0.73,0.07,-0.84,
3.731,0.49,-2.31,0.74,0.72,0.09,-0.85,
3.732,0.03,-2.48,0.59,0.72,0.09,-0.85,
3.754,0.03,-2.48,0.59,0.70,0.09,-0.86,
3.755,0.03,-2.48,0.59,0.68,0.08,-0.86,
3.755,-0.78,-2.56,0.65,0.68,0.08,-0.86,
3.755,-0.78,-2.56,0.65,0.65,0.05,-0.85,
3.755,-0.78,-2.56,0.65,0.61,0.03,-0.84,
3.756,-1.49,-2.65,0.32,0.61,0.03,-0.84,
3.756,-1.49,-2.65,0.32,0.56,0.01,-0.81,
3.756,-1.49,-2.65,0.32,0.50,-0.01,-0.78,
3.756,-2.31,-2.84,-0.23,0.50,-0.01,-0.78,
3.756,-2.31,-2.84,-0.23,0.44,-0.03,-0.74,
3.757,-2.31,-2.84,-0.23,0.38,-0.05,-0.69,
3.757,-3.13,-3.05,-0.66,0.38,-0.05,-0.69,
3.757,-3.13,-3.05,-0.66,0.32,-0.08,-0.64,
3.757,-3.13,-3.05,-0.66,0.26,-0.12,-0.59,
3.757,-3.65,-3.13,-0.80,0.26,-0.12,-0.59,
3.757,-3.65,-3.13,-0.80,0.21,-0.15,-0.54,
3.76,-3.65,-3.13,-0.80,0.16,-0.19,-0.49,
3.76,-4.02,-3.10,-0.82,0.16,-0.19,-0.49,
3.762,-4.02,-3.10,-0.82,0.11,-0.22,-0.45,
3.775,-3.80,-3.05,-0.96,0.11,-0.22,-0.45,
3.775,-3.99,-2.36,-0.82,0.11,-0.22,-0.45,
3.775,-3.99,-2.36,-0.82,0.07,-0.26,-0.42,
3.775,-3.99,-2.36,-0.82,0.05,-0.31,-0.37,
3.776,-3.99,-2.36,-0.82,0.02,-0.34,-0.33,
3.776,-3.99,-2.36,-0.82,-0.00,-0.36,-0.29,
3.776,-3.99,-2.36,-0.82,-0.02,-0.38,-0.25,
3.777,-3.69,-1.86,-0.94,-0.02,-0.38,-0.25,
3.778,-3.69,-1.86,-0.94,-0.04,-0.40,-0.21,
3.779,-3.69,-1.86,-0.94,-0.05,-0.43,-0.18,
3.78,-3.29,-1.31,-1.14,-0.05,-0.43,-0.18,
3.784,-3.29,-1.31,-1.14,-0.07,-0.47,-0.15,
3.785,-3.29,-1.31,-1.14,-0.08,-0.50,-0.13,
3.785,-2.64,-0.75,-1.24,-0.08,-0.50,-0.13,
3.787,-2.64,-0.75,-1.24,-0.10,-0.53,-0.12,
3.79,-1.95,-0.18,-1.30,-0.10,-0.53,-0.12,
3.792,-1.95,-0.18,-1.30,-0.11,-0.57,-0.10,
3.792,-1.95,-0.18,-1.30,-0.12,-0.60,-0.10,
3.794,-1.95,-0.18,-1.30,-0.14,-0.62,-0.09,
3.794,-1.37,0.46,-1.49,-0.14,-0.62,-0.09,
3.797,-1.37,0.46,-1.49,-0.15,-0.64,-0.09,
3.8,-1.37,0.46,-1.49,-0.16,-0.67,-0.09,
3.803,-0.86,0.99,-1.48,-0.16,-0.67,-0.09,
3.803,-0.86,0.99,-1.48,-0.16,-0.68,-0.09,
3.804,-0.86,0.99,-1.48,-0.17,-0.69,-0.10,
3.804,-0.41,1.32,-1.51,-0.17,-0.69,-0.10,
3.807,-0.41,1.32,-1.51,-0.17,-0.70,-0.11,
3.809,-0.41,1.32,-1.51,-0.16,-0.73,-0.12,
3.809,-0.02,1.47,-1.41,-0.16,-0.73,-0.12,
3.811,-0.02,1.47,-1.41,-0.15,-0.77,-0.13,
3.814,-0.02,1.47,-1.41,-0.13,-0.84,-0.14,
3.815,0.05,1.66,-1.18,-0.13,-0.84,-0.14,
3.817,0.05,1.66,-1.18,-0.11,-0.92,-0.14,
3.819,0.11,1.85,-0.79,-0.11,-0.92,-0.14,
3.823,0.11,1.85,-0.79,-0.09,-1.02,-0.15,
3.823,0.11,1.85,-0.79,-0.07,-1.12,-0.16,
3.824,0.11,1.85,-0.79,-0.05,-1.21,-0.17,
3.824,0.21,1.96,-0.90,-0.05,-1.21,-0.17,
3.826,0.21,1.96,-0.90,-0.05,-1.30,-0.18,
3.829,0.21,1.96,-0.90,-0.04,-1.38,-0.19,
3.829,0.52,2.23,-1.26,-0.04,-1.38,-0.19,
3.833,0.52,2.23,-1.26,-0.04,-1.44,-0.20,
3.834,0.62,2.62,-1.79,-0.04,-1.44,-0.20,
3.834,0.62,2.62,-1.79,-0.05,-1.49,-0.21,
3.839,0.62,2.62,-1.79,-0.06,-1.51,-0.21,
3.839,0.62,2.62,-1.79,-0.07,-1.53,-0.21,
3.839,0.70,3.08,-2.21,-0.07,-1.53,-0.21,
3.841,0.70,3.08,-2.21,-0.09,-1.52,-0.22,
3.844,0.70,3.08,-2.21,-0.09,-1.52,-0.22,
3.844,0.92,3.42,-2.52,-0.09,-1.52,-0.22,
3.846,0.92,3.42,-2.52,-0.10,-1.52,-0.21,
3.849,0.92,3.42,-2.52,-0.10,-1.51,-0.21,
3.85,0.95,3.67,-2.45,-0.10,-1.51,-0.21,
3.852,0.95,3.67,-2.45,-0.10,-1.50,-0.20,
3.854,0.95,3.67,-2.45,-0.09,-1.49,-0.19,
3.854,1.14,3.67,-2.48,-0.09,-1.49,-0.19,
3.876,1.14,3.67,-2.48,-0.08,-1.47,-0.19,
3.876,1.14,3.67,-2.48,-0.07,-1.46,-0.18,
3.877,1.17,3.72,-2.59,-0.07,-1.46,-0.18,
3.877,1.17,3.72,-2.59,-0.07,-1.44,-0.16,
3.877,1.36,3.80,-2.79,-0.07,-1.44,-0.16,
3.877,1.36,3.80,-2.79,-0.06,-1.42,-0.15,
3.878,1.36,3.80,-2.79,-0.05,-1.41,-0.14,
3.878,1.36,3.80,-2.79,-0.05,-1.38,-0.14,
3.878,1.48,3.83,-3.14,-0.05,-1.38,-0.14,
3.878,1.48,3.83,-3.14,-0.06,-1.34,-0.13,
3.879,1.48,3.83,-3.14,-0.07,-1.29,-0.12,
3.879,1.62,3.97,-3.75,-0.07,-1.29,-0.12,
3.879,1.62,3.97,-3.75,-0.10,-1.23,-0.12,
3.879,1.62,3.97,-3.75,-0.12,-1.18,-0.11,
3.88,1.81,4.20,-4.53,-0.12,-1.18,-0.11,
3.881,1.81,4.20,-4.53,-0.14,-1.15,-0.11,
3.885,1.81,4.20,-4.53,-0.17,-1.13,-0.11,
3.886,1.93,4.39,-4.71,-0.17,-1.13,-0.11,
3.887,1.93,4.39,-4.71,-0.19,-1.13,-0.11,
3.889,1.93,4.39,-4.71,-0.22,-1.13,-0.11,
3.889,2.03,4.40,-4.86,-0.22,-1.13,-0.11,
3.892,2.03,4.40,-4.86,-0.24,-1.14,-0.11,
3.894,2.03,4.40,-4.86,-0.25,-1.16,-0.11,
3.895,2.06,4.26,-4.72,-0.25,-1.16,-0.11,
3.897,2.06,4.26,-4.72,-0.26,-1.18,-0.11,
3.899,2.00,4.11,-4.45,-0.26,-1.18,-0.11,
3.899,2.00,4.11,-4.45,-0.25,-1.18,-0.12,
3.901,2.00,4.11,-4.45,-0.24,-1.18,-0.12,
3.903,2.00,4.11,-4.45,-0.23,-1.16,-0.13,
3.904,2.05,3.99,-4.37,-0.23,-1.16,-0.13,
3.906,2.05,3.99,-4.37,-0.22,-1.14,-0.14,
3.908,2.05,3.99,-4.37,-0.20,-1.12,-0.15,
3.908,2.26,3.79,-4.27,-0.20,-1.12,-0.15,
3.911,2.26,3.79,-4.27,-0.17,-1.09,-0.17,
3.913,2.42,3.49,-4.08,-0.17,-1.09,-0.17,
3.913,2.42,3.49,-4.08,-0.14,-1.06,-0.19,
3.916,2.42,3.49,-4.08,-0.11,-1.05,-0.21,
3.918,2.42,3.49,-4.08,-0.08,-1.04,-0.22,
3.918,2.40,3.39,-3.77,-0.08,-1.04,-0.22,
3.92,2.40,3.39,-3.77,-0.05,-1.05,-0.22,
3.923,2.18,3.26,-3.62,-0.05,-1.05,-0.22,
3.923,2.18,3.26,-3.62,-0.03,-1.05,-0.21,
3.925,2.18,3.26,-3.62,-0.02,-1.06,-0.20,
3.928,2.18,3.26,-3.62,-0.02,-1.08,-0.19,
3.928,2.03,3.15,-3.78,-0.02,-1.08,-0.19,
3.93,2.03,3.15,-3.78,-0.02,-1.10,-0.18,
3.939,2.07,2.96,-3.78,-0.02,-1.10,-0.18,
3.94,2.03,2.78,-3.56,-0.02,-1.10,-0.18,
3.94,2.03,2.78,-3.56,-0.02,-1.11,-0.17,
3.94,2.03,2.78,-3.56,-0.02,-1.12,-0.16,
3.941,2.03,2.78,-3.56,-0.02,-1.14,-0.15,
3.941,2.03,2.78,-3.56,-0.02,-1.15,-0.13,
3.945,1.61,2.57,-3.41,-0.02,-1.15,-0.13,
3.945,1.61,2.57,-3.41,-0.02,-1.16,-0.10,
3.948,1.61,2.57,-3.41,-0.01,-1.17,-0.08,
3.962,1.28,2.22,-3.23,-0.01,-1.17,-0.08,
3.963,1.28,2.22,-3.23,-0.00,-1.19,-0.05,
3.963,1.28,2.22,-3.23,0.01,-1.20,-0.03,
3.963,0.94,1.96,-2.84,0.01,-1.20,-0.03,
3.964,0.94,1.96,-2.84,0.04,-1.21,-0.01,
3.964,0.94,1.96,-2.84,0.06,-1.21,0.00,
3.964,0.60,1.59,-2.74,0.06,-1.21,0.00,
3.965,0.60,1.59,-2.74,0.09,-1.20,0.01,
3.965,0.60,1.59,-2.74,0.12,-1.20,0.02,
3.965,0.11,1.26,-2.54,0.12,-1.20,0.02,
3.966,0.11,1.26,-2.54,0.16,-1.21,0.04,
3.97,0.11,1.26,-2.54,0.20,-1.22,0.06,
3.97,0.11,1.26,-2.54,0.24,-1.22,0.07,
3.971,-0.35,1.00,-2.23,0.24,-1.22,0.07,
3.971,-0.35,1.00,-2.23,0.29,-1.23,0.09,
3.974,-0.90,0.71,-2.07,0.29,-1.23,0.09,
3.974,-0.90,0.71,-2.07,0.33,-1.23,0.11,
3.976,-0.90,0.71,-2.07,0.38,-1.24,0.13,
3.978,-0.90,0.71,-2.07,0.42,-1.24,0.15,
3.978,-1.48,0.32,-1.83,0.42,-1.24,0.15,
3.98,-1.48,0.32,-1.83,0.47,-1.25,0.18,
3.983,-1.48,0.32,-1.83,0.53,-1.25,0.20,
3.985,-2.09,0.05,-1.45,0.53,-1.25,0.20,
3.986,-2.09,0.05,-1.45,0.58,-1.25,0.23,
3.988,-2.46,0.15,-1.08,0.58,-1.25,0.23,
3.988,-2.46,0.15,-1.08,0.63,-1.25,0.25,
3.99,-2.46,0.15,-1.08,0.67,-1.24,0.27,
3.994,-2.46,0.15,-1.08,0.69,-1.21,0.28,
3.994,-2.54,0.19,-1.10,0.69,-1.21,0.28,
3.996,-2.54,0.19,-1.10,0.70,-1.18,0.29,
3.999,-2.61,0.13,-1.29,0.70,-1.18,0.29,
4.001,-2.61,0.13,-1.29,0.70,-1.15,0.29,
4.003,-2.61,0.13,-1.29,0.69,-1.12,0.29,
4.005,-2.76,0.06,-1.32,0.69,-1.12,0.29,
4.005,-2.76,0.06,-1.32,0.66,-1.08,0.29,
4.006,-2.76,0.06,-1.32,0.62,-1.05,0.29,
4.008,-2.76,0.06,-1.32,0.56,-0.99,0.29,
4.008,-2.93,0.12,-1.22,0.56,-0.99,0.29,
4.01,-2.93,0.12,-1.22,0.49,-0.92,0.27,
4.013,-2.93,0.12,-1.22,0.41,-0.85,0.25,
4.013,-2.89,-0.17,-1.20,0.41,-0.85,0.25,
4.021,-2.89,-0.17,-1.20,0.32,-0.77,0.23,
4.022,-3.12,-0.38,-1.06,0.32,-0.77,0.23,
4.022,-3.12,-0.38,-1.06,0.22,-0.69,0.21,
4.022,-3.12,-0.38,-1.06,0.12,-0.60,0.19,
4.049,-3.35,-0.71,-0.79,0.12,-0.60,0.19,
4.05,-3.43,-1.24,-0.34,0.12,-0.60,0.19,
4.05,-3.43,-1.24,-0.34,0.02,-0.52,0.16,
4.05,-3.43,-1.24,-0.34,-0.08,-0.43,0.13,
4.05,-3.43,-1.24,-0.34,-0.18,-0.36,0.10,
4.051,-3.43,-1.24,-0.34,-0.26,-0.30,0.08,
4.051,-3.92,-1.32,0.47,-0.26,-0.30,0.08,
4.051,-3.92,-1.32,0.47,-0.34,-0.26,0.06,
4.051,-3.92,-1.32,0.47,-0.40,-0.22,0.03,
4.052,-3.92,-1.32,0.47,-0.44,-0.20,-0.00,
4.052,-3.82,-1.74,1.18,-0.44,-0.20,-0.00,
4.052,-3.82,-1.74,1.18,-0.47,-0.20,-0.03,
4.052,-3.85,-2.10,2.03,-0.47,-0.20,-0.03,
4.053,-3.85,-2.10,2.03,-0.47,-0.21,-0.06,
4.053,-3.85,-2.10,2.03,-0.46,-0.22,-0.11,
4.053,-3.85,-2.10,2.03,-0.42,-0.24,-0.16,
4.053,-3.74,-2.69,2.65,-0.42,-0.24,-0.16,
4.054,-3.74,-2.69,2.65,-0.37,-0.26,-0.21,
4.054,-3.74,-2.69,2.65,-0.32,-0.28,-0.26,
4.054,-3.77,-2.86,2.86,-0.32,-0.28,-0.26,
4.058,-3.77,-2.86,2.86,-0.28,-0.27,-0.31,
4.059,-3.77,-2.86,2.86,-0.24,-0.25,-0.34,
4.059,-3.42,-2.57,2.16,-0.24,-0.25,-0.34,
4.06,-3.42,-2.57,2.16,-0.21,-0.20,-0.38,
4.062,-3.42,-2.57,2.16,-0.19,-0.12,-0.40,
4.062,-2.85,-1.75,1.21,-0.19,-0.12,-0.40,
4.065,-2.85,-1.75,1.21,-0.18,0.00,-0.42,
4.068,-2.20,-0.60,-0.44,-0.18,0.00,-0.42,
4.07,-2.20,-0.60,-0.44,-0.19,0.18,-0.43,
4.071,-2.20,-0.60,-0.44,-0.21,0.39,-0.44,
4.072,-1.31,0.34,-1.79,-0.21,0.39,-0.44,
4.072,-1.31,0.34,-1.79,-0.23,0.62,-0.44,
4.074,-1.31,0.34,-1.79,-0.25,0.88,-0.44,
4.077,-0.61,1.24,-2.44,-0.25,0.88,-0.44,
4.077,-0.61,1.24,-2.44,-0.26,1.14,-0.45,
4.08,-0.61,1.24,-2.44,-0.23,1.32,-0.46,
4.083,-0.61,1.24,-2.44,-0.15,1.35,-0.45,
4.085,0.53,2.44,-0.37,-0.15,1.35,-0.45,
4.086,0.53,2.44,-0.37,-0.01,1.20,-0.40,
4.088,0.53,2.44,-0.37,0.19,0.92,-0.31,
4.09,0.53,2.44,-0.37,0.44,0.60,-0.22,
4.092,0.53,2.44,-0.37,0.77,0.22,-0.14,
4.092,-0.89,2.31,4.82,0.77,0.22,-0.14,
4.092,-2.73,0.72,9.14,0.77,0.22,-0.14,
4.095,-2.73,0.72,9.14,1.14,-0.24,-0.09,
4.096,-2.73,0.72,9.14,1.52,-0.71,-0.09,
4.097,-2.94,-1.89,12.26,1.52,-0.71,-0.09,
4.1,-2.94,-1.89,12.26,1.87,-1.12,-0.14,
4.102,-2.94,-1.89,12.26,2.20,-1.46,-0.23,
4.102,-1.71,-4.99,10.81,2.20,-1.46,-0.23,
4.104,-1.71,-4.99,10.81,2.45,-1.71,-0.36,
4.107,-1.71,-4.99,10.81,2.57,-1.87,-0.54,
4.107,1.26,-6.92,7.19,2.57,-1.87,-0.54,
4.109,1.26,-6.92,7.19,2.53,-1.91,-0.76,
4.111,1.26,-6.92,7.19,2.35,-1.84,-0.99,
4.112,6.78,-6.77,-0.26,2.35,-1.84,-0.99,
4.114,6.78,-6.77,-0.26,2.10,-1.68,-1.16,
4.118,6.78,-6.77,-0.26,1.85,-1.42,-1.23,
4.118,10.63,-4.35,-3.47,1.85,-1.42,-1.23,
4.119,10.63,-4.35,-3.47,1.65,-1.15,-1.20,
4.122,10.63,-4.35,-3.47,1.52,-0.96,-1.12,
4.122,10.19,-3.07,-1.14,1.52,-0.96,-1.12,
4.124,10.19,-3.07,-1.14,1.41,-0.84,-1.00,
4.126,10.19,-3.07,-1.14,1.33,-0.71,-0.87,
4.127,8.71,-3.79,2.21,1.33,-0.71,-0.87,
4.129,8.71,-3.79,2.21,1.27,-0.57,-0.75,
4.131,8.71,-3.79,2.21,1.22,-0.45,-0.66,
4.131,8.28,-4.80,2.73,1.22,-0.45,-0.66,
4.137,8.28,-4.80,2.73,1.18,-0.31,-0.60,
4.137,8.30,-6.21,2.07,1.18,-0.31,-0.60,
4.138,8.30,-6.21,2.07,1.10,-0.17,-0.56,
4.139,8.30,-6.21,2.07,1.03,-0.10,-0.53,
4.141,8.30,-6.21,2.07,0.99,-0.07,-0.51,
4.141,7.55,-5.92,1.77,0.99,-0.07,-0.51,
4.144,7.55,-5.92,1.77,0.95,-0.03,-0.48,
4.146,7.55,-5.92,1.77,0.93,0.02,-0.45,
4.146,6.31,-6.03,1.53,0.93,0.02,-0.45,
4.149,6.31,-6.03,1.53,0.91,0.09,-0.40,
4.152,6.31,-6.03,1.53,0.91,0.16,-0.32,
4.154,4.93,-5.74,0.90,0.91,0.16,-0.32,
4.155,4.93,-5.74,0.90,0.91,0.21,-0.22,
4.156,4.93,-5.74,0.90,0.92,0.22,-0.11,
4.156,3.65,-4.59,0.73,0.92,0.22,-0.11,
4.159,3.65,-4.59,0.73,0.93,0.21,0.03,
4.161,3.65,-4.59,0.73,0.94,0.18,0.17,
4.161,2.53,-2.99,0.69,0.94,0.18,0.17,
4.164,2.53,-2.99,0.69,0.95,0.15,0.31,
4.167,2.23,-1.59,0.23,0.95,0.15,0.31,
4.167,2.23,-1.59,0.23,0.95,0.13,0.43,
4.169,2.23,-1.59,0.23,0.95,0.12,0.53,
4.171,2.23,-1.59,0.23,0.94,0.13,0.62,
4.172,2.33,-0.74,-0.26,0.94,0.13,0.62,
4.175,2.33,-0.74,-0.26,0.92,0.14,0.69,
4.176,2.33,-0.74,-0.26,0.89,0.18,0.76,
4.176,2.45,-0.28,-0.46,0.89,0.18,0.76,
4.178,2.45,-0.28,-0.46,0.85,0.22,0.81,
4.181,2.45,-0.28,-0.46,0.80,0.26,0.85,
4.181,2.58,0.17,-0.74,0.80,0.26,0.85,
4.184,2.58,0.17,-0.74,0.76,0.29,0.87,
4.186,2.75,0.50,-0.65,0.76,0.29,0.87,
4.197,2.75,0.50,-0.65,0.71,0.34,0.89,
4.197,2.75,0.50,-0.65,0.66,0.38,0.90,
4.197,2.75,0.50,-0.65,0.61,0.43,0.90,
4.197,2.88,0.80,-0.70,0.61,0.43,0.90,
4.197,2.88,0.80,-0.70,0.56,0.47,0.91,
4.198,2.88,0.80,-0.70,0.52,0.52,0.91,
4.198,2.74,1.07,-0.72,0.52,0.52,0.91,
4.199,2.74,1.07,-0.72,0.47,0.57,0.91,
4.202,2.75,1.19,-0.79,0.47,0.57,0.91,
4.202,2.75,1.19,-0.79,0.42,0.61,0.90,
4.205,2.75,1.19,-0.79,0.38,0.67,0.89,
4.206,2.75,1.19,-0.79,0.34,0.72,0.89,
4.206,2.56,1.39,-0.72,0.34,0.72,0.89,
4.209,2.56,1.39,-0.72,0.31,0.77,0.89,
4.211,2.56,1.39,-0.72,0.28,0.82,0.89,
4.211,2.26,1.43,-0.53,0.28,0.82,0.89,
4.214,2.26,1.43,-0.53,0.24,0.83,0.87,
4.218,2.04,1.30,-0.30,0.24,0.83,0.87,
4.219,2.04,1.30,-0.30,0.19,0.82,0.85,
4.221,2.04,1.30,-0.30,0.15,0.80,0.82,
4.222,2.04,1.30,-0.30,0.11,0.79,0.80,
4.223,1.80,1.22,-0.15,0.11,0.79,0.80,
4.224,1.80,1.22,-0.15,0.07,0.78,0.78,
4.226,1.80,1.22,-0.15,0.04,0.77,0.77,
4.226,1.33,1.15,0.14,0.04,0.77,0.77,
4.228,1.33,1.15,0.14,0.01,0.77,0.76,
4.231,1.33,1.15,0.14,-0.01,0.77,0.75,
4.231,0.93,1.06,0.40,-0.01,0.77,0.75,
4.234,0.93,1.06,0.40,-0.03,0.78,0.74,
4.238,0.75,0.86,0.48,-0.03,0.78,0.74,
4.238,0.75,0.86,0.48,-0.05,0.79,0.73,
4.238,0.75,0.86,0.48,-0.07,0.81,0.73,
4.24,0.75,0.86,0.48,-0.08,0.83,0.72,
4.241,0.58,0.67,0.65,-0.08,0.83,0.72,
4.243,0.58,0.67,0.65,-0.08,0.85,0.71,
4.247,0.58,0.67,0.65,-0.09,0.89,0.71,
4.248,0.44,0.41,0.67,-0.09,0.89,0.71,
4.249,0.44,0.41,0.67,-0.10,0.92,0.71,
4.254,0.44,0.41,0.67,-0.12,0.97,0.71,
4.255,0.34,0.27,0.46,-0.12,0.97,0.71,
4.255,0.34,0.27,0.46,-0.14,1.02,0.71,
4.257,0.34,0.27,0.46,-0.16,1.08,0.72,
4.257,0.30,0.15,0.16,-0.16,1.08,0.72,
4.258,0.30,0.15,0.16,-0.18,1.13,0.71,
4.261,0.30,0.15,0.16,-0.19,1.19,0.71,
4.261,0.40,0.03,0.06,-0.19,1.19,0.71,
4.263,0.40,0.03,0.06,-0.21,1.25,0.71,
4.267,0.40,0.03,0.06,-0.23,1.31,0.71,
4.268,0.42,0.03,0.02,-0.23,1.31,0.71,
4.268,0.42,0.03,0.02,-0.24,1.36,0.71,
4.27,0.42,0.03,0.02,-0.25,1.41,0.71,
4.271,0.37,0.14,0.05,-0.25,1.41,0.71,
4.272,0.37,0.14,0.05,-0.26,1.45,0.71,
4.275,0.37,0.14,0.05,-0.26,1.49,0.71,
4.275,0.32,0.14,0.15,-0.26,1.49,0.71,
4.277,0.32,0.14,0.15,-0.26,1.52,0.71,
4.28,0.32,0.14,0.15,-0.25,1.55,0.72,
4.28,0.22,0.36,0.30,-0.25,1.55,0.72,
4.284,0.22,0.36,0.30,-0.25,1.58,0.73,
4.285,0.22,0.36,0.30,-0.25,1.61,0.74,
4.286,0.01,0.68,0.29,-0.25,1.61,0.74,
4.288,0.01,0.68,0.29,-0.24,1.64,0.74,
4.29,-0.06,0.78,0.25,-0.24,1.64,0.74,
4.29,-0.06,0.78,0.25,-0.24,1.66,0.74,
4.292,-0.06,0.78,0.25,-0.23,1.69,0.75,
4.295,-0.16,0.97,0.29,-0.23,1.69,0.75,
4.295,-0.16,0.97,0.29,-0.22,1.71,0.75,
4.298,-0.16,0.97,0.29,-0.21,1.73,0.75,
4.3,-0.15,1.12,0.32,-0.21,1.73,0.75,
4.3,-0.15,1.12,0.32,-0.19,1.76,0.74,
4.303,-0.15,1.12,0.32,-0.18,1.78,0.74,
4.305,-0.15,1.12,0.32,-0.16,1.80,0.72,
4.305,0.03,1.18,0.25,-0.16,1.80,0.72,
4.307,0.03,1.18,0.25,-0.15,1.83,0.72,
4.31,0.03,1.18,0.25,-0.13,1.86,0.71,
4.31,-0.06,1.26,0.24,-0.13,1.86,0.71,
4.312,-0.06,1.26,0.24,-0.11,1.89,0.71,
4.315,-0.05,1.29,0.24,-0.11,1.89,0.71,
4.315,-0.05,1.29,0.24,-0.08,1.92,0.70,
4.321,-0.05,1.29,0.24,-0.06,1.96,0.69,
4.323,-0.05,1.29,0.24,-0.03,1.98,0.68,
4.324,-0.05,1.31,0.19,-0.03,1.98,0.68,
4.325,-0.05,1.31,0.19,-0.00,2.00,0.69,
4.326,-0.05,1.31,0.19,0.02,2.02,0.69,
4.327,-0.19,1.36,0.10,0.02,2.02,0.69,
4.328,-0.19,1.36,0.10,0.05,2.03,0.69,
4.33,-0.19,1.36,0.10,0.09,2.05,0.69,
4.331,-0.25,1.37,0.09,0.09,2.05,0.69,
4.343,-0.25,1.37,0.09,0.12,2.08,0.70,
4.343,-0.23,1.42,-0.07,0.12,2.08,0.70,
4.343,-0.23,1.42,-0.07,0.15,2.10,0.71,
4.344,-0.23,1.42,-0.07,0.18,2.12,0.72,
4.344,-0.23,1.42,-0.07,0.22,2.13,0.73,
4.344,-0.18,1.46,-0.12,0.22,2.13,0.73,
4.344,-0.18,1.46,-0.12,0.24,2.14,0.74,
4.348,-0.20,1.52,-0.12,0.24,2.14,0.74,
4.348,-0.20,1.52,-0.12,0.27,2.15,0.75,
4.348,-0.20,1.52,-0.12,0.30,2.15,0.77,
4.35,-0.24,1.61,-0.25,0.30,2.15,0.77,
4.351,-0.24,1.61,-0.25,0.32,2.15,0.78,
4.365,-0.24,1.61,-0.25,0.34,2.15,0.80,
4.365,-0.24,1.61,-0.25,0.35,2.13,0.82,
4.365,-0.30,1.62,-0.44,0.35,2.13,0.82,
4.366,-0.30,1.62,-0.44,0.35,2.11,0.85,
4.366,-0.37,1.71,-0.71,0.35,2.11,0.85,
4.366,-0.37,1.71,-0.71,0.34,2.09,0.88,
4.366,-0.37,1.71,-0.71,0.34,2.06,0.90,
4.367,-0.38,1.63,-0.89,0.34,2.06,0.90,
4.367,-0.38,1.63,-0.89,0.32,2.02,0.93,
4.368,-0.38,1.63,-0.89,0.32,2.00,0.95,
4.369,-0.44,1.43,-1.06,0.32,2.00,0.95,
4.37,-0.44,1.43,-1.06,0.31,1.98,0.96,
4.372,-0.44,1.43,-1.06,0.30,1.96,0.98,
4.375,-0.64,1.31,-1.29,0.30,1.96,0.98,
4.376,-0.64,1.31,-1.29,0.28,1.93,1.00,
4.378,-0.64,1.31,-1.29,0.25,1.89,1.01,
4.379,-0.64,1.31,-1.29,0.22,1.84,1.02,
4.379,-0.71,1.21,-1.70,0.22,1.84,1.02,
4.382,-0.71,1.21,-1.70,0.17,1.79,1.04,
4.385,-0.71,1.21,-1.70,0.12,1.74,1.04,
4.386,-0.81,1.15,-2.09,0.12,1.74,1.04,
4.388,-0.81,1.15,-2.09,0.07,1.68,1.05,
4.389,-1.06,1.00,-2.45,0.07,1.68,1.05,
4.389,-1.06,1.00,-2.45,0.01,1.62,1.07,
4.392,-1.06,1.00,-2.45,-0.05,1.56,1.09,
4.394,-1.06,1.00,-2.45,-0.12,1.48,1.10,
4.394,-1.37,0.78,-2.72,-0.12,1.48,1.10,
4.397,-1.37,0.78,-2.72,-0.18,1.41,1.12,
4.4,-1.40,0.56,-2.92,-0.18,1.41,1.12,
4.4,-1.40,0.56,-2.92,-0.24,1.32,1.14,
4.402,-1.40,0.56,-2.92,-0.31,1.23,1.15,
4.404,-1.40,0.56,-2.92,-0.37,1.14,1.16,
4.404,-1.31,0.35,-3.10,-0.37,1.14,1.16,
4.406,-1.31,0.35,-3.10,-0.44,1.05,1.17,
4.409,-1.31,0.35,-3.10,-0.50,0.96,1.18,
4.409,-1.27,0.17,-3.31,-0.50,0.96,1.18,
4.411,-1.27,0.17,-3.31,-0.57,0.88,1.18,
4.414,-1.27,0.17,-3.31,-0.63,0.80,1.19,
4.414,-1.18,0.07,-3.37,-0.63,0.80,1.19,
4.418,-1.18,0.07,-3.37,-0.68,0.73,1.19,
4.419,-1.18,0.07,-3.37,-0.73,0.66,1.19,
4.419,-1.17,0.06,-3.32,-0.73,0.66,1.19,
4.422,-1.17,0.06,-3.32,-0.77,0.59,1.20,
4.427,-1.16,0.21,-3.17,-0.77,0.59,1.20,
4.427,-1.16,0.21,-3.17,-0.82,0.53,1.21,
4.427,-1.16,0.21,-3.17,-0.85,0.49,1.21,
4.429,-1.16,0.21,-3.17,-0.88,0.45,1.21,
4.429,-1.06,0.49,-3.01,-0.88,0.45,1.21,
4.431,-1.06,0.49,-3.01,-0.89,0.42,1.21,
4.437,-1.06,0.49,-3.01,-0.89,0.40,1.20,
4.437,-0.83,0.61,-2.46,-0.89,0.40,1.20,
4.437,-0.83,0.61,-2.46,-0.89,0.38,1.18,
4.439,-0.33,0.58,-1.94,-0.89,0.38,1.18,
4.439,-0.33,0.58,-1.94,-0.86,0.36,1.16,
4.443,-0.33,0.58,-1.94,-0.82,0.33,1.13,
4.444,0.17,0.53,-1.28,-0.82,0.33,1.13,
4.444,0.17,0.53,-1.28,-0.77,0.31,1.09,
4.448,0.17,0.53,-1.28,-0.72,0.29,1.06,
4.449,0.17,0.53,-1.28,-0.66,0.27,1.02,
4.45,0.57,0.52,-1.05,-0.66,0.27,1.02,
4.452,0.57,0.52,-1.05,-0.60,0.26,1.00,
4.454,0.57,0.52,-1.05,-0.53,0.25,0.97,
4.454,0.84,0.61,-0.93,-0.53,0.25,0.97,
4.456,0.84,0.61,-0.93,-0.47,0.24,0.95,
4.458,0.84,0.61,-0.93,-0.40,0.23,0.93,
4.459,1.09,0.84,-0.88,-0.40,0.23,0.93,
4.461,1.09,0.84,-0.88,-0.33,0.23,0.90,
4.463,1.09,0.84,-0.88,-0.27,0.23,0.88,
4.464,1.46,1.16,-0.91,-0.27,0.23,0.88,
4.467,1.46,1.16,-0.91,-0.21,0.22,0.87,
4.468,1.46,1.16,-0.91,-0.16,0.22,0.86,
4.469,1.70,1.56,-1.03,-0.16,0.22,0.86,
4.471,1.70,1.56,-1.03,-0.12,0.23,0.85,
4.474,1.86,1.93,-1.32,-0.12,0.23,0.85,
4.474,1.86,1.93,-1.32,-0.08,0.24,0.84,
4.476,1.86,1.93,-1.32,-0.05,0.26,0.84,
4.479,1.86,1.93,-1.32,-0.03,0.29,0.84,
4.479,2.00,2.15,-1.63,-0.03,0.29,0.84,
4.481,2.00,2.15,-1.63,-0.01,0.32,0.84,
4.484,1.92,2.40,-1.70,-0.01,0.32,0.84,
4.485,1.92,2.40,-1.70,0.01,0.36,0.85,
4.486,1.92,2.40,-1.70,0.03,0.40,0.86,
4.489,1.92,2.40,-1.70,0.05,0.44,0.87,
4.49,1.83,2.65,-1.60,0.05,0.44,0.87,
4.491,1.83,2.65,-1.60,0.07,0.48,0.89,
4.493,1.53,2.85,-1.56,0.07,0.48,0.89,
4.494,1.53,2.85,-1.56,0.09,0.51,0.91,
4.496,1.53,2.85,-1.56,0.10,0.54,0.94,
4.498,1.53,2.85,-1.56,0.11,0.57,0.96,
4.499,1.22,3.05,-1.47,0.11,0.57,0.96,
4.501,1.22,3.05,-1.47,0.13,0.60,0.99,
4.504,1.22,3.05,-1.47,0.13,0.63,1.01,
4.504,0.90,3.16,-1.40,0.13,0.63,1.01,
4.506,0.90,3.16,-1.40,0.14,0.66,1.03,
4.508,0.90,3.16,-1.40,0.15,0.69,1.04,
4.508,0.64,3.10,-1.36,0.15,0.69,1.04,
4.511,0.64,3.10,-1.36,0.14,0.72,1.04,
4.513,0.64,3.10,-1.36,0.14,0.75,1.03,
4.514,0.40,2.90,-1.40,0.14,0.75,1.03,
4.521,0.40,2.90,-1.40,0.13,0.77,1.02,
4.544,0.40,2.90,-1.40,0.13,0.79,1.00,
4.545,0.02,2.68,-1.39,0.13,0.79,1.00,
4.545,0.02,2.68,-1.39,0.11,0.80,0.97,
4.545,0.02,2.68,-1.39,0.10,0.82,0.93,
4.545,-0.27,2.45,-1.39,0.10,0.82,0.93,
4.546,-0.27,2.45,-1.39,0.09,0.82,0.89,
4.547,-0.27,2.45,-1.39,0.06,0.81,0.85,
4.547,-0.64,2.14,-1.32,0.06,0.81,0.85,
4.548,-0.64,2.14,-1.32,0.04,0.79,0.82,
4.548,-0.94,1.72,-1.45,0.04,0.79,0.82,
4.548,-0.94,1.72,-1.45,0.01,0.77,0.78,
4.551,-0.94,1.72,-1.45,-0.02,0.74,0.74,
4.551,-0.94,1.72,-1.45,-0.04,0.71,0.71,
4.552,-1.25,1.23,-1.35,-0.04,0.71,0.71,
4.552,-1.25,1.23,-1.35,-0.07,0.67,0.67,
4.553,-1.25,1.23,-1.35,-0.10,0.64,0.63,
4.553,-1.35,0.86,-1.45,-0.10,0.64,0.63,
4.554,-1.35,0.86,-1.45,-0.13,0.60,0.60,
4.554,-1.35,0.86,-1.45,-0.16,0.56,0.56,
4.555,-1.54,0.48,-1.35,-0.16,0.56,0.56,
4.555,-1.54,0.48,-1.35,-0.19,0.52,0.53,
4.555,-1.65,0.17,-1.17,-0.19,0.52,0.53,
4.556,-1.65,0.17,-1.17,-0.21,0.47,0.50,
4.556,-1.65,0.17,-1.17,-0.22,0.44,0.46,
4.562,-1.65,0.17,-1.17,-0.23,0.40,0.43,
4.562,-1.73,-0.10,-0.84,-0.23,0.40,0.43,
4.562,-1.73,-0.10,-0.84,-0.23,0.36,0.40,
4.563,-1.73,-0.10,-0.84,-0.24,0.33,0.36,
4.563,-1.85,-0.30,-0.51,-0.24,0.33,0.36,
4.566,-1.85,-0.30,-0.51,-0.24,0.29,0.33,
4.57,-1.88,-0.61,-0.28,-0.24,0.29,0.33,
4.571,-1.88,-0.61,-0.28,-0.25,0.24,0.29,
4.571,-1.88,-0.61,-0.28,-0.25,0.18,0.25,
4.573,-1.88,-0.61,-0.28,-0.26,0.12,0.21,
4.573,-2.03,-1.05,0.03,-0.26,0.12,0.21,
4.578,-2.12,-1.52,0.26,-0.26,0.12,0.21,
4.578,-2.12,-1.52,0.26,-0.27,0.05,0.17,
4.578,-2.12,-1.52,0.26,-0.28,-0.02,0.13,
4.58,-2.12,-1.52,0.26,-0.30,-0.08,0.08,
4.582,-2.12,-1.52,0.26,-0.32,-0.15,0.03,
4.583,-2.14,-2.05,0.39,-0.32,-0.15,0.03,
4.585,-2.14,-2.05,0.39,-0.34,-0.22,-0.03,
4.587,-2.14,-2.05,0.39,-0.36,-0.29,-0.10,
4.587,-1.82,-2.57,0.59,-0.36,-0.29,-0.10,
4.59,-1.82,-2.57,0.59,-0.40,-0.35,-0.17,
4.592,-1.82,-2.57,0.59,-0.44,-0.42,-0.25,
4.592,-1.49,-2.98,0.43,-0.44,-0.42,-0.25,
4.596,-1.49,-2.98,0.43,-0.48,-0.48,-0.34,
4.598,-1.39,-3.22,0.53,-0.48,-0.48,-0.34,
4.598,-1.39,-3.22,0.53,-0.51,-0.53,-0.41,
4.601,-1.39,-3.22,0.53,-0.55,-0.58,-0.50,
4.603,-1.38,-3.42,0.68,-0.55,-0.58,-0.50,
4.603,-1.38,-3.42,0.68,-0.59,-0.64,-0.58,
4.605,-1.38,-3.42,0.68,-0.64,-0.70,-0.66,
4.607,-1.38,-3.42,0.68,-0.70,-0.76,-0.74,
4.608,-1.42,-3.65,0.56,-0.70,-0.76,-0.74,
4.61,-1.42,-3.65,0.56,-0.76,-0.82,-0.83,
4.612,-1.42,-3.65,0.56,-0.84,-0.85,-0.91,
4.612,-1.63,-3.93,0.22,-0.84,-0.85,-0.91,
4.615,-1.63,-3.93,0.22,-0.92,-0.88,-1.01,
4.618,-1.77,-4.35,0.01,-0.92,-0.88,-1.01,
4.618,-1.77,-4.35,0.01,-1.00,-0.91,-1.10,
4.62,-1.77,-4.35,0.01,-1.09,-0.94,-1.20,
4.623,-1.80,-4.83,-0.18,-1.09,-0.94,-1.20,
4.624,-1.80,-4.83,-0.18,-1.18,-0.97,-1.30,
4.625,-1.80,-4.83,-0.18,-1.27,-1.00,-1.41,
4.627,-1.80,-4.83,-0.18,-1.36,-1.02,-1.50,
4.627,-1.76,-5.32,-0.31,-1.36,-1.02,-1.50,
4.63,-1.76,-5.32,-0.31,-1.45,-1.05,-1.59,
4.632,-1.76,-5.32,-0.31,-1.54,-1.08,-1.66,
4.632,-1.88,-5.66,-0.39,-1.54,-1.08,-1.66,
4.639,-1.88,-5.66,-0.39,-1.63,-1.11,-1.72,
4.64,-1.88,-5.66,-0.39,-1.70,-1.14,-1.77,
4.64,-1.95,-5.81,-0.38,-1.70,-1.14,-1.77,
4.641,-1.95,-5.81,-0.38,-1.73,-1.19,-1.79,
4.662,-2.22,-5.75,0.74,-1.73,-1.19,-1.79,
4.663,-2.02,-5.38,1.22,-1.73,-1.19,-1.79,
4.663,-2.02,-5.38,1.22,-1.76,-1.25,-1.81,
4.663,-2.02,-5.38,1.22,-1.77,-1.31,-1.82,
4.664,-2.02,-5.38,1.22,-1.77,-1.38,-1.83,
4.664,-2.02,-5.38,1.22,-1.76,-1.45,-1.84,
4.664,-2.02,-5.38,1.22,-1.75,-1.52,-1.86,
4.664,-1.49,-4.66,1.73,-1.75,-1.52,-1.86,
4.665,-1.49,-4.66,1.73,-1.74,-1.58,-1.86,
4.665,-1.49,-4.66,1.73,-1.73,-1.61,-1.85,
4.665,-1.51,-4.56,1.33,-1.73,-1.61,-1.85,
4.665,-1.51,-4.56,1.33,-1.74,-1.62,-1.82,
4.666,-1.51,-4.56,1.33,-1.74,-1.59,-1.76,
4.666,-1.82,-4.81,0.69,-1.74,-1.59,-1.76,
4.666,-1.82,-4.81,0.69,-1.73,-1.53,-1.66,
4.667,-1.82,-4.81,0.69,-1.69,-1.43,-1.54,
4.668,-2.87,-5.53,0.79,-1.69,-1.43,-1.54,
4.674,-2.87,-5.53,0.79,-1.61,-1.30,-1.40,
4.674,-2.87,-5.53,0.79,-1.48,-1.18,-1.25,
4.675,-3.68,-5.90,2.23,-1.48,-1.18,-1.25,
4.675,-3.68,-5.90,2.23,-1.29,-1.07,-1.10,
4.677,-3.68,-5.90,2.23,-1.06,-1.01,-0.96,
4.677,-3.92,-4.88,5.30,-1.06,-1.01,-0.96,
4.679,-3.92,-4.88,5.30,-0.81,-1.00,-0.88,
4.681,-3.92,-4.88,5.30,-0.56,-1.05,-0.86,
4.703,-2.62,-3.14,7.60,-0.56,-1.05,-0.86,
4.704,-2.62,-3.14,7.60,-0.32,-1.13,-0.88,
4.704,-1.34,-1.36,8.03,-0.32,-1.13,-0.88,
4.705,-1.34,-1.36,8.03,-0.11,-1.22,-0.91,
4.705,-1.34,-1.36,8.03,0.06,-1.29,-0.95,
4.706,-1.34,-1.36,8.03,0.19,-1.35,-0.98,
4.706,-0.62,0.19,6.86,0.19,-1.35,-0.98,
4.707,-0.62,0.19,6.86,0.28,-1.38,-1.01,
4.707,-0.62,0.19,6.86,0.34,-1.36,-1.04,
4.707,0.12,1.32,5.52,0.34,-1.36,-1.04,
4.708,0.12,1.32,5.52,0.37,-1.32,-1.08,
4.708,1.15,2.02,4.75,0.37,-1.32,-1.08,
4.709,1.15,2.02,4.75,0.38,-1.24,-1.11,
4.709,1.15,2.02,4.75,0.39,-1.13,-1.12,
4.71,1.15,2.02,4.75,0.38,-1.00,-1.13,
4.71,1.82,2.51,4.58,0.38,-1.00,-1.13,
4.71,1.82,2.51,4.58,0.36,-0.88,-1.13,
4.712,2.68,2.79,4.37,0.36,-0.88,-1.13,
4.713,2.68,2.79,4.37,0.31,-0.77,-1.13,
4.714,2.68,2.79,4.37,0.23,-0.68,-1.12,
4.719,2.68,2.79,4.37,0.11,-0.63,-1.09,
4.72,3.21,2.82,3.68,0.11,-0.63,-1.09,
4.72,3.21,2.82,3.68,-0.05,-0.61,-1.05,
4.722,3.06,2.52,2.72,-0.05,-0.61,-1.05,
4.722,3.06,2.52,2.72,-0.24,-0.63,-0.99,
4.725,3.06,2.52,2.72,-0.45,-0.67,-0.92,
4.726,3.06,2.52,2.72,-0.66,-0.70,-0.84,
4.727,2.74,1.98,1.97,-0.66,-0.70,-0.84,
4.729,2.74,1.98,1.97,-0.86,-0.72,-0.76,
4.731,2.74,1.98,1.97,-1.05,-0.70,-0.68,
4.731,2.58,1.41,1.68,-1.05,-0.70,-0.68,
4.739,2.58,1.41,1.68,-1.20,-0.65,-0.61,
4.739,2.58,1.41,1.68,-1.32,-0.57,-0.55,
4.739,2.38,1.05,1.56,-1.32,-0.57,-0.55,
4.74,2.38,1.05,1.56,-1.40,-0.47,-0.50,
4.742,2.38,1.05,1.56,-1.44,-0.36,-0.47,
4.742,2.31,0.79,1.75,-1.44,-0.36,-0.47,
4.744,2.31,0.79,1.75,-1.46,-0.26,-0.45,
4.746,2.31,0.79,1.75,-1.45,-0.17,-0.45,
4.746,2.23,0.42,1.85,-1.45,-0.17,-0.45,
4.749,2.23,0.42,1.85,-1.42,-0.09,-0.45,
4.753,2.23,0.42,1.85,-1.36,-0.04,-0.44,
4.754,2.09,-0.03,1.84,-1.36,-0.04,-0.44,
4.754,2.09,-0.03,1.84,-1.29,0.01,-0.44,
4.756,2.09,-0.03,1.84,-1.19,0.05,-0.44,
4.756,1.83,-0.21,1.75,-1.19,0.05,-0.44,
4.758,1.83,-0.21,1.75,-1.07,0.09,-0.43,
4.761,1.83,-0.21,1.75,-0.94,0.12,-0.42,
4.761,1.52,-0.26,1.74,-0.94,0.12,-0.42,
4.763,1.52,-0.26,1.74,-0.79,0.14,-0.41,
4.766,1.52,-0.26,1.74,-0.63,0.16,-0.39,
4.766,1.26,-0.06,1.65,-0.63,0.16,-0.39,
4.769,1.26,-0.06,1.65,-0.47,0.18,-0.38,
4.771,1.26,-0.06,1.65,-0.31,0.21,-0.37,
4.771,1.18,0.20,1.33,-0.31,0.21,-0.37,
4.774,1.18,0.20,1.33,-0.15,0.25,-0.37,
4.776,1.18,0.20,1.33,0.01,0.29,-0.36,
4.776,1.09,0.47,0.94,0.01,0.29,-0.36,
4.778,1.09,0.47,0.94,0.17,0.34,-0.35,
4.781,1.09,0.47,0.94,0.31,0.38,-0.35,
4.781,1.00,0.75,0.60,0.31,0.38,-0.35,
4.784,1.00,0.75,0.60,0.44,0.42,-0.34,
4.786,0.87,1.04,0.32,0.44,0.42,-0.34,
4.786,0.87,1.04,0.32,0.57,0.45,-0.33,
4.788,0.87,1.04,0.32,0.68,0.48,-0.32,
4.791,0.87,1.04,0.32,0.78,0.51,-0.32,
4.791,0.81,1.31,0.12,0.78,0.51,-0.32,
4.793,0.81,1.31,0.12,0.86,0.53,-0.31,
4.796,0.81,1.31,0.12,0.93,0.54,-0.31,
4.796,0.74,1.54,-0.04,0.93,0.54,-0.31,
4.798,0.74,1.54,-0.04,0.99,0.56,-0.30,
4.801,0.69,1.64,-0.18,0.99,0.56,-0.30,
4.802,0.69,1.64,-0.18,1.03,0.56,-0.31,
4.804,0.69,1.64,-0.18,1.06,0.55,-0.32,
4.806,0.70,1.66,-0.24,1.06,0.55,-0.32,
4.806,0.70,1.66,-0.24,1.08,0.55,-0.33,
4.808,0.70,1.66,-0.24,1.09,0.55,-0.35,
4.81,0.70,1.66,-0.24,1.09,0.56,-0.36,
4.811,0.60,1.66,-0.28,1.09,0.56,-0.36,
4.813,0.60,1.66,-0.28,1.09,0.57,-0.38,
4.815,0.60,1.66,-0.28,1.08,0.58,-0.39,
4.816,0.54,1.56,-0.25,1.08,0.58,-0.39,
4.819,0.54,1.56,-0.25,1.07,0.60,-0.41,
4.821,0.54,1.56,-0.25,1.06,0.61,-0.42,
4.821,0.43,1.47,-0.04,1.06,0.61,-0.42,
4.823,0.43,1.47,-0.04,1.04,0.62,-0.43,
4.825,0.43,1.47,-0.04,1.03,0.62,-0.44,
4.826,0.35,1.31,0.27,1.03,0.62,-0.44,
4.828,0.35,1.31,0.27,1.01,0.61,-0.45,
4.83,0.35,1.31,0.27,0.99,0.58,-0.47,
4.831,0.45,1.07,0.69,0.99,0.58,-0.47,
4.833,0.45,1.07,0.69,0.97,0.55,-0.48,
4.839,0.45,1.07,0.69,0.95,0.50,-0.50,
4.841,0.45,0.85,1.19,0.95,0.50,-0.50,
4.842,0.45,0.85,1.19,0.94,0.44,-0.51,
4.844,0.45,0.85,1.19,0.92,0.38,-0.52,
4.846,0.49,0.64,1.61,0.92,0.38,-0.52,
4.847,0.49,0.64,1.61,0.91,0.31,-0.53,
4.848,0.49,0.64,1.61,0.89,0.25,-0.54,
4.852,0.62,0.32,1.95,0.89,0.25,-0.54,
4.884,0.62,0.32,1.95,0.88,0.17,-0.56,
4.885,0.62,0.32,1.95,0.86,0.10,-0.57,
4.885,0.65,0.04,2.19,0.86,0.10,-0.57,
4.885,0.65,0.04,2.19,0.85,0.03,-0.58,
4.886,0.71,-0.16,2.26,0.85,0.03,-0.58,
4.886,0.71,-0.16,2.26,0.83,-0.03,-0.59,
4.886,0.71,-0.16,2.26,0.81,-0.09,-0.60,
4.887,0.71,-0.16,2.26,0.79,-0.13,-0.62,
4.887,0.88,-0.47,2.13,0.79,-0.13,-0.62,
4.887,0.88,-0.47,2.13,0.76,-0.17,-0.63,
4.887,0.88,-0.47,2.13,0.72,-0.19,-0.65,
4.888,1.03,-0.72,1.77,0.72,-0.19,-0.65,
4.888,1.03,-0.72,1.77,0.69,-0.20,-0.67,
4.888,1.03,-0.72,1.77,0.65,-0.20,-0.68,
4.889,1.18,-0.88,1.40,0.65,-0.20,-0.68,
4.889,1.18,-0.88,1.40,0.62,-0.19,-0.70,
4.889,1.18,-0.88,1.40,0.58,-0.16,-0.71,
4.889,1.11,-0.97,1.05,0.58,-0.16,-0.71,
4.89,1.11,-0.97,1.05,0.54,-0.13,-0.72,
4.89,1.11,-0.97,1.05,0.51,-0.09,-0.74,
4.89,1.11,-1.18,0.58,0.51,-0.09,-0.74,
4.891,1.11,-1.18,0.58,0.46,-0.04,-0.75,
4.891,1.11,-1.18,0.58,0.42,0.01,-0.75,
4.891,1.04,-1.42,0.08,0.42,0.01,-0.75,
4.892,1.04,-1.42,0.08,0.38,0.06,-0.76,
4.892,1.04,-1.42,0.08,0.33,0.09,-0.77,
4.892,0.98,-1.64,-0.27,0.33,0.09,-0.77,
4.893,0.98,-1.64,-0.27,0.29,0.12,-0.78,
4.896,0.98,-1.64,-0.27,0.25,0.15,-0.79,
4.896,0.82,-1.79,-0.69,0.25,0.15,-0.79,
4.898,0.82,-1.79,-0.69,0.22,0.16,-0.79,
4.9,0.82,-1.79,-0.69,0.19,0.17,-0.79,
4.901,0.62,-1.93,-1.02,0.19,0.17,-0.79,
4.908,0.62,-1.93,-1.02,0.16,0.18,-0.80,
4.908,0.62,-1.93,-1.02,0.14,0.20,-0.81,
4.908,0.42,-2.04,-1.42,0.14,0.20,-0.81,
4.909,0.42,-2.04,-1.42,0.12,0.23,-0.83,
4.91,0.42,-2.04,-1.42,0.12,0.25,-0.84,
4.91,0.22,-2.17,-1.70,0.12,0.25,-0.84,
4.912,0.22,-2.17,-1.70,0.12,0.28,-0.85,
4.915,0.22,-2.17,-1.70,0.13,0.30,-0.86,
4.916,-0.25,-2.23,-1.96,0.13,0.30,-0.86,
4.923,-0.25,-2.23,-1.96,0.15,0.31,-0.86,
4.923,-0.25,-2.23,-1.96,0.17,0.29,-0.86,
4.923,-0.83,-2.38,-1.88,0.17,0.29,-0.86,
4.924,-0.83,-2.38,-1.88,0.18,0.26,-0.86,
4.924,-0.83,-2.38,-1.88,0.19,0.21,-0.87,
4.925,-1.32,-2.63,-2.18,0.19,0.21,-0.87,
4.927,-1.32,-2.63,-2.18,0.20,0.14,-0.86,
4.93,-1.32,-2.63,-2.18,0.20,0.06,-0.86,
4.93,-1.79,-2.62,-2.28,0.20,0.06,-0.86,
4.932,-1.79,-2.62,-2.28,0.21,-0.01,-0.86,
4.94,-2.26,-2.56,-2.67,0.21,-0.01,-0.86,
4.94,-2.26,-2.56,-2.67,0.21,-0.08,-0.86,
