
time,ax,ay,az,wx,wy,wz,
0.002,0.76,0.28,-0.70,0.02,0.02,-0.28,
0.002,0.76,0.28,-0.70,-0.00,0.01,-0.29,
0.003,0.76,0.28,-0.70,-0.03,-0.01,-0.31,
0.003,0.63,0.26,-0.44,-0.03,-0.01,-0.31,
0.003,0.63,0.26,-0.44,-0.05,-0.03,-0.31,
0.003,0.63,0.26,-0.44,-0.06,-0.05,-0.32,
0.006,0.54,0.23,-0.20,-0.06,-0.05,-0.32,
0.006,0.54,0.23,-0.20,-0.07,-0.07,-0.33,
0.008,0.54,0.23,-0.20,-0.07,-0.09,-0.33,
0.011,0.54,0.23,-0.20,-0.07,-0.11,-0.33,
0.011,0.44,0.17,0.04,-0.07,-0.11,-0.33,
0.014,0.44,0.17,0.04,-0.07,-0.13,-0.33,
0.016,0.41,0.08,0.21,-0.07,-0.13,-0.33,
0.016,0.41,0.08,0.21,-0.06,-0.14,-0.34,
0.018,0.41,0.08,0.21,-0.05,-0.15,-0.34,
0.021,0.41,0.08,0.21,-0.04,-0.16,-0.34,
0.021,0.39,0.02,0.25,-0.04,-0.16,-0.34,
0.023,0.39,0.02,0.25,-0.03,-0.16,-0.34,
0.026,0.42,-0.07,0.18,-0.03,-0.16,-0.34,
0.026,0.42,-0.07,0.18,-0.03,-0.16,-0.34,
0.028,0.42,-0.07,0.18,-0.02,-0.15,-0.35,
0.031,0.42,-0.07,0.18,-0.02,-0.14,-0.35,
0.032,0.42,-0.12,0.07,-0.02,-0.14,-0.35,
0.034,0.42,-0.12,0.07,-0.02,-0.13,-0.35,
0.036,0.42,-0.12,0.07,-0.02,-0.12,-0.34,
0.036,0.31,-0.12,-0.12,-0.02,-0.12,-0.34,
0.038,0.31,-0.12,-0.12,-0.02,-0.10,-0.33,
0.041,0.31,-0.12,-0.12,-0.03,-0.08,-0.31,
0.041,-0.17,-0.10,-0.37,-0.03,-0.08,-0.31,
0.043,-0.17,-0.10,-0.37,-0.04,-0.06,-0.29,
0.046,0.05,0.02,-0.42,-0.04,-0.06,-0.29,
0.046,0.05,0.02,-0.42,-0.05,-0.05,-0.27,
0.049,0.05,0.02,-0.42,-0.07,-0.04,-0.25,
0.051,0.24,0.13,-0.47,-0.07,-0.04,-0.25,
0.052,0.24,0.13,-0.47,-0.08,-0.04,-0.24,
0.053,0.24,0.13,-0.47,-0.09,-0.04,-0.24,
0.056,0.40,0.22,-0.48,-0.09,-0.04,-0.24,
0.056,0.40,0.22,-0.48,-0.09,-0.04,-0.23,
0.058,0.40,0.22,-0.48,-0.10,-0.03,-0.23,
0.061,0.40,0.22,-0.48,-0.10,-0.04,-0.24,
0.061,0.54,0.26,-0.43,-0.10,-0.04,-0.24,
0.068,0.54,0.26,-0.43,-0.10,-0.04,-0.24,
0.068,0.63,0.25,-0.40,-0.10,-0.04,-0.24,
0.068,0.63,0.25,-0.40,-0.11,-0.04,-0.25,
0.068,0.63,0.25,-0.40,-0.11,-0.04,-0.26,
0.071,0.63,0.25,-0.40,-0.10,-0.05,-0.27,
0.071,0.66,0.21,-0.35,-0.10,-0.05,-0.27,
0.073,0.66,0.21,-0.35,-0.10,-0.06,-0.27,
0.075,0.66,0.21,-0.35,-0.09,-0.06,-0.28,
0.075,0.54,0.20,-0.29,-0.09,-0.06,-0.28,
0.078,0.54,0.20,-0.29,-0.08,-0.06,-0.28,
0.08,0.43,0.23,-0.23,-0.08,-0.06,-0.28,
0.081,0.43,0.23,-0.23,-0.07,-0.06,-0.27,
0.083,0.43,0.23,-0.23,-0.06,-0.05,-0.27,
0.086,0.44,0.21,-0.23,-0.06,-0.05,-0.27,
0.086,0.44,0.21,-0.23,-0.04,-0.05,-0.27,
0.088,0.44,0.21,-0.23,-0.02,-0.04,-0.27,
0.091,0.46,0.23,-0.33,-0.02,-0.04,-0.27,
0.091,0.46,0.23,-0.33,-0.01,-0.02,-0.27,
0.093,0.46,0.23,-0.33,0.01,-0.00,-0.27,
0.096,0.46,0.23,-0.33,0.02,0.02,-0.26,
0.096,0.43,0.27,-0.42,0.02,0.02,-0.26,
0.098,0.43,0.27,-0.42,0.04,0.04,-0.26,
0.1,0.43,0.27,-0.42,0.05,0.07,-0.26,
0.1,0.41,0.33,-0.50,0.05,0.07,-0.26,
0.103,0.41,0.33,-0.50,0.07,0.09,-0.26,
0.105,0.43,0.38,-0.51,0.07,0.09,-0.26,
0.105,0.43,0.38,-0.51,0.08,0.11,-0.25,
0.111,0.43,0.38,-0.51,0.09,0.12,-0.25,
0.112,0.44,0.41,-0.50,0.09,0.12,-0.25,
0.112,0.44,0.41,-0.50,0.10,0.13,-0.24,
0.113,0.44,0.41,-0.50,0.10,0.13,-0.24,
0.118,0.44,0.43,-0.50,0.10,0.13,-0.24,
0.119,0.44,0.43,-0.50,0.10,0.14,-0.24,
0.119,0.44,0.43,-0.50,0.10,0.14,-0.23,
0.12,0.44,0.43,-0.50,0.10,0.15,-0.23,
0.12,0.44,0.43,-0.56,0.10,0.15,-0.23,
0.122,0.44,0.43,-0.56,0.10,0.16,-0.22,
0.125,0.46,0.43,-0.62,0.10,0.16,-0.22,
0.125,0.46,0.43,-0.62,0.10,0.16,-0.22,
0.127,0.46,0.43,-0.62,0.09,0.17,-0.22,
0.132,0.46,0.43,-0.62,0.09,0.17,-0.21,
0.132,0.47,0.41,-0.63,0.09,0.17,-0.21,
0.133,0.47,0.41,-0.63,0.08,0.17,-0.21,
0.135,0.45,0.39,-0.69,0.08,0.17,-0.21,
0.135,0.45,0.39,-0.69,0.07,0.18,-0.21,
0.137,0.45,0.39,-0.69,0.07,0.19,-0.20,
0.14,0.39,0.37,-0.73,0.07,0.19,-0.20,
0.14,0.39,0.37,-0.73,0.06,0.20,-0.20,
0.142,0.39,0.37,-0.73,0.05,0.21,-0.20,
0.146,0.39,0.37,-0.73,0.04,0.22,-0.19,
0.146,0.34,0.32,-0.78,0.04,0.22,-0.19,
0.148,0.34,0.32,-0.78,0.03,0.23,-0.19,
0.15,0.34,0.32,-0.78,0.02,0.26,-0.19,
0.15,0.28,0.27,-0.92,0.02,0.26,-0.19,
0.152,0.28,0.27,-0.92,0.01,0.28,-0.19,
0.154,0.28,0.27,-0.92,-0.00,0.32,-0.19,
0.155,0.16,0.25,-1.21,-0.00,0.32,-0.19,
0.159,0.16,0.25,-1.21,-0.01,0.36,-0.18,
0.159,0.04,0.28,-1.49,-0.01,0.36,-0.18,
0.16,0.04,0.28,-1.49,-0.03,0.40,-0.18,
0.165,0.04,0.28,-1.49,-0.04,0.45,-0.17,
0.166,-0.07,0.37,-1.69,-0.04,0.45,-0.17,
0.166,-0.07,0.37,-1.69,-0.06,0.49,-0.16,
0.167,-0.07,0.37,-1.69,-0.07,0.53,-0.15,
0.17,-0.20,0.46,-1.83,-0.07,0.53,-0.15,
0.17,-0.20,0.46,-1.83,-0.09,0.58,-0.14,
0.172,-0.20,0.46,-1.83,-0.10,0.62,-0.12,
0.174,-0.20,0.46,-1.83,-0.11,0.71,-0.12,
0.174,-0.17,0.03,-2.36,-0.11,0.71,-0.12,
0.177,-0.17,0.03,-2.36,-0.10,0.84,-0.14,
0.18,-0.20,-0.03,-2.42,-0.10,0.84,-0.14,
0.18,-0.20,-0.03,-2.42,-0.09,0.94,-0.15,
0.183,-0.20,-0.03,-2.42,-0.09,1.01,-0.15,
0.184,-0.65,0.53,-2.29,-0.09,1.01,-0.15,
0.185,-0.65,0.53,-2.29,-0.10,1.05,-0.14,
0.187,-0.65,0.53,-2.29,-0.12,1.08,-0.12,
0.189,-0.65,0.53,-2.29,-0.14,1.09,-0.09,
0.19,-1.04,1.07,-1.96,-0.14,1.09,-0.09,
0.192,-1.04,1.07,-1.96,-0.16,1.09,-0.05,
0.195,-1.30,1.34,-1.61,-0.16,1.09,-0.05,
0.195,-1.30,1.34,-1.61,-0.19,1.07,-0.00,
0.199,-1.30,1.34,-1.61,-0.21,1.04,0.04,
0.2,-1.30,1.34,-1.61,-0.23,1.00,0.09,
0.2,-1.47,1.30,-1.40,-0.23,1.00,0.09,
0.202,-1.47,1.30,-1.40,-0.25,0.95,0.15,
0.204,-1.47,1.30,-1.40,-0.27,0.90,0.20,
0.204,-1.65,0.99,-1.44,-0.27,0.90,0.20,
0.206,-1.65,0.99,-1.44,-0.29,0.85,0.25,
0.21,-1.82,0.54,-1.56,-0.29,0.85,0.25,
0.21,-1.82,0.54,-1.56,-0.31,0.80,0.30,
0.212,-1.82,0.54,-1.56,-0.33,0.75,0.34,
0.215,-1.82,0.54,-1.56,-0.36,0.71,0.38,
0.215,-1.90,0.09,-1.74,-0.36,0.71,0.38,
0.217,-1.90,0.09,-1.74,-0.38,0.66,0.41,
0.219,-1.93,-0.22,-1.92,-0.38,0.66,0.41,
0.22,-1.93,-0.22,-1.92,-0.40,0.63,0.44,
0.222,-1.93,-0.22,-1.92,-0.42,0.59,0.46,
0.224,-1.93,-0.22,-1.92,-0.44,0.56,0.47,
0.224,-1.85,-0.38,-2.06,-0.44,0.56,0.47,
0.227,-1.85,-0.38,-2.06,-0.45,0.54,0.48,
0.229,-1.68,-0.38,-2.18,-0.45,0.54,0.48,
0.23,-1.68,-0.38,-2.18,-0.46,0.51,0.49,
0.232,-1.68,-0.38,-2.18,-0.47,0.49,0.48,
0.234,-1.48,-0.35,-2.37,-0.47,0.49,0.48,
0.235,-1.48,-0.35,-2.37,-0.47,0.46,0.48,
0.237,-1.48,-0.35,-2.37,-0.48,0.44,0.47,
0.239,-1.32,-0.30,-2.68,-0.48,0.44,0.47,
0.24,-1.32,-0.30,-2.68,-0.49,0.42,0.45,
0.241,-1.32,-0.30,-2.68,-0.49,0.40,0.44,
0.244,-1.22,-0.30,-3.02,-0.49,0.40,0.44,
0.244,-1.22,-0.30,-3.02,-0.50,0.39,0.42,
0.246,-1.22,-0.30,-3.02,-0.50,0.38,0.41,
0.25,-1.22,-0.30,-3.02,-0.51,0.37,0.39,
0.25,-1.15,-0.32,-3.34,-0.51,0.37,0.39,
0.251,-1.15,-0.32,-3.34,-0.52,0.37,0.38,
0.254,-1.05,-0.41,-3.65,-0.52,0.37,0.38,
0.254,-1.05,-0.41,-3.65,-0.53,0.37,0.37,
0.256,-1.05,-0.41,-3.65,-0.54,0.39,0.36,
0.259,-0.96,-0.50,-3.97,-0.54,0.39,0.36,
0.259,-0.96,-0.50,-3.97,-0.55,0.40,0.35,
0.261,-0.96,-0.50,-3.97,-0.55,0.43,0.34,
0.265,-0.87,-0.61,-4.27,-0.55,0.43,0.34,
0.265,-0.87,-0.61,-4.27,-0.56,0.46,0.34,
0.266,-0.87,-0.61,-4.27,-0.56,0.49,0.33,
0.269,-0.87,-0.61,-4.27,-0.57,0.53,0.33,
0.269,-0.78,-0.75,-4.48,-0.57,0.53,0.33,
0.271,-0.78,-0.75,-4.48,-0.56,0.57,0.32,
0.286,-0.74,-0.90,-4.69,-0.56,0.57,0.32,
0.286,-0.74,-0.90,-4.69,-0.56,0.62,0.31,
0.286,-0.74,-0.90,-4.69,-0.55,0.68,0.30,
0.287,-0.70,-1.11,-4.89,-0.55,0.68,0.30,
0.287,-0.70,-1.11,-4.89,-0.54,0.74,0.29,
0.287,-0.70,-1.11,-4.89,-0.52,0.81,0.28,
0.287,-0.71,-1.36,-5.07,-0.52,0.81,0.28,
0.288,-0.71,-1.36,-5.07,-0.51,0.87,0.26,
0.288,-0.71,-1.36,-5.07,-0.49,0.94,0.23,
0.291,-0.68,-1.67,-5.21,-0.49,0.94,0.23,
0.292,-0.68,-1.67,-5.21,-0.46,1.01,0.21,
0.292,-0.68,-1.67,-5.21,-0.44,1.07,0.18,
0.293,-0.68,-2.01,-5.29,-0.44,1.07,0.18,
0.293,-0.68,-2.01,-5.29,-0.41,1.14,0.14,
0.296,-0.68,-2.01,-5.29,-0.39,1.20,0.10,
0.299,-0.67,-2.36,-5.26,-0.39,1.20,0.10,
0.299,-0.67,-2.36,-5.26,-0.36,1.25,0.05,
0.301,-0.67,-2.36,-5.26,-0.34,1.30,-0.00,
0.303,-0.67,-2.36,-5.26,-0.30,1.34,-0.05,
0.304,-0.67,-2.69,-5.15,-0.30,1.34,-0.05,
0.308,-0.67,-2.69,-5.15,-0.27,1.38,-0.11,
0.308,-0.66,-2.97,-4.97,-0.27,1.38,-0.11,
0.308,-0.66,-2.97,-4.97,-0.24,1.41,-0.17,
0.312,-0.66,-2.97,-4.97,-0.20,1.44,-0.24,
0.314,-0.63,-3.18,-4.82,-0.20,1.44,-0.24,
0.314,-0.63,-3.18,-4.82,-0.16,1.47,-0.30,
0.316,-0.63,-3.18,-4.82,-0.12,1.51,-0.37,
0.318,-0.59,-3.35,-4.83,-0.12,1.51,-0.37,
0.318,-0.59,-3.35,-4.83,-0.07,1.54,-0.44,
0.322,-0.59,-3.35,-4.83,-0.02,1.59,-0.51,
0.323,-0.60,-3.51,-4.97,-0.02,1.59,-0.51,
0.324,-0.60,-3.51,-4.97,0.04,1.63,-0.58,
0.327,-0.60,-3.51,-4.97,0.09,1.69,-0.65,
0.329,-0.61,-3.64,-5.26,0.09,1.69,-0.65,
0.329,-0.61,-3.64,-5.26,0.15,1.75,-0.72,
0.332,-0.61,-3.64,-5.26,0.21,1.83,-0.78,
0.333,-0.67,-3.76,-5.62,0.21,1.83,-0.78,
0.334,-0.67,-3.76,-5.62,0.26,1.91,-0.85,
0.335,-0.67,-3.76,-5.62,0.32,2.00,-0.91,
0.338,-0.74,-3.89,-6.04,0.32,2.00,-0.91,
0.338,-0.74,-3.89,-6.04,0.37,2.10,-0.97,
0.341,-0.74,-3.89,-6.04,0.41,2.21,-1.03,
0.343,-0.84,-3.98,-6.48,0.41,2.21,-1.03,
0.343,-0.84,-3.98,-6.48,0.45,2.34,-1.08,
0.345,-0.84,-3.98,-6.48,0.48,2.47,-1.13,
0.35,-0.92,-4.06,-6.90,0.48,2.47,-1.13,
0.35,-0.92,-4.06,-6.90,0.51,2.61,-1.18,
0.351,-0.92,-4.06,-6.90,0.53,2.76,-1.23,
0.353,-1.03,-4.14,-7.19,0.53,2.76,-1.23,
0.354,-1.03,-4.14,-7.19,0.54,2.90,-1.27,
0.356,-1.03,-4.14,-7.19,0.55,3.05,-1.31,
0.358,-1.15,-4.29,-7.30,0.55,3.05,-1.31,
0.359,-1.15,-4.29,-7.30,0.56,3.20,-1.35,
0.36,-1.15,-4.29,-7.30,0.55,3.33,-1.39,
0.363,-1.32,-4.44,-7.30,0.55,3.33,-1.39,
0.363,-1.32,-4.44,-7.30,0.54,3.46,-1.43,
0.365,-1.32,-4.44,-7.30,0.53,3.58,-1.47,
0.368,-1.50,-4.61,-7.22,0.53,3.58,-1.47,
0.368,-1.50,-4.61,-7.22,0.50,3.70,-1.50,
0.37,-1.50,-4.61,-7.22,0.48,3.81,-1.53,
0.373,-1.73,-4.81,-7.17,0.48,3.81,-1.53,
0.373,-1.73,-4.81,-7.17,0.45,3.92,-1.56,
0.375,-1.73,-4.81,-7.17,0.43,4.03,-1.59,
0.378,-1.99,-5.05,-7.05,0.43,4.03,-1.59,
0.378,-1.99,-5.05,-7.05,0.41,4.14,-1.62,
0.381,-1.99,-5.05,-7.05,0.38,4.23,-1.64,
0.383,-1.99,-5.05,-7.05,0.36,4.32,-1.66,
0.383,-2.28,-5.27,-6.91,0.36,4.32,-1.66,
0.385,-2.28,-5.27,-6.91,0.34,4.39,-1.68,
0.388,-2.51,-5.50,-6.69,0.34,4.39,-1.68,
0.388,-2.51,-5.50,-6.69,0.32,4.46,-1.70,
0.39,-2.51,-5.50,-6.69,0.30,4.52,-1.72,
0.393,-2.51,-5.50,-6.69,0.28,4.58,-1.73,
0.393,-2.73,-5.66,-6.53,0.28,4.58,-1.73,
0.395,-2.73,-5.66,-6.53,0.25,4.64,-1.75,
0.398,-2.73,-5.66,-6.53,0.22,4.71,-1.77,
0.399,-3.04,-5.91,-6.39,0.22,4.71,-1.77,
0.401,-3.04,-5.91,-6.39,0.20,4.77,-1.79,
0.403,-3.19,-6.14,-6.22,0.20,4.77,-1.79,
0.403,-3.19,-6.14,-6.22,0.16,4.84,-1.81,
0.405,-3.19,-6.14,-6.22,0.12,4.90,-1.83,
0.408,-3.19,-6.14,-6.22,0.07,4.97,-1.86,
0.408,-3.18,-6.30,-5.95,0.07,4.97,-1.86,
0.41,-3.18,-6.30,-5.95,0.02,5.03,-1.88,
0.413,-3.18,-6.36,-5.66,0.02,5.03,-1.88,
0.413,-3.18,-6.36,-5.66,-0.04,5.10,-1.91,
0.415,-3.18,-6.36,-5.66,-0.11,5.16,-1.94,
0.418,-3.20,-6.34,-5.43,-0.11,5.16,-1.94,
0.418,-3.20,-6.34,-5.43,-0.17,5.22,-1.96,
0.42,-3.20,-6.34,-5.43,-0.25,5.29,-1.99,
0.423,-3.24,-6.29,-5.22,-0.25,5.29,-1.99,
0.423,-3.24,-6.29,-5.22,-0.33,5.36,-2.01,
0.425,-3.24,-6.29,-5.22,-0.41,5.44,-2.03,
0.428,-3.24,-6.29,-5.22,-0.49,5.51,-2.06,
0.428,-3.26,-6.30,-4.96,-0.49,5.51,-2.06,
0.43,-3.26,-6.30,-4.96,-0.58,5.59,-2.09,
0.433,-3.14,-6.33,-4.63,-0.58,5.59,-2.09,
0.433,-3.14,-6.33,-4.63,-0.67,5.65,-2.12,
0.435,-3.14,-6.33,-4.63,-0.76,5.71,-2.15,
0.437,-3.14,-6.33,-4.63,-0.85,5.77,-2.18,
0.458,-2.98,-6.43,-4.26,-0.85,5.77,-2.18,
0.458,-2.98,-6.43,-4.26,-0.93,5.82,-2.22,
0.458,-2.88,-6.55,-3.87,-0.93,5.82,-2.22,
0.459,-2.88,-6.55,-3.87,-1.01,5.86,-2.26,
0.459,-2.88,-6.55,-3.87,-1.09,5.91,-2.31,
0.459,-2.80,-6.67,-3.44,-1.09,5.91,-2.31,
0.46,-2.80,-6.67,-3.44,-1.16,5.94,-2.35,
0.46,-2.80,-6.67,-3.44,-1.22,5.98,-2.40,
0.461,-2.75,-6.80,-2.93,-1.22,5.98,-2.40,
0.461,-2.75,-6.80,-2.93,-1.27,6.01,-2.45,
0.461,-2.75,-6.80,-2.93,-1.32,6.03,-2.50,
0.461,-2.74,-6.89,-2.34,-1.32,6.03,-2.50,
0.461,-2.74,-6.89,-2.34,-1.35,6.05,-2.54,
0.461,-2.74,-6.89,-2.34,-1.38,6.07,-2.59,
0.466,-2.77,-6.99,-1.75,-1.38,6.07,-2.59,
0.466,-2.77,-6.99,-1.75,-1.39,6.08,-2.64,
0.466,-2.77,-6.99,-1.75,-1.40,6.09,-2.68,
0.479,-2.84,-7.11,-1.20,-1.40,6.09,-2.68,
0.479,-2.84,-7.11,-1.20,-1.40,6.10,-2.72,
0.479,-2.84,-7.11,-1.20,-1.39,6.09,-2.77,
0.479,-2.85,-7.26,-0.70,-1.39,6.09,-2.77,
0.479,-2.85,-7.26,-0.70,-1.38,6.08,-2.81,
0.48,-2.85,-7.26,-0.70,-1.36,6.07,-2.85,
0.48,-2.84,-7.40,-0.30,-1.36,6.07,-2.85,
0.48,-2.84,-7.40,-0.30,-1.33,6.05,-2.90,
0.48,-2.84,-7.40,-0.30,-1.30,6.04,-2.94,
0.484,-2.84,-7.40,-0.30,-1.27,6.02,-2.99,
0.484,-2.83,-7.54,0.02,-1.27,6.02,-2.99,
0.486,-2.83,-7.54,0.02,-1.24,6.00,-3.04,
0.489,-2.80,-7.71,0.27,-1.24,6.00,-3.04,
0.489,-2.80,-7.71,0.27,-1.20,6.00,-3.10,
0.49,-2.80,-7.71,0.27,-1.16,5.99,-3.15,
0.493,-2.80,-7.71,0.27,-1.12,5.99,-3.22,
0.494,-2.78,-7.87,0.53,-1.12,5.99,-3.22,
0.496,-2.78,-7.87,0.53,-1.08,5.98,-3.28,
0.497,-2.78,-7.87,0.53,-1.04,5.98,-3.35,
0.501,-2.77,-7.96,0.83,-1.04,5.98,-3.35,
0.501,-2.77,-7.96,0.83,-1.00,5.96,-3.42,
0.503,-2.77,-7.96,0.83,-0.95,5.95,-3.49,
0.504,-2.79,-8.04,1.09,-0.95,5.95,-3.49,
0.505,-2.79,-8.04,1.09,-0.91,5.92,-3.57,
0.508,-2.79,-8.04,1.09,-0.87,5.89,-3.65,
0.508,-2.81,-8.10,1.28,-0.87,5.89,-3.65,
0.509,-2.81,-8.10,1.28,-0.83,5.86,-3.73,
0.512,-2.87,-8.16,1.47,-0.83,5.86,-3.73,
0.512,-2.87,-8.16,1.47,-0.80,5.81,-3.81,
0.514,-2.87,-8.16,1.47,-0.77,5.76,-3.89,
0.518,-2.87,-8.16,1.47,-0.74,5.69,-3.97,
0.519,-2.98,-8.26,1.62,-0.74,5.69,-3.97,
0.519,-2.98,-8.26,1.62,-0.72,5.62,-4.06,
0.522,-2.98,-8.26,1.62,-0.71,5.55,-4.15,
0.522,-3.14,-8.41,1.71,-0.71,5.55,-4.15,
0.524,-3.14,-8.41,1.71,-0.71,5.47,-4.25,
0.526,-3.14,-8.41,1.71,-0.71,5.38,-4.35,
0.527,-3.37,-8.62,1.84,-0.71,5.38,-4.35,
0.529,-3.37,-8.62,1.84,-0.73,5.29,-4.45,
0.534,-3.55,-8.79,2.02,-0.73,5.29,-4.45,
0.535,-3.55,-8.79,2.02,-0.75,5.18,-4.55,
0.535,-3.55,-8.79,2.02,-0.78,5.07,-4.66,
0.54,-3.55,-8.79,2.02,-0.82,4.95,-4.77,
0.54,-3.79,-8.86,2.23,-0.82,4.95,-4.77,
0.54,-3.79,-8.86,2.23,-0.87,4.82,-4.87,
0.544,-4.07,-8.80,2.43,-0.87,4.82,-4.87,
0.544,-4.07,-8.80,2.43,-0.92,4.67,-4.97,
0.545,-4.07,-8.80,2.43,-0.98,4.52,-5.07,
0.547,-4.07,-8.80,2.43,-1.04,4.36,-5.16,
0.547,-4.40,-8.64,2.61,-1.04,4.36,-5.16,
0.572,-4.40,-8.64,2.61,-1.11,4.19,-5.25,
0.573,-4.77,-8.42,2.80,-1.11,4.19,-5.25,
0.573,-4.77,-8.42,2.80,-1.18,4.01,-5.32,
0.574,-4.77,-8.42,2.80,-1.26,3.83,-5.39,
0.574,-4.77,-8.42,2.80,-1.34,3.65,-5.45,
0.574,-5.16,-8.16,2.97,-1.34,3.65,-5.45,
0.575,-5.16,-8.16,2.97,-1.43,3.46,-5.51,
0.575,-5.16,-8.16,2.97,-1.51,3.28,-5.55,
0.575,-5.59,-7.91,3.14,-1.51,3.28,-5.55,
0.576,-5.59,-7.91,3.14,-1.60,3.10,-5.59,
0.576,-5.59,-7.91,3.14,-1.69,2.92,-5.62,
0.577,-5.96,-7.71,3.36,-1.69,2.92,-5.62,
0.577,-5.96,-7.71,3.36,-1.78,2.75,-5.64,
0.577,-5.96,-7.71,3.36,-1.87,2.57,-5.65,
0.578,-6.27,-7.49,3.62,-1.87,2.57,-5.65,
0.578,-6.27,-7.49,3.62,-1.96,2.40,-5.66,
0.578,-6.27,-7.49,3.62,-2.05,2.23,-5.66,
0.579,-6.54,-7.27,3.89,-2.05,2.23,-5.66,
0.579,-6.54,-7.27,3.89,-2.14,2.06,-5.66,
0.582,-6.81,-7.03,4.14,-2.14,2.06,-5.66,
0.583,-6.81,-7.03,4.14,-2.23,1.90,-5.65,
0.585,-6.81,-7.03,4.14,-2.31,1.74,-5.64,
0.586,-7.06,-6.79,4.42,-2.31,1.74,-5.64,
0.587,-7.06,-6.79,4.42,-2.40,1.59,-5.63,
0.589,-7.06,-6.79,4.42,-2.47,1.45,-5.61,
0.591,-7.28,-6.58,4.65,-2.47,1.45,-5.61,
0.592,-7.28,-6.58,4.65,-2.55,1.31,-5.59,
0.594,-7.28,-6.58,4.65,-2.61,1.19,-5.56,
0.596,-7.28,-6.58,4.65,-2.68,1.07,-5.54,
0.596,-7.44,-6.40,4.91,-2.68,1.07,-5.54,
0.599,-7.44,-6.40,4.91,-2.74,0.95,-5.51,
0.604,-7.44,-6.40,4.91,-2.79,0.84,-5.48,
0.604,-7.44,-6.40,4.91,-2.83,0.74,-5.46,
0.619,-7.59,-6.29,5.15,-2.83,0.74,-5.46,
0.619,-7.59,-6.29,5.15,-2.88,0.64,-5.43,
0.62,-7.69,-6.24,5.40,-2.88,0.64,-5.43,
0.62,-7.69,-6.24,5.40,-2.91,0.54,-5.40,
0.62,-7.69,-6.24,5.40,-2.94,0.45,-5.38,
0.62,-7.81,-6.20,5.62,-2.94,0.45,-5.38,
0.621,-7.81,-6.20,5.62,-2.97,0.37,-5.36,
0.621,-7.94,-6.20,5.78,-2.97,0.37,-5.36,
0.621,-7.94,-6.20,5.78,-2.99,0.29,-5.34,
0.621,-7.94,-6.20,5.78,-3.00,0.21,-5.32,
0.622,-7.94,-6.20,5.78,-3.01,0.14,-5.30,
0.622,-8.08,-6.22,5.94,-3.01,0.14,-5.30,
0.624,-8.08,-6.22,5.94,-3.02,0.08,-5.29,
0.626,-8.08,-6.22,5.94,-3.03,0.01,-5.27,
0.626,-8.21,-6.27,6.01,-3.03,0.01,-5.27,
0.628,-8.21,-6.27,6.01,-3.03,-0.04,-5.26,
0.635,-8.21,-6.27,6.01,-3.02,-0.09,-5.25,
0.636,-8.38,-6.20,6.10,-3.02,-0.09,-5.25,
0.636,-8.38,-6.20,6.10,-3.02,-0.14,-5.25,
0.636,-8.38,-6.20,6.10,-3.01,-0.17,-5.24,
0.636,-8.55,-6.09,6.16,-3.01,-0.17,-5.24,
0.638,-8.55,-6.09,6.16,-2.99,-0.20,-5.23,
0.641,-8.75,-5.91,6.23,-2.99,-0.20,-5.23,
0.641,-8.75,-5.91,6.23,-2.97,-0.22,-5.22,
0.643,-8.75,-5.91,6.23,-2.95,-0.24,-5.21,
0.646,-8.75,-5.91,6.23,-2.93,-0.25,-5.20,
0.646,-8.96,-5.64,6.25,-2.93,-0.25,-5.20,
0.664,-8.96,-5.64,6.25,-2.89,-0.25,-5.19,
0.664,-8.96,-5.64,6.25,-2.86,-0.25,-5.17,
0.664,-9.18,-5.32,6.36,-2.86,-0.25,-5.17,
0.665,-9.18,-5.32,6.36,-2.82,-0.25,-5.16,
0.665,-9.18,-5.32,6.36,-2.77,-0.25,-5.14,
0.665,-9.39,-5.00,6.46,-2.77,-0.25,-5.14,
0.665,-9.39,-5.00,6.46,-2.72,-0.24,-5.13,
0.665,-9.39,-5.00,6.46,-2.67,-0.23,-5.11,
0.665,-9.57,-4.68,6.56,-2.67,-0.23,-5.11,
0.666,-9.57,-4.68,6.56,-2.62,-0.22,-5.08,
0.668,-9.77,-4.29,6.69,-2.62,-0.22,-5.08,
0.668,-9.77,-4.29,6.69,-2.56,-0.21,-5.06,
0.668,-9.77,-4.29,6.69,-2.51,-0.20,-5.03,
0.671,-9.90,-3.93,6.75,-2.51,-0.20,-5.03,
0.671,-9.90,-3.93,6.75,-2.45,-0.19,-5.01,
0.673,-9.90,-3.93,6.75,-2.39,-0.18,-4.97,
0.676,-9.90,-3.93,6.75,-2.33,-0.17,-4.94,
0.677,-10.05,-3.57,6.81,-2.33,-0.17,-4.94,
0.679,-10.05,-3.57,6.81,-2.27,-0.15,-4.91,
0.681,-10.05,-3.57,6.81,-2.21,-0.14,-4.87,
0.682,-10.17,-3.18,6.85,-2.21,-0.14,-4.87,
0.686,-10.17,-3.18,6.85,-2.15,-0.13,-4.83,
0.687,-10.30,-2.80,6.90,-2.15,-0.13,-4.83,
0.687,-10.30,-2.80,6.90,-2.08,-0.11,-4.80,
0.688,-10.30,-2.80,6.90,-2.02,-0.10,-4.76,
0.69,-10.30,-2.80,6.90,-1.95,-0.09,-4.73,
0.691,-10.50,-2.39,6.94,-1.95,-0.09,-4.73,
0.693,-10.50,-2.39,6.94,-1.89,-0.08,-4.69,
0.695,-10.50,-2.39,6.94,-1.82,-0.07,-4.65,
0.696,-10.76,-1.94,6.97,-1.82,-0.07,-4.65,
0.698,-10.76,-1.94,6.97,-1.75,-0.07,-4.62,
0.704,-10.76,-1.94,6.97,-1.68,-0.07,-4.58,
0.705,-10.97,-1.44,7.03,-1.68,-0.07,-4.58,
0.705,-10.97,-1.44,7.03,-1.60,-0.07,-4.54,
0.706,-10.97,-1.44,7.03,-1.53,-0.07,-4.50,
0.707,-11.20,-0.89,7.02,-1.53,-0.07,-4.50,
0.708,-11.20,-0.89,7.02,-1.45,-0.07,-4.45,
0.71,-11.20,-0.89,7.02,-1.37,-0.08,-4.39,
0.711,-11.42,-0.31,6.96,-1.37,-0.08,-4.39,
0.712,-11.42,-0.31,6.96,-1.30,-0.09,-4.34,
0.715,-11.42,-0.31,6.96,-1.22,-0.10,-4.27,
0.716,-11.62,0.26,6.89,-1.22,-0.10,-4.27,
0.718,-11.62,0.26,6.89,-1.14,-0.10,-4.21,
0.72,-11.62,0.26,6.89,-1.07,-0.11,-4.14,
0.721,-11.83,0.75,6.79,-1.07,-0.11,-4.14,
0.722,-11.83,0.75,6.79,-0.99,-0.12,-4.06,
0.725,-11.83,0.75,6.79,-0.92,-0.13,-3.98,
0.725,-11.94,1.28,6.69,-0.92,-0.13,-3.98,
0.727,-11.94,1.28,6.69,-0.85,-0.15,-3.91,
0.73,-11.94,1.28,6.69,-0.79,-0.17,-3.82,
0.73,-12.01,1.78,6.60,-0.79,-0.17,-3.82,
0.732,-12.01,1.78,6.60,-0.73,-0.19,-3.74,
0.735,-12.01,1.78,6.60,-0.67,-0.21,-3.65,
0.735,-12.04,2.27,6.41,-0.67,-0.21,-3.65,
0.737,-12.04,2.27,6.41,-0.63,-0.23,-3.56,
0.74,-12.04,2.27,6.41,-0.58,-0.25,-3.47,
0.74,-12.03,2.72,6.25,-0.58,-0.25,-3.47,
0.742,-12.03,2.72,6.25,-0.54,-0.27,-3.37,
0.745,-12.00,3.10,6.04,-0.54,-0.27,-3.37,
0.745,-12.00,3.10,6.04,-0.51,-0.30,-3.28,
0.747,-12.00,3.10,6.04,-0.48,-0.32,-3.18,
0.751,-11.90,3.41,5.83,-0.48,-0.32,-3.18,
0.751,-11.90,3.41,5.83,-0.45,-0.35,-3.09,
0.752,-11.90,3.41,5.83,-0.43,-0.38,-3.00,
0.755,-11.90,3.41,5.83,-0.42,-0.41,-2.91,
0.755,-11.72,3.69,5.69,-0.42,-0.41,-2.91,
0.757,-11.72,3.69,5.69,-0.41,-0.45,-2.82,
0.76,-11.47,3.91,5.52,-0.41,-0.45,-2.82,
0.76,-11.47,3.91,5.52,-0.40,-0.49,-2.74,
0.762,-11.47,3.91,5.52,-0.39,-0.53,-2.66,
0.767,-11.47,3.91,5.52,-0.39,-0.57,-2.59,
0.767,-11.19,4.14,5.40,-0.39,-0.57,-2.59,
0.767,-11.19,4.14,5.40,-0.38,-0.61,-2.52,
0.78,-11.19,4.14,5.40,-0.37,-0.66,-2.45,
0.78,-10.89,4.38,5.27,-0.37,-0.66,-2.45,
0.78,-10.89,4.38,5.27,-0.37,-0.70,-2.39,
0.78,-10.59,4.61,5.11,-0.37,-0.70,-2.39,
0.781,-10.59,4.61,5.11,-0.36,-0.74,-2.33,
0.781,-10.59,4.61,5.11,-0.35,-0.78,-2.28,
0.781,-10.59,4.61,5.11,-0.34,-0.82,-2.23,
0.781,-10.36,4.84,4.90,-0.34,-0.82,-2.23,
0.782,-10.36,4.84,4.90,-0.33,-0.85,-2.18,
0.785,-10.36,4.84,4.90,-0.33,-0.88,-2.13,
0.786,-10.13,5.03,4.66,-0.33,-0.88,-2.13,
0.787,-10.13,5.03,4.66,-0.32,-0.91,-2.09,
0.79,-10.13,5.03,4.66,-0.32,-0.94,-2.05,
0.79,-9.98,5.17,4.40,-0.32,-0.94,-2.05,
0.792,-9.98,5.17,4.40,-0.31,-0.97,-2.01,
0.794,-9.98,5.17,4.40,-0.31,-1.01,-1.97,
0.795,-9.98,5.30,4.13,-0.31,-1.01,-1.97,
0.797,-9.98,5.30,4.13,-0.30,-1.04,-1.94,
0.799,-9.98,5.30,4.13,-0.30,-1.07,-1.90,
0.8,-10.13,5.47,3.82,-0.30,-1.07,-1.90,
0.802,-10.13,5.47,3.82,-0.30,-1.11,-1.87,
0.805,-10.13,5.47,3.82,-0.29,-1.14,-1.83,
0.805,-10.32,5.76,3.56,-0.29,-1.14,-1.83,
0.807,-10.32,5.76,3.56,-0.29,-1.18,-1.78,
0.809,-10.32,5.76,3.56,-0.29,-1.22,-1.73,
0.809,-10.48,6.06,3.28,-0.29,-1.22,-1.73,
0.811,-10.48,6.06,3.28,-0.28,-1.25,-1.68,
0.814,-10.48,6.06,3.28,-0.28,-1.27,-1.62,
0.814,-10.61,6.29,2.96,-0.28,-1.27,-1.62,
0.817,-10.61,6.29,2.96,-0.28,-1.30,-1.56,
0.819,-10.61,6.29,2.96,-0.28,-1.32,-1.50,
0.819,-10.61,6.48,2.65,-0.28,-1.32,-1.50,
0.821,-10.61,6.48,2.65,-0.28,-1.33,-1.43,
0.825,-10.61,6.48,2.65,-0.29,-1.34,-1.36,
0.825,-10.54,6.64,2.36,-0.29,-1.34,-1.36,
0.827,-10.54,6.64,2.36,-0.30,-1.34,-1.29,
0.829,-10.40,6.77,2.10,-0.30,-1.34,-1.29,
0.83,-10.40,6.77,2.10,-0.31,-1.34,-1.22,
0.834,-10.40,6.77,2.10,-0.32,-1.33,-1.15,
0.845,-10.25,6.86,1.87,-0.32,-1.33,-1.15,
0.845,-10.25,6.86,1.87,-0.34,-1.32,-1.08,
0.845,-10.25,6.86,1.87,-0.36,-1.30,-1.00,
0.845,-10.25,6.86,1.87,-0.38,-1.28,-0.94,
0.846,-10.07,6.91,1.73,-0.38,-1.28,-0.94,
0.846,-10.07,6.91,1.73,-0.41,-1.25,-0.87,
0.846,-10.07,6.91,1.73,-0.44,-1.23,-0.80,
0.846,-9.85,6.92,1.64,-0.44,-1.23,-0.80,
0.847,-9.85,6.92,1.64,-0.46,-1.20,-0.74,
0.854,-9.85,6.92,1.64,-0.49,-1.17,-0.69,
0.854,-9.59,6.89,1.62,-0.49,-1.17,-0.69,
0.854,-9.59,6.89,1.62,-0.52,-1.14,-0.64,
0.854,-9.59,6.89,1.62,-0.55,-1.11,-0.59,
0.854,-9.35,6.81,1.68,-0.55,-1.11,-0.59,
0.857,-9.35,6.81,1.68,-0.58,-1.08,-0.54,
0.859,-9.35,6.81,1.68,-0.61,-1.05,-0.50,
0.859,-9.16,6.69,1.87,-0.61,-1.05,-0.50,
0.863,-9.16,6.69,1.87,-0.64,-1.02,-0.47,
0.865,-9.16,6.69,1.87,-0.66,-0.99,-0.44,
0.865,-9.03,6.48,2.11,-0.66,-0.99,-0.44,
0.868,-9.03,6.48,2.11,-0.69,-0.96,-0.41,
0.871,-8.91,6.25,2.40,-0.69,-0.96,-0.41,
0.872,-8.91,6.25,2.40,-0.71,-0.94,-0.39,
0.873,-8.91,6.25,2.40,-0.72,-0.91,-0.37,
0.874,-8.75,6.02,2.74,-0.72,-0.91,-0.37,
0.874,-8.75,6.02,2.74,-0.74,-0.88,-0.36,
0.877,-8.75,6.02,2.74,-0.75,-0.85,-0.34,
0.879,-8.64,5.85,3.12,-0.75,-0.85,-0.34,
0.879,-8.64,5.85,3.12,-0.75,-0.81,-0.33,
0.881,-8.64,5.85,3.12,-0.75,-0.78,-0.32,
0.884,-8.53,5.71,3.52,-0.75,-0.78,-0.32,
0.884,-8.53,5.71,3.52,-0.75,-0.74,-0.30,
0.886,-8.53,5.71,3.52,-0.74,-0.70,-0.29,
0.889,-8.50,5.55,3.92,-0.74,-0.70,-0.29,
0.889,-8.50,5.55,3.92,-0.73,-0.66,-0.28,
0.891,-8.50,5.55,3.92,-0.71,-0.62,-0.27,
0.894,-8.50,5.55,3.92,-0.69,-0.57,-0.25,
0.894,-8.55,5.39,4.27,-0.69,-0.57,-0.25,
0.896,-8.55,5.39,4.27,-0.66,-0.52,-0.24,
0.899,-8.66,5.20,4.61,-0.66,-0.52,-0.24,
0.9,-8.66,5.20,4.61,-0.62,-0.46,-0.22,
0.902,-8.66,5.20,4.61,-0.58,-0.40,-0.21,
0.904,-8.66,5.20,4.61,-0.53,-0.34,-0.19,
0.904,-8.84,4.96,4.95,-0.53,-0.34,-0.19,
0.906,-8.84,4.96,4.95,-0.48,-0.27,-0.17,
0.908,-8.84,4.96,4.95,-0.42,-0.21,-0.15,
0.909,-9.12,4.69,5.30,-0.42,-0.21,-0.15,
0.911,-9.12,4.69,5.30,-0.35,-0.14,-0.13,
0.913,-9.12,4.69,5.30,-0.28,-0.06,-0.11,
0.914,-9.45,4.41,5.61,-0.28,-0.06,-0.11,
0.916,-9.45,4.41,5.61,-0.20,0.01,-0.09,
0.919,-9.45,4.41,5.61,-0.11,0.08,-0.07,
0.919,-9.82,4.19,5.97,-0.11,0.08,-0.07,
0.921,-9.82,4.19,5.97,-0.01,0.15,-0.05,
0.923,-9.82,4.19,5.97,0.10,0.22,-0.03,
0.924,-10.22,4.10,6.27,0.10,0.22,-0.03,
0.926,-10.22,4.10,6.27,0.21,0.28,0.00,
0.928,-10.22,4.10,6.27,0.33,0.35,0.03,
0.929,-10.59,4.11,6.55,0.33,0.35,0.03,
0.931,-10.59,4.11,6.55,0.46,0.40,0.06,
0.935,-10.59,4.11,6.55,0.59,0.46,0.10,
0.968,-10.92,4.20,6.68,0.59,0.46,0.10,
0.969,-10.92,4.20,6.68,0.72,0.50,0.14,
0.969,-10.92,4.20,6.68,0.86,0.54,0.18,
0.97,-11.24,4.30,6.68,0.86,0.54,0.18,
0.97,-11.24,4.30,6.68,1.00,0.58,0.22,
0.971,-11.24,4.30,6.68,1.14,0.61,0.27,
0.971,-11.56,4.39,6.59,1.14,0.61,0.27,
0.972,-11.56,4.39,6.59,1.28,0.63,0.31,
0.972,-11.56,4.39,6.59,1.42,0.65,0.36,
0.973,-11.89,4.42,6.46,1.42,0.65,0.36,
0.973,-11.89,4.42,6.46,1.55,0.67,0.41,
0.974,-11.89,4.42,6.46,1.68,0.67,0.46,
0.974,-12.20,4.41,6.22,1.68,0.67,0.46,
0.974,-12.20,4.41,6.22,1.81,0.67,0.51,
0.975,-12.20,4.41,6.22,1.93,0.67,0.57,
0.975,-12.40,4.51,5.90,1.93,0.67,0.57,
0.976,-12.40,4.51,5.90,2.04,0.67,0.63,
0.976,-12.40,4.51,5.90,2.14,0.66,0.69,
0.976,-12.44,4.75,5.51,2.14,0.66,0.69,
0.977,-12.44,4.75,5.51,2.24,0.65,0.76,
0.977,-12.44,4.75,5.51,2.33,0.64,0.84,
0.978,-12.33,5.12,4.98,2.33,0.64,0.84,
0.978,-12.33,5.12,4.98,2.40,0.64,0.92,
0.978,-12.33,5.12,4.98,2.47,0.65,1.00,
0.979,-12.14,5.50,4.42,2.47,0.65,1.00,
0.979,-12.14,5.50,4.42,2.52,0.66,1.09,
0.98,-12.14,5.50,4.42,2.56,0.68,1.19,
0.98,-11.95,5.79,3.82,2.56,0.68,1.19,
0.981,-11.95,5.79,3.82,2.59,0.70,1.30,
0.991,-11.95,5.79,3.82,2.61,0.74,1.41,
0.992,-11.79,6.01,3.23,2.61,0.74,1.41,
0.993,-11.79,6.01,3.23,2.62,0.78,1.52,
0.993,-11.79,6.01,3.23,2.61,0.83,1.64,
0.994,-11.60,6.09,2.71,2.61,0.83,1.64,
0.994,-11.60,6.09,2.71,2.60,0.88,1.77,
0.995,-11.60,6.09,2.71,2.58,0.94,1.89,
0.996,-11.38,6.03,2.28,2.58,0.94,1.89,
0.996,-11.38,6.03,2.28,2.55,0.99,2.02,
0.998,-11.38,6.03,2.28,2.51,1.05,2.14,
0.998,-11.19,5.84,1.98,2.51,1.05,2.14,
1.016,-11.19,5.84,1.98,2.47,1.10,2.26,
1.016,-10.96,5.51,1.81,2.47,1.10,2.26,
1.017,-10.96,5.51,1.81,2.43,1.15,2.38,
1.017,-10.96,5.51,1.81,2.38,1.20,2.49,
1.017,-10.75,5.06,1.78,2.38,1.20,2.49,
1.017,-10.75,5.06,1.78,2.33,1.25,2.60,
1.017,-10.75,5.06,1.78,2.28,1.29,2.70,
1.017,-10.56,4.50,1.83,2.28,1.29,2.70,
1.017,-10.56,4.50,1.83,2.24,1.32,2.80,
1.018,-10.56,4.50,1.83,2.19,1.36,2.89,
1.019,-10.42,3.87,1.96,2.19,1.36,2.89,
1.019,-10.42,3.87,1.96,2.15,1.39,2.98,
1.021,-10.42,3.87,1.96,2.12,1.42,3.05,
1.022,-10.42,3.87,1.96,2.09,1.45,3.13,
1.023,-10.40,3.22,2.15,2.09,1.45,3.13,
1.025,-10.40,3.22,2.15,2.06,1.49,3.20,
1.027,-10.40,3.22,2.15,2.04,1.52,3.27,
1.027,-10.53,2.52,2.39,2.04,1.52,3.27,
1.03,-10.53,2.52,2.39,2.03,1.56,3.33,
1.033,-10.53,2.52,2.39,2.03,1.59,3.39,
1.034,-10.88,1.72,2.65,2.03,1.59,3.39,
1.035,-10.88,1.72,2.65,2.03,1.63,3.46,
1.037,-11.44,0.76,2.83,2.03,1.63,3.46,
1.038,-11.44,0.76,2.83,2.03,1.68,3.52,
1.04,-11.44,0.76,2.83,2.04,1.72,3.59,
1.042,-11.44,0.76,2.83,2.05,1.77,3.65,
1.043,-12.11,-0.38,3.05,2.05,1.77,3.65,
1.045,-12.11,-0.38,3.05,2.06,1.81,3.72,
1.047,-12.11,-0.38,3.05,2.07,1.85,3.79,
1.048,-12.81,-1.61,3.30,2.07,1.85,3.79,
1.054,-12.81,-1.61,3.30,2.08,1.88,3.86,
1.055,-12.81,-1.61,3.30,2.09,1.91,3.93,
1.055,-13.54,-2.79,3.57,2.09,1.91,3.93,
1.055,-13.54,-2.79,3.57,2.09,1.92,4.00,
1.057,-13.54,-2.79,3.57,2.09,1.92,4.09,
1.058,-14.19,-3.87,3.90,2.09,1.92,4.09,
1.061,-14.19,-3.87,3.90,2.08,1.90,4.17,
1.063,-14.73,-4.89,4.18,2.08,1.90,4.17,
1.063,-14.73,-4.89,4.18,2.06,1.87,4.26,
1.065,-14.73,-4.89,4.18,2.03,1.82,4.35,
1.088,-14.73,-4.89,4.18,2.00,1.74,4.44,
1.089,-15.01,-5.83,4.41,2.00,1.74,4.44,
1.09,-14.98,-6.58,4.65,2.00,1.74,4.44,
1.09,-14.98,-6.58,4.65,1.96,1.66,4.54,
1.09,-14.98,-6.58,4.65,1.92,1.55,4.63,
1.091,-14.98,-6.58,4.65,1.86,1.42,4.73,
1.091,-14.98,-6.58,4.65,1.80,1.28,4.82,
1.092,-14.70,-7.20,4.81,1.80,1.28,4.82,
1.092,-14.70,-7.20,4.81,1.73,1.14,4.92,
1.093,-14.70,-7.20,4.81,1.66,0.98,5.00,
1.093,-14.18,-7.73,5.04,1.66,0.98,5.00,
1.094,-14.18,-7.73,5.04,1.58,0.82,5.09,
1.094,-14.18,-7.73,5.04,1.50,0.65,5.18,
1.094,-13.53,-8.18,5.24,1.50,0.65,5.18,
1.095,-13.53,-8.18,5.24,1.42,0.50,5.26,
1.095,-13.53,-8.18,5.24,1.34,0.34,5.35,
1.096,-12.74,-8.52,5.37,1.34,0.34,5.35,
1.096,-12.74,-8.52,5.37,1.26,0.19,5.43,
1.097,-12.74,-8.52,5.37,1.18,0.03,5.52,
1.098,-11.80,-8.82,5.48,1.18,0.03,5.52,
1.119,-11.80,-8.82,5.48,1.11,-0.14,5.61,
1.119,-11.80,-8.82,5.48,1.04,-0.32,5.70,
1.12,-10.88,-9.13,5.57,1.04,-0.32,5.70,
1.121,-10.88,-9.13,5.57,0.98,-0.50,5.77,
1.121,-10.88,-9.13,5.57,0.92,-0.68,5.85,
1.122,-9.97,-9.47,5.66,0.92,-0.68,5.85,
1.122,-9.97,-9.47,5.66,0.88,-0.86,5.92,
1.122,-9.06,-9.85,5.75,0.88,-0.86,5.92,
1.122,-9.06,-9.85,5.75,0.84,-1.04,5.98,
1.123,-9.06,-9.85,5.75,0.81,-1.21,6.03,
1.123,-8.20,-10.33,5.76,0.81,-1.21,6.03,
1.123,-8.20,-10.33,5.76,0.80,-1.38,6.07,
1.123,-8.20,-10.33,5.76,0.79,-1.54,6.11,
1.124,-8.20,-10.33,5.76,0.79,-1.70,6.13,
1.124,-7.38,-10.89,5.70,0.79,-1.70,6.13,
1.124,-7.38,-10.89,5.70,0.79,-1.85,6.15,
1.127,-7.38,-10.89,5.70,0.81,-2.00,6.15,
1.127,-6.63,-11.51,5.53,0.81,-2.00,6.15,
1.129,-6.63,-11.51,5.53,0.84,-2.14,6.15,
1.132,-6.63,-11.51,5.53,0.88,-2.27,6.14,
1.132,-5.94,-12.15,5.31,0.88,-2.27,6.14,
1.137,-5.94,-12.15,5.31,0.92,-2.39,6.12,
1.137,-5.94,-12.15,5.31,0.97,-2.50,6.09,
1.138,-5.31,-12.78,5.01,0.97,-2.50,6.09,
1.139,-5.31,-12.78,5.01,1.02,-2.61,6.05,
1.145,-5.31,-12.78,5.01,1.08,-2.69,6.00,
1.145,-4.77,-13.36,4.61,1.08,-2.69,6.00,
1.145,-4.77,-13.36,4.61,1.15,-2.76,5.95,
1.146,-4.77,-13.36,4.61,1.21,-2.82,5.89,
1.147,-4.25,-13.77,4.07,1.21,-2.82,5.89,
1.149,-4.25,-13.77,4.07,1.28,-2.87,5.83,
1.152,-4.25,-13.77,4.07,1.35,-2.90,5.76,
1.152,-3.73,-14.04,3.52,1.35,-2.90,5.76,
1.154,-3.73,-14.04,3.52,1.42,-2.92,5.69,
1.156,-3.73,-14.04,3.52,1.48,-2.93,5.62,
1.156,-3.16,-14.12,2.93,1.48,-2.93,5.62,
1.159,-3.16,-14.12,2.93,1.55,-2.94,5.54,
1.162,-3.16,-14.12,2.93,1.61,-2.93,5.47,
1.162,-2.55,-14.05,2.35,1.61,-2.93,5.47,
1.164,-2.55,-14.05,2.35,1.67,-2.91,5.39,
1.167,-2.00,-13.90,1.77,1.67,-2.91,5.39,
1.167,-2.00,-13.90,1.77,1.72,-2.89,5.31,
1.17,-2.00,-13.90,1.77,1.78,-2.86,5.23,
1.171,-2.00,-13.90,1.77,1.83,-2.83,5.15,
1.171,-1.53,-13.69,1.22,1.83,-2.83,5.15,
1.174,-1.53,-13.69,1.22,1.88,-2.79,5.07,
1.176,-1.53,-13.69,1.22,1.92,-2.74,5.00,
1.176,-1.15,-13.50,0.66,1.92,-2.74,5.00,
1.178,-1.15,-13.50,0.66,1.96,-2.69,4.92,
1.181,-1.15,-13.50,0.66,2.00,-2.63,4.85,
1.181,-0.81,-13.32,0.15,2.00,-2.63,4.85,
1.185,-0.81,-13.32,0.15,2.03,-2.57,4.78,
1.187,-0.81,-13.32,0.15,2.06,-2.50,4.72,
1.187,-0.47,-13.12,-0.29,2.06,-2.50,4.72,
1.189,-0.47,-13.12,-0.29,2.09,-2.44,4.65,
1.191,-0.47,-13.12,-0.29,2.12,-2.36,4.59,
1.191,-0.12,-12.85,-0.70,2.12,-2.36,4.59,
1.193,-0.12,-12.85,-0.70,2.14,-2.28,4.54,
1.196,-0.12,-12.85,-0.70,2.17,-2.19,4.48,
1.196,0.18,-12.53,-1.08,2.17,-2.19,4.48,
1.198,0.18,-12.53,-1.08,2.19,-2.10,4.44,
1.201,0.48,-12.22,-1.40,2.19,-2.10,4.44,
1.202,0.48,-12.22,-1.40,2.22,-2.01,4.39,
1.204,0.48,-12.22,-1.40,2.24,-1.92,4.35,
1.206,0.48,-12.22,-1.40,2.26,-1.82,4.31,
1.206,0.71,-11.90,-1.65,2.26,-1.82,4.31,
1.208,0.71,-11.90,-1.65,2.28,-1.73,4.28,
1.211,0.89,-11.65,-1.85,2.28,-1.73,4.28,
1.211,0.89,-11.65,-1.85,2.30,-1.63,4.25,
1.213,0.89,-11.65,-1.85,2.31,-1.54,4.22,
1.216,0.89,-11.65,-1.85,2.33,-1.44,4.20,
1.217,1.00,-11.47,-1.98,2.33,-1.44,4.20,
1.219,1.00,-11.47,-1.98,2.35,-1.35,4.19,
1.221,1.07,-11.35,-2.05,2.35,-1.35,4.19,
1.221,1.07,-11.35,-2.05,2.36,-1.25,4.18,
1.223,1.07,-11.35,-2.05,2.38,-1.16,4.17,
1.227,1.07,-11.35,-2.05,2.39,-1.08,4.16,
1.227,1.16,-11.29,-2.08,2.39,-1.08,4.16,
1.228,1.16,-11.29,-2.08,2.40,-0.99,4.16,
1.231,1.16,-11.29,-2.08,2.41,-0.90,4.16,
1.231,1.25,-11.31,-2.14,2.41,-0.90,4.16,
1.234,1.25,-11.31,-2.14,2.42,-0.82,4.16,
1.236,1.38,-11.40,-2.16,2.42,-0.82,4.16,
1.236,1.38,-11.40,-2.16,2.44,-0.75,4.16,
1.238,1.38,-11.40,-2.16,2.45,-0.67,4.16,
1.241,1.38,-11.40,-2.16,2.46,-0.60,4.16,
1.242,1.56,-11.51,-2.09,2.46,-0.60,4.16,
1.243,1.56,-11.51,-2.09,2.47,-0.54,4.16,
1.246,1.56,-11.51,-2.09,2.49,-0.47,4.15,
1.246,1.78,-11.60,-2.03,2.49,-0.47,4.15,
1.248,1.78,-11.60,-2.03,2.50,-0.42,4.14,
1.253,1.78,-11.60,-2.03,2.52,-0.36,4.13,
1.253,2.03,-11.71,-1.95,2.52,-0.36,4.13,
1.256,2.03,-11.71,-1.95,2.53,-0.31,4.12,
1.256,2.03,-11.71,-1.95,2.55,-0.26,4.10,
1.257,2.34,-11.79,-1.87,2.55,-0.26,4.10,
1.262,2.34,-11.79,-1.87,2.57,-0.22,4.08,
1.262,2.34,-11.79,-1.87,2.58,-0.18,4.06,
1.263,2.69,-11.90,-1.88,2.58,-0.18,4.06,
1.264,2.69,-11.90,-1.88,2.60,-0.14,4.03,
1.292,2.69,-11.90,-1.88,2.61,-0.10,4.00,
1.292,3.06,-12.07,-1.91,2.61,-0.10,4.00,
1.292,3.06,-12.07,-1.91,2.63,-0.07,3.96,
1.293,3.06,-12.07,-1.91,2.64,-0.03,3.92,
1.293,3.40,-12.20,-1.94,2.64,-0.03,3.92,
1.293,3.40,-12.20,-1.94,2.65,0.01,3.87,
1.294,3.40,-12.20,-1.94,2.67,0.05,3.82,
1.294,3.70,-12.33,-1.99,2.67,0.05,3.82,
1.294,3.70,-12.33,-1.99,2.68,0.09,3.77,
1.295,3.70,-12.33,-1.99,2.69,0.13,3.72,
1.295,4.03,-12.52,-2.03,2.69,0.13,3.72,
1.295,4.03,-12.52,-2.03,2.71,0.17,3.66,
1.296,4.39,-12.68,-2.04,2.71,0.17,3.66,
1.296,4.39,-12.68,-2.04,2.72,0.21,3.59,
1.296,4.39,-12.68,-2.04,2.73,0.25,3.53,
1.297,4.79,-12.78,-2.07,2.73,0.25,3.53,
1.297,4.79,-12.78,-2.07,2.74,0.29,3.46,
1.297,4.79,-12.78,-2.07,2.75,0.33,3.38,
1.298,4.79,-12.78,-2.07,2.76,0.38,3.31,
1.298,5.18,-12.81,-2.08,2.76,0.38,3.31,
1.298,5.18,-12.81,-2.08,2.77,0.42,3.23,
1.301,5.49,-12.82,-2.11,2.77,0.42,3.23,
1.302,5.49,-12.82,-2.11,2.78,0.47,3.14,
1.304,5.49,-12.82,-2.11,2.80,0.52,3.06,
1.305,5.49,-12.82,-2.11,2.81,0.56,2.98,
1.306,5.69,-12.84,-2.12,2.81,0.56,2.98,
1.308,5.69,-12.84,-2.12,2.82,0.61,2.89,
1.31,5.69,-12.84,-2.12,2.82,0.66,2.81,
1.31,5.82,-12.88,-2.18,2.82,0.66,2.81,
1.312,5.82,-12.88,-2.18,2.83,0.70,2.72,
1.315,5.82,-12.88,-2.18,2.83,0.75,2.64,
1.315,5.85,-12.95,-2.24,2.83,0.75,2.64,
1.318,5.85,-12.95,-2.24,2.83,0.80,2.55,
1.32,5.85,-12.95,-2.24,2.82,0.84,2.47,
1.32,5.87,-13.09,-2.39,2.82,0.84,2.47,
1.323,5.87,-13.09,-2.39,2.81,0.89,2.39,
1.325,5.87,-13.09,-2.39,2.79,0.93,2.30,
1.325,5.92,-13.31,-2.50,2.79,0.93,2.30,
1.328,5.92,-13.31,-2.50,2.78,0.97,2.21,
1.331,5.92,-13.31,-2.50,2.75,1.01,2.12,
1.331,6.05,-13.47,-2.61,2.75,1.01,2.12,
1.332,6.05,-13.47,-2.61,2.72,1.05,2.03,
1.335,6.17,-13.56,-2.73,2.72,1.05,2.03,
1.335,6.17,-13.56,-2.73,2.69,1.10,1.94,
1.338,6.17,-13.56,-2.73,2.66,1.15,1.84,
1.341,6.17,-13.56,-2.73,2.63,1.21,1.74,
1.341,6.23,-13.68,-2.81,2.63,1.21,1.74,
1.343,6.23,-13.68,-2.81,2.60,1.26,1.63,
1.345,6.23,-13.68,-2.81,2.56,1.31,1.53,
1.345,6.37,-13.80,-2.70,2.56,1.31,1.53,
1.347,6.37,-13.80,-2.70,2.53,1.35,1.42,
1.353,6.37,-13.80,-2.70,2.49,1.39,1.30,
1.353,6.50,-13.80,-2.46,2.49,1.39,1.30,
1.354,6.50,-13.80,-2.46,2.46,1.43,1.19,
1.357,6.50,-13.80,-2.46,2.43,1.45,1.08,
1.357,6.50,-13.80,-2.46,2.40,1.48,0.96,
1.358,6.63,-13.71,-2.15,2.40,1.48,0.96,
1.36,6.63,-13.71,-2.15,2.38,1.50,0.85,
1.361,6.68,-13.57,-1.88,2.38,1.50,0.85,
1.363,6.68,-13.57,-1.88,2.36,1.52,0.74,
1.365,6.68,-13.57,-1.88,2.34,1.54,0.63,
1.365,6.71,-13.42,-1.59,2.34,1.54,0.63,
1.372,6.71,-13.42,-1.59,2.32,1.55,0.52,
1.372,6.71,-13.42,-1.59,2.31,1.56,0.41,
1.372,6.76,-13.31,-1.28,2.31,1.56,0.41,
1.373,6.76,-13.31,-1.28,2.30,1.56,0.31,
1.374,6.76,-13.31,-1.28,2.29,1.57,0.21,
1.375,6.69,-13.12,-1.03,2.29,1.57,0.21,
1.377,6.69,-13.12,-1.03,2.29,1.57,0.12,
1.379,6.69,-13.12,-1.03,2.29,1.58,0.03,
1.379,6.55,-12.90,-0.87,2.29,1.58,0.03,
1.382,6.55,-12.90,-0.87,2.29,1.60,-0.06,
1.385,6.42,-12.70,-0.75,2.29,1.60,-0.06,
1.385,6.42,-12.70,-0.75,2.29,1.61,-0.14,
1.388,6.42,-12.70,-0.75,2.29,1.62,-0.22,
1.389,6.42,-12.70,-0.75,2.29,1.64,-0.31,
1.389,6.29,-12.60,-0.68,2.29,1.64,-0.31,
1.392,6.29,-12.60,-0.68,2.28,1.65,-0.39,
1.394,6.16,-12.50,-0.65,2.28,1.65,-0.39,
1.394,6.16,-12.50,-0.65,2.28,1.67,-0.46,
1.397,6.16,-12.50,-0.65,2.27,1.69,-0.54,
1.399,6.16,-12.50,-0.65,2.26,1.70,-0.60,
1.399,6.03,-12.40,-0.67,2.26,1.70,-0.60,
1.402,6.03,-12.40,-0.67,2.24,1.72,-0.67,
1.405,6.03,-12.40,-0.67,2.23,1.74,-0.75,
1.405,6.00,-12.34,-0.62,2.23,1.74,-0.75,
1.407,6.00,-12.34,-0.62,2.21,1.75,-0.82,
1.411,6.01,-12.37,-0.57,2.21,1.75,-0.82,
1.411,6.01,-12.37,-0.57,2.19,1.75,-0.89,
1.413,6.01,-12.37,-0.57,2.17,1.75,-0.97,
1.415,6.01,-12.37,-0.57,2.15,1.74,-1.05,
1.416,5.98,-12.44,-0.57,2.15,1.74,-1.05,
1.418,5.98,-12.44,-0.57,2.13,1.73,-1.14,
1.42,5.98,-12.44,-0.57,2.10,1.73,-1.22,
1.42,5.84,-12.51,-0.62,2.10,1.73,-1.22,
1.422,5.84,-12.51,-0.62,2.07,1.72,-1.31,
1.425,5.84,-12.51,-0.62,2.05,1.71,-1.40,
1.425,5.75,-12.63,-0.65,2.05,1.71,-1.40,
1.427,5.75,-12.63,-0.65,2.02,1.70,-1.48,
1.429,5.75,-12.63,-0.65,1.99,1.69,-1.57,
1.439,5.79,-12.70,-0.64,1.99,1.69,-1.57,
1.439,5.79,-12.70,-0.64,1.96,1.68,-1.66,
1.439,5.90,-12.72,-0.68,1.96,1.68,-1.66,
1.439,5.90,-12.72,-0.68,1.94,1.68,-1.75,
1.44,5.90,-12.72,-0.68,1.91,1.69,-1.84,
1.44,5.90,-12.72,-0.68,1.88,1.71,-1.94,
1.44,5.87,-12.63,-0.87,1.88,1.71,-1.94,
1.443,5.87,-12.63,-0.87,1.85,1.75,-2.03,
1.444,5.87,-12.63,-0.87,1.82,1.89,-2.11,
1.444,5.19,-12.22,-2.22,1.82,1.89,-2.11,
1.446,5.19,-12.22,-2.22,1.78,2.02,-2.18,
1.449,5.19,-12.22,-2.22,1.74,2.08,-2.26,
1.449,5.83,-12.57,-1.67,1.74,2.08,-2.26,
1.454,5.83,-12.57,-1.67,1.69,2.10,-2.35,
1.454,5.83,-12.57,-1.67,1.63,2.09,-2.46,
1.455,6.40,-13.04,-0.56,1.63,2.09,-2.46,
1.456,6.40,-13.04,-0.56,1.57,2.05,-2.58,
1.46,6.09,-12.97,0.01,1.57,2.05,-2.58,
1.46,6.09,-12.97,0.01,1.50,2.01,-2.71,
1.462,6.09,-12.97,0.01,1.44,1.95,-2.84,
1.464,6.09,-12.97,0.01,1.38,1.89,-2.97,
1.464,5.65,-12.95,0.15,1.38,1.89,-2.97,
1.466,5.65,-12.95,0.15,1.32,1.81,-3.09,
1.471,5.24,-13.01,0.18,1.32,1.81,-3.09,
1.471,5.24,-13.01,0.18,1.27,1.73,-3.20,
1.471,5.24,-13.01,0.18,1.22,1.66,-3.29,
1.474,5.24,-13.01,0.18,1.17,1.59,-3.38,
1.474,4.74,-12.99,0.23,1.17,1.59,-3.38,
1.476,4.74,-12.99,0.23,1.13,1.54,-3.46,
1.479,4.74,-12.99,0.23,1.08,1.51,-3.54,
1.479,4.28,-12.84,0.37,1.08,1.51,-3.54,
1.482,4.28,-12.84,0.37,1.04,1.49,-3.61,
1.485,3.99,-12.65,0.63,1.04,1.49,-3.61,
1.485,3.99,-12.65,0.63,0.99,1.46,-3.69,
1.487,3.99,-12.65,0.63,0.94,1.43,-3.76,
1.49,3.99,-12.65,0.63,0.89,1.39,-3.83,
1.49,3.87,-12.57,1.00,0.89,1.39,-3.83,
1.491,3.87,-12.57,1.00,0.84,1.33,-3.90,
1.494,3.87,-12.57,1.00,0.78,1.26,-3.98,
1.495,3.63,-12.61,1.36,0.78,1.26,-3.98,
1.496,3.63,-12.61,1.36,0.73,1.17,-4.06,
1.499,3.63,-12.61,1.36,0.67,1.07,-4.14,
1.499,3.21,-12.78,1.70,0.67,1.07,-4.14,
1.501,3.21,-12.78,1.70,0.62,0.97,-4.22,
1.504,2.66,-13.04,1.99,0.62,0.97,-4.22,
1.504,2.66,-13.04,1.99,0.56,0.86,-4.30,
1.506,2.66,-13.04,1.99,0.51,0.76,-4.38,
1.509,2.11,-13.23,2.24,0.51,0.76,-4.38,
1.509,2.11,-13.23,2.24,0.46,0.66,-4.45,
1.511,2.11,-13.23,2.24,0.41,0.55,-4.53,
1.513,2.11,-13.23,2.24,0.37,0.44,-4.60,
1.514,1.61,-13.20,2.55,0.37,0.44,-4.60,
1.516,1.61,-13.20,2.55,0.33,0.33,-4.67,
1.519,1.18,-13.05,2.76,0.33,0.33,-4.67,
1.519,1.18,-13.05,2.76,0.30,0.22,-4.74,
1.521,1.18,-13.05,2.76,0.27,0.10,-4.81,
1.524,0.72,-12.87,2.89,0.27,0.10,-4.81,
1.524,0.72,-12.87,2.89,0.24,-0.01,-4.88,
1.526,0.72,-12.87,2.89,0.22,-0.13,-4.96,
1.528,0.72,-12.87,2.89,0.21,-0.24,-5.03,
1.528,0.19,-12.73,2.88,0.21,-0.24,-5.03,
1.531,0.19,-12.73,2.88,0.20,-0.35,-5.10,
1.533,0.19,-12.73,2.88,0.18,-0.45,-5.17,
1.534,-0.34,-12.61,2.66,0.18,-0.45,-5.17,
1.536,-0.34,-12.61,2.66,0.17,-0.55,-5.24,
1.539,-0.34,-12.61,2.66,0.15,-0.64,-5.30,
1.539,-0.89,-12.46,2.23,0.15,-0.64,-5.30,
1.541,-0.89,-12.46,2.23,0.13,-0.71,-5.36,
1.544,-0.89,-12.46,2.23,0.11,-0.77,-5.42,
1.544,-1.47,-12.31,1.64,0.11,-0.77,-5.42,
1.546,-1.47,-12.31,1.64,0.08,-0.82,-5.48,
1.549,-1.99,-12.08,1.02,0.08,-0.82,-5.48,
1.549,-1.99,-12.08,1.02,0.04,-0.86,-5.53,
1.557,-1.99,-12.08,1.02,-0.00,-0.89,-5.59,
1.558,-2.49,-11.73,0.54,-0.00,-0.89,-5.59,
1.559,-2.49,-11.73,0.54,-0.05,-0.92,-5.63,
1.56,-2.49,-11.73,0.54,-0.11,-0.94,-5.67,
1.561,-2.49,-11.73,0.54,-0.17,-0.95,-5.71,
1.562,-3.07,-11.28,0.18,-0.17,-0.95,-5.71,
1.562,-3.07,-11.28,0.18,-0.24,-0.97,-5.73,
1.566,-3.71,-10.84,-0.07,-0.24,-0.97,-5.73,
1.59,-3.71,-10.84,-0.07,-0.31,-0.98,-5.75,
1.591,-3.71,-10.84,-0.07,-0.38,-1.00,-5.77,
1.591,-3.71,-10.84,-0.07,-0.47,-1.02,-5.77,
1.592,-4.41,-10.45,-0.25,-0.47,-1.02,-5.77,
1.592,-4.41,-10.45,-0.25,-0.56,-1.03,-5.76,
1.592,-4.41,-10.45,-0.25,-0.64,-1.06,-5.75,
1.592,-5.05,-10.07,-0.35,-0.64,-1.06,-5.75,
1.593,-5.05,-10.07,-0.35,-0.74,-1.09,-5.73,
1.593,-5.05,-10.07,-0.35,-0.83,-1.13,-5.70,
1.593,-5.60,-9.69,-0.34,-0.83,-1.13,-5.70,
1.594,-5.60,-9.69,-0.34,-0.93,-1.17,-5.67,
1.594,-5.60,-9.69,-0.34,-1.03,-1.21,-5.63,
1.594,-6.07,-9.35,-0.30,-1.03,-1.21,-5.63,
1.594,-6.07,-9.35,-0.30,-1.13,-1.26,-5.58,
1.595,-6.07,-9.35,-0.30,-1.23,-1.31,-5.54,
1.595,-6.42,-9.04,-0.19,-1.23,-1.31,-5.54,
1.595,-6.42,-9.04,-0.19,-1.33,-1.35,-5.49,
1.595,-6.42,-9.04,-0.19,-1.43,-1.40,-5.44,
1.596,-6.71,-8.76,-0.04,-1.43,-1.40,-5.44,
1.621,-6.71,-8.76,-0.04,-1.53,-1.45,-5.38,
1.622,-6.71,-8.76,-0.04,-1.63,-1.49,-5.33,
1.622,-6.93,-8.52,0.10,-1.63,-1.49,-5.33,
1.622,-6.93,-8.52,0.10,-1.73,-1.53,-5.27,
1.622,-7.12,-8.27,0.24,-1.73,-1.53,-5.27,
1.623,-7.12,-8.27,0.24,-1.82,-1.57,-5.22,
1.623,-7.12,-8.27,0.24,-1.92,-1.62,-5.16,
1.623,-7.12,-8.27,0.24,-2.01,-1.66,-5.11,
1.623,-7.31,-8.03,0.36,-2.01,-1.66,-5.11,
1.624,-7.31,-8.03,0.36,-2.10,-1.70,-5.05,
1.624,-7.31,-8.03,0.36,-2.19,-1.74,-5.00,
1.624,-7.50,-7.80,0.49,-2.19,-1.74,-5.00,
1.624,-7.50,-7.80,0.49,-2.27,-1.78,-4.95,
1.625,-7.63,-7.57,0.62,-2.27,-1.78,-4.95,
1.625,-7.63,-7.57,0.62,-2.35,-1.82,-4.90,
1.625,-7.63,-7.57,0.62,-2.44,-1.85,-4.85,
1.625,-7.63,-7.57,0.62,-2.52,-1.88,-4.80,
1.625,-7.66,-7.36,0.72,-2.52,-1.88,-4.80,
1.626,-7.66,-7.36,0.72,-2.60,-1.92,-4.75,
1.628,-7.67,-7.16,0.84,-2.60,-1.92,-4.75,
1.629,-7.67,-7.16,0.84,-2.67,-1.95,-4.71,
1.63,-7.67,-7.16,0.84,-2.75,-1.97,-4.66,
1.633,-7.67,-7.16,0.84,-2.82,-1.99,-4.62,
1.634,-7.63,-6.95,0.97,-2.82,-1.99,-4.62,
1.639,-7.63,-6.95,0.97,-2.89,-2.02,-4.58,
1.644,-7.48,-6.74,1.15,-2.89,-2.02,-4.58,
1.645,-7.48,-6.74,1.15,-2.96,-2.04,-4.54,
1.645,-7.48,-6.74,1.15,-3.02,-2.06,-4.51,
1.645,-7.48,-6.74,1.15,-3.08,-2.07,-4.48,
1.646,-7.29,-6.48,1.35,-3.08,-2.07,-4.48,
1.646,-7.29,-6.48,1.35,-3.14,-2.09,-4.45,
1.648,-7.29,-6.48,1.35,-3.19,-2.11,-4.43,
1.648,-7.09,-6.25,1.59,-3.19,-2.11,-4.43,
1.651,-7.09,-6.25,1.59,-3.24,-2.12,-4.41,
1.666,-7.09,-6.25,1.59,-3.28,-2.14,-4.39,
1.667,-6.88,-6.07,1.82,-3.28,-2.14,-4.39,
1.668,-6.88,-6.07,1.82,-3.32,-2.15,-4.39,
1.669,-6.88,-6.07,1.82,-3.35,-2.16,-4.38,
1.669,-6.72,-5.86,2.06,-3.35,-2.16,-4.38,
1.671,-6.72,-5.86,2.06,-3.39,-2.17,-4.38,
1.671,-6.72,-5.86,2.06,-3.41,-2.17,-4.39,
1.671,-6.56,-5.68,2.31,-3.41,-2.17,-4.39,
1.671,-6.56,-5.68,2.31,-3.44,-2.17,-4.39,
1.672,-6.49,-5.48,2.57,-3.44,-2.17,-4.39,
1.672,-6.49,-5.48,2.57,-3.45,-2.17,-4.40,
1.672,-6.49,-5.48,2.57,-3.47,-2.16,-4.41,
1.672,-6.44,-5.30,2.81,-3.47,-2.16,-4.41,
1.673,-6.44,-5.30,2.81,-3.47,-2.15,-4.43,
1.675,-6.44,-5.30,2.81,-3.48,-2.14,-4.45,
1.678,-6.44,-5.30,2.81,-3.47,-2.13,-4.47,
1.678,-6.47,-5.13,3.05,-3.47,-2.13,-4.47,
1.68,-6.47,-5.13,3.05,-3.46,-2.11,-4.50,
1.682,-6.47,-5.13,3.05,-3.45,-2.09,-4.52,
1.682,-6.60,-5.01,3.28,-3.45,-2.09,-4.52,
1.685,-6.60,-5.01,3.28,-3.43,-2.07,-4.55,
1.687,-6.60,-5.01,3.28,-3.40,-2.04,-4.59,
1.687,-6.72,-4.85,3.53,-3.40,-2.04,-4.59,
1.689,-6.72,-4.85,3.53,-3.37,-2.01,-4.62,
1.692,-6.72,-4.85,3.53,-3.33,-1.98,-4.66,
1.692,-6.84,-4.64,3.80,-3.33,-1.98,-4.66,
1.694,-6.84,-4.64,3.80,-3.29,-1.94,-4.70,
1.697,-6.84,-4.64,3.80,-3.23,-1.90,-4.74,
1.697,-7.01,-4.35,4.01,-3.23,-1.90,-4.74,
1.699,-7.01,-4.35,4.01,-3.17,-1.86,-4.78,
1.702,-7.29,-3.99,4.19,-3.17,-1.86,-4.78,
1.702,-7.29,-3.99,4.19,-3.10,-1.81,-4.83,
1.711,-7.29,-3.99,4.19,-3.02,-1.76,-4.87,
1.711,-7.29,-3.99,4.19,-2.94,-1.71,-4.92,
1.711,-7.29,-3.99,4.19,-2.85,-1.66,-4.96,
1.711,-7.58,-3.59,4.33,-2.85,-1.66,-4.96,
1.712,-7.93,-3.10,4.46,-2.85,-1.66,-4.96,
1.712,-7.93,-3.10,4.46,-2.76,-1.61,-5.01,
1.714,-7.93,-3.10,4.46,-2.66,-1.55,-5.05,
1.717,-7.93,-3.10,4.46,-2.55,-1.49,-5.09,
1.717,-8.31,-2.52,4.54,-2.55,-1.49,-5.09,
1.719,-8.31,-2.52,4.54,-2.44,-1.44,-5.12,
1.722,-8.31,-2.52,4.54,-2.33,-1.38,-5.16,
1.722,-8.76,-1.92,4.56,-2.33,-1.38,-5.16,
1.724,-8.76,-1.92,4.56,-2.21,-1.32,-5.18,
1.726,-8.76,-1.92,4.56,-2.09,-1.27,-5.20,
1.727,-9.19,-1.21,4.57,-2.09,-1.27,-5.20,
1.729,-9.19,-1.21,4.57,-1.97,-1.22,-5.22,
1.731,-9.19,-1.21,4.57,-1.85,-1.17,-5.22,
1.731,-9.66,-0.40,4.54,-1.85,-1.17,-5.22,
1.734,-9.66,-0.40,4.54,-1.73,-1.12,-5.21,
1.737,-9.66,-0.40,4.54,-1.61,-1.07,-5.21,
1.737,-10.15,0.45,4.38,-1.61,-1.07,-5.21,
1.74,-10.15,0.45,4.38,-1.49,-1.02,-5.19,
1.742,-10.56,1.32,4.20,-1.49,-1.02,-5.19,
1.742,-10.56,1.32,4.20,-1.37,-0.98,-5.16,
1.744,-10.56,1.32,4.20,-1.25,-0.93,-5.13,
1.746,-10.79,2.25,4.07,-1.25,-0.93,-5.13,
1.747,-10.79,2.25,4.07,-1.14,-0.89,-5.09,
1.749,-10.79,2.25,4.07,-1.03,-0.85,-5.03,
1.756,-10.98,3.22,3.89,-1.03,-0.85,-5.03,
1.757,-10.98,3.22,3.89,-0.92,-0.81,-4.98,
1.757,-10.98,3.22,3.89,-0.82,-0.76,-4.91,
1.757,-10.98,3.22,3.89,-0.72,-0.72,-4.83,
1.757,-11.07,4.18,3.68,-0.72,-0.72,-4.83,
1.759,-11.07,4.18,3.68,-0.63,-0.67,-4.75,
1.777,-11.10,5.10,3.47,-0.63,-0.67,-4.75,
1.777,-11.10,5.10,3.47,-0.54,-0.63,-4.66,
1.777,-11.10,5.10,3.47,-0.46,-0.58,-4.57,
1.778,-11.12,5.93,3.25,-0.46,-0.58,-4.57,
1.778,-11.12,5.93,3.25,-0.39,-0.53,-4.46,
1.778,-11.12,5.93,3.25,-0.32,-0.48,-4.36,
1.779,-11.17,6.67,3.05,-0.32,-0.48,-4.36,
1.779,-11.17,6.67,3.05,-0.26,-0.43,-4.24,
1.779,-11.17,6.67,3.05,-0.21,-0.39,-4.12,
1.779,-11.17,6.67,3.05,-0.16,-0.35,-4.00,
1.779,-11.22,7.32,2.87,-0.16,-0.35,-4.00,
1.78,-11.22,7.32,2.87,-0.12,-0.31,-3.87,
1.782,-11.30,7.87,2.70,-0.12,-0.31,-3.87,
1.783,-11.30,7.87,2.70,-0.09,-0.28,-3.74,
1.784,-11.30,7.87,2.70,-0.07,-0.24,-3.60,
1.786,-11.35,8.32,2.58,-0.07,-0.24,-3.60,
1.787,-11.35,8.32,2.58,-0.05,-0.22,-3.46,
1.789,-11.35,8.32,2.58,-0.04,-0.20,-3.32,
1.791,-11.33,8.67,2.49,-0.04,-0.20,-3.32,
1.792,-11.33,8.67,2.49,-0.03,-0.19,-3.18,
1.794,-11.33,8.67,2.49,-0.02,-0.19,-3.04,
1.796,-11.33,8.67,2.49,-0.03,-0.20,-2.90,
1.796,-11.32,8.91,2.43,-0.03,-0.20,-2.90,
1.799,-11.32,8.91,2.43,-0.03,-0.22,-2.76,
1.801,-11.32,8.91,2.43,-0.04,-0.25,-2.62,
1.802,-11.26,9.04,2.39,-0.04,-0.25,-2.62,
1.804,-11.26,9.04,2.39,-0.05,-0.29,-2.48,
1.806,-11.26,9.04,2.39,-0.07,-0.33,-2.35,
1.806,-11.14,9.12,2.32,-0.07,-0.33,-2.35,
1.808,-11.14,9.12,2.32,-0.09,-0.39,-2.21,
1.811,-10.93,9.09,2.23,-0.09,-0.39,-2.21,
1.811,-10.93,9.09,2.23,-0.12,-0.44,-2.08,
1.813,-10.93,9.09,2.23,-0.15,-0.51,-1.95,
1.816,-10.93,9.09,2.23,-0.18,-0.58,-1.82,
1.816,-10.69,9.04,2.11,-0.18,-0.58,-1.82,
1.818,-10.69,9.04,2.11,-0.22,-0.65,-1.70,
1.821,-10.40,8.92,1.99,-0.22,-0.65,-1.70,
1.821,-10.40,8.92,1.99,-0.27,-0.73,-1.58,
1.823,-10.40,8.92,1.99,-0.31,-0.81,-1.46,
1.826,-10.40,8.92,1.99,-0.36,-0.89,-1.35,
1.826,-10.08,8.76,1.83,-0.36,-0.89,-1.35,
1.829,-10.08,8.76,1.83,-0.42,-0.97,-1.25,
1.831,-10.08,8.76,1.83,-0.47,-1.05,-1.15,
1.831,-9.65,8.58,1.70,-0.47,-1.05,-1.15,
1.833,-9.65,8.58,1.70,-0.53,-1.14,-1.06,
1.837,-9.18,8.43,1.61,-0.53,-1.14,-1.06,
1.837,-9.18,8.43,1.61,-0.59,-1.22,-0.98,
1.838,-9.18,8.43,1.61,-0.64,-1.31,-0.91,
1.841,-9.18,8.43,1.61,-0.70,-1.39,-0.85,
1.841,-8.71,8.29,1.52,-0.70,-1.39,-0.85,
1.843,-8.71,8.29,1.52,-0.75,-1.47,-0.79,
1.846,-8.71,8.29,1.52,-0.80,-1.54,-0.74,
1.846,-8.26,8.17,1.43,-0.80,-1.54,-0.74,
1.848,-8.26,8.17,1.43,-0.85,-1.60,-0.70,
1.851,-7.84,8.08,1.34,-0.85,-1.60,-0.70,
1.851,-7.84,8.08,1.34,-0.89,-1.66,-0.66,
1.854,-7.84,8.08,1.34,-0.93,-1.71,-0.63,
1.856,-7.84,8.08,1.34,-0.96,-1.75,-0.60,
1.856,-7.46,8.01,1.22,-0.96,-1.75,-0.60,
1.858,-7.46,8.01,1.22,-0.99,-1.79,-0.58,
1.861,-7.46,8.01,1.22,-1.02,-1.82,-0.56,
1.861,-7.12,8.01,1.13,-1.02,-1.82,-0.56,
1.863,-7.12,8.01,1.13,-1.04,-1.86,-0.54,
1.866,-7.12,8.01,1.13,-1.07,-1.90,-0.53,
1.866,-6.81,7.99,1.01,-1.07,-1.90,-0.53,
1.875,-6.81,7.99,1.01,-1.09,-1.93,-0.52,
1.876,-6.81,7.99,1.01,-1.12,-1.95,-0.51,
1.876,-6.56,7.95,0.80,-1.12,-1.95,-0.51,
1.876,-6.56,7.95,0.80,-1.15,-1.97,-0.50,
1.877,-6.37,7.96,0.51,-1.15,-1.97,-0.50,
1.877,-6.37,7.96,0.51,-1.18,-1.97,-0.49,
1.882,-6.26,7.93,0.23,-1.18,-1.97,-0.49,
1.883,-6.26,7.93,0.23,-1.21,-1.97,-0.49,
1.883,-6.26,7.93,0.23,-1.25,-1.96,-0.48,
1.883,-6.26,7.93,0.23,-1.29,-1.93,-0.47,
1.886,-6.27,7.93,-0.01,-1.29,-1.93,-0.47,
1.887,-6.27,7.93,-0.01,-1.33,-1.90,-0.46,
1.888,-6.27,7.93,-0.01,-1.37,-1.86,-0.45,
1.89,-6.27,7.93,-0.01,-1.41,-1.82,-0.44,
1.891,-6.35,7.94,-0.17,-1.41,-1.82,-0.44,
1.894,-6.35,7.94,-0.17,-1.45,-1.76,-0.42,
1.895,-6.35,7.94,-0.17,-1.49,-1.71,-0.40,
1.895,-6.51,7.90,-0.26,-1.49,-1.71,-0.40,
1.898,-6.51,7.90,-0.26,-1.53,-1.64,-0.38,
1.9,-6.75,7.68,-0.24,-1.53,-1.64,-0.38,
1.901,-6.75,7.68,-0.24,-1.57,-1.58,-0.36,
1.905,-6.96,7.27,-0.07,-1.57,-1.58,-0.36,
1.906,-6.96,7.27,-0.07,-1.61,-1.53,-0.34,
1.906,-6.96,7.27,-0.07,-1.65,-1.47,-0.32,
1.908,-6.96,7.27,-0.07,-1.69,-1.43,-0.30,
1.91,-6.96,7.27,-0.07,-1.73,-1.39,-0.29,
1.91,-7.06,6.76,0.30,-1.73,-1.39,-0.29,
1.912,-7.06,6.76,0.30,-1.77,-1.36,-0.28,
1.916,-7.06,6.76,0.30,-1.80,-1.34,-0.28,
1.916,-7.07,6.25,0.85,-1.80,-1.34,-0.28,
1.918,-7.07,6.25,0.85,-1.84,-1.32,-0.28,
1.921,-7.14,5.77,1.40,-1.84,-1.32,-0.28,
1.922,-7.14,5.77,1.40,-1.87,-1.31,-0.29,
1.922,-7.14,5.77,1.40,-1.89,-1.29,-0.30,
1.925,-7.14,5.77,1.40,-1.91,-1.29,-0.31,
1.94,-7.08,5.41,2.01,-1.91,-1.29,-0.31,
1.94,-7.08,5.41,2.01,-1.92,-1.28,-0.32,
1.94,-7.08,5.41,2.01,-1.92,-1.26,-0.34,
1.94,-6.87,5.18,2.65,-1.92,-1.26,-0.34,
1.941,-6.87,5.18,2.65,-1.91,-1.24,-0.36,
1.941,-6.87,5.18,2.65,-1.89,-1.22,-0.38,
1.941,-6.65,5.14,3.25,-1.89,-1.22,-0.38,
1.941,-6.65,5.14,3.25,-1.87,-1.18,-0.40,
1.942,-6.65,5.14,3.25,-1.83,-1.13,-0.41,
1.942,-6.48,5.14,3.69,-1.83,-1.13,-0.41,
1.943,-6.48,5.14,3.69,-1.79,-1.07,-0.43,
1.945,-6.48,5.14,3.69,-1.74,-0.99,-0.45,
1.945,-6.39,5.12,4.10,-1.74,-0.99,-0.45,
1.947,-6.39,5.12,4.10,-1.68,-0.90,-0.46,
1.95,-6.43,5.04,4.50,-1.68,-0.90,-0.46,
1.95,-6.43,5.04,4.50,-1.61,-0.81,-0.46,
1.956,-6.43,5.04,4.50,-1.54,-0.71,-0.47,
1.956,-6.43,5.04,4.50,-1.46,-0.61,-0.48,
1.956,-6.70,4.83,4.84,-1.46,-0.61,-0.48,
1.957,-6.70,4.83,4.84,-1.38,-0.49,-0.48,
1.96,-6.70,4.83,4.84,-1.29,-0.37,-0.48,
1.96,-7.05,4.38,5.18,-1.29,-0.37,-0.48,
1.962,-7.05,4.38,5.18,-1.21,-0.26,-0.49,
1.965,-7.05,4.38,5.18,-1.12,-0.16,-0.50,
1.965,-7.35,3.81,5.61,-1.12,-0.16,-0.50,
1.967,-7.35,3.81,5.61,-1.03,-0.05,-0.51,
1.98,-7.35,3.81,5.61,-0.93,0.05,-0.53,
1.981,-7.59,3.25,6.05,-0.93,0.05,-0.53,
1.981,-7.59,3.25,6.05,-0.83,0.17,-0.55,
1.981,-7.59,3.25,6.05,-0.72,0.28,-0.56,
1.982,-7.88,2.89,6.47,-0.72,0.28,-0.56,
1.982,-7.88,2.89,6.47,-0.60,0.41,-0.58,
1.982,-8.25,2.64,6.86,-0.60,0.41,-0.58,
1.982,-8.25,2.64,6.86,-0.48,0.54,-0.60,
1.983,-8.25,2.64,6.86,-0.34,0.68,-0.62,
1.985,-8.25,2.64,6.86,-0.19,0.85,-0.65,
1.986,-8.75,2.46,6.93,-0.19,0.85,-0.65,
1.996,-8.75,2.46,6.93,-0.03,1.03,-0.67,
1.996,-9.25,2.42,6.90,-0.03,1.03,-0.67,
1.996,-9.25,2.42,6.90,0.13,1.22,-0.70,
1.997,-9.25,2.42,6.90,0.31,1.41,-0.71,
1.997,-9.25,2.42,6.90,0.49,1.59,-0.73,
1.997,-9.80,2.52,6.88,0.49,1.59,-0.73,
1.997,-9.80,2.52,6.88,0.67,1.77,-0.74,
2.0,-10.79,2.81,6.73,0.67,1.77,-0.74,
2.0,-10.79,2.81,6.73,0.84,1.95,-0.73,
2.003,-10.79,2.81,6.73,1.01,2.11,-0.71,
2.005,-10.79,2.81,6.73,1.17,2.26,-0.68,
2.005,-12.13,3.17,6.55,1.17,2.26,-0.68,
2.007,-12.13,3.17,6.55,1.32,2.40,-0.64,
2.01,-12.13,3.17,6.55,1.45,2.53,-0.59,
2.01,-13.44,3.40,6.15,1.45,2.53,-0.59,
2.012,-13.44,3.40,6.15,1.58,2.66,-0.52,
2.015,-13.44,3.40,6.15,1.70,2.78,-0.44,
2.015,-14.67,3.53,5.58,1.70,2.78,-0.44,
2.018,-14.67,3.53,5.58,1.81,2.88,-0.36,
2.019,-14.67,3.53,5.58,1.92,2.97,-0.28,
2.019,-15.69,3.55,5.08,1.92,2.97,-0.28,
2.022,-15.69,3.55,5.08,2.02,3.04,-0.20,
2.025,-16.84,3.77,4.56,2.02,3.04,-0.20,
2.025,-16.84,3.77,4.56,2.12,3.10,-0.12,
2.026,-16.84,3.77,4.56,2.22,3.16,-0.02,
2.03,-18.17,4.37,3.93,2.22,3.16,-0.02,
2.03,-18.17,4.37,3.93,2.31,3.22,0.09,
2.031,-18.17,4.37,3.93,2.38,3.28,0.21,
2.034,-18.17,4.37,3.93,2.45,3.35,0.35,
2.034,-19.51,5.14,3.20,2.45,3.35,0.35,
2.038,-19.51,5.14,3.20,2.50,3.43,0.50,
2.039,-20.72,5.79,2.45,2.50,3.43,0.50,
2.039,-20.72,5.79,2.45,2.53,3.50,0.68,
2.041,-20.72,5.79,2.45,2.55,3.56,0.88,
2.044,-21.73,6.10,1.89,2.55,3.56,0.88,
2.044,-21.73,6.10,1.89,2.55,3.62,1.10,
2.046,-21.73,6.10,1.89,2.52,3.66,1.33,
2.049,-21.73,6.10,1.89,2.48,3.69,1.58,
2.049,-22.43,6.25,1.57,2.48,3.69,1.58,
2.051,-22.43,6.25,1.57,2.41,3.69,1.84,
2.055,-22.43,6.25,1.57,2.33,3.68,2.11,
2.055,-22.78,6.28,1.46,2.33,3.68,2.11,
2.059,-22.78,6.28,1.46,2.22,3.64,2.38,
2.06,-22.78,6.28,1.46,2.11,3.58,2.67,
2.06,-22.85,6.27,1.51,2.11,3.58,2.67,
2.062,-22.85,6.27,1.51,1.98,3.50,2.95,
2.064,-22.71,6.13,1.75,1.98,3.50,2.95,
2.064,-22.71,6.13,1.75,1.85,3.40,3.24,
2.066,-22.71,6.13,1.75,1.71,3.29,3.53,
2.084,-22.46,5.64,2.05,1.71,3.29,3.53,
2.085,-22.46,5.64,2.05,1.58,3.17,3.82,
2.085,-22.46,5.64,2.05,1.44,3.04,4.11,
2.085,-22.06,4.71,2.45,1.44,3.04,4.11,
2.086,-22.06,4.71,2.45,1.31,2.91,4.39,
2.086,-22.06,4.71,2.45,1.19,2.76,4.67,
2.086,-21.54,3.37,2.90,1.19,2.76,4.67,
2.086,-21.54,3.37,2.90,1.07,2.62,4.93,
2.087,-21.54,3.37,2.90,0.97,2.47,5.19,
2.087,-21.54,3.37,2.90,0.87,2.31,5.44,
2.087,-20.91,1.73,3.33,0.87,2.31,5.44,
2.09,-20.16,-0.12,3.69,0.87,2.31,5.44,
2.091,-20.16,-0.12,3.69,0.78,2.16,5.67,
2.091,-20.16,-0.12,3.69,0.71,2.00,5.89,
2.106,-20.16,-0.12,3.69,0.65,1.85,6.08,
2.107,-20.16,-0.12,3.69,0.60,1.71,6.26,
2.107,-19.27,-2.00,3.94,0.60,1.71,6.26,
2.107,-19.27,-2.00,3.94,0.57,1.58,6.42,
2.108,-19.27,-2.00,3.94,0.55,1.46,6.56,
2.108,-18.20,-3.77,4.13,0.55,1.46,6.56,
2.108,-18.20,-3.77,4.13,0.54,1.35,6.68,
2.109,-18.20,-3.77,4.13,0.54,1.25,6.78,
2.109,-17.17,-5.33,4.18,0.54,1.25,6.78,
2.109,-17.17,-5.33,4.18,0.55,1.16,6.87,
2.11,-17.17,-5.33,4.18,0.57,1.08,6.94,
2.11,-16.37,-6.77,4.08,0.57,1.08,6.94,
2.112,-16.37,-6.77,4.08,0.59,1.01,7.00,
2.116,-16.37,-6.77,4.08,0.62,0.94,7.04,
2.116,-15.87,-8.28,3.81,0.62,0.94,7.04,
2.116,-15.87,-8.28,3.81,0.64,0.87,7.07,
2.119,-15.87,-8.28,3.81,0.65,0.80,7.09,
2.12,-15.70,-9.76,3.48,0.65,0.80,7.09,
2.122,-15.70,-9.76,3.48,0.66,0.74,7.11,
2.123,-15.74,-11.02,3.06,0.66,0.74,7.11,
2.124,-15.74,-11.02,3.06,0.66,0.69,7.12,
2.127,-15.74,-11.02,3.06,0.66,0.65,7.13,
2.128,-15.74,-11.02,3.06,0.66,0.62,7.14,
2.128,-15.81,-12.11,2.59,0.66,0.62,7.14,
2.131,-15.81,-12.11,2.59,0.66,0.59,7.15,
2.133,-15.81,-12.11,2.59,0.65,0.55,7.16,
2.134,-15.87,-12.98,2.32,0.65,0.55,7.16,
2.136,-15.87,-12.98,2.32,0.65,0.51,7.17,
2.139,-15.88,-13.57,2.42,0.65,0.51,7.17,
2.139,-15.88,-13.57,2.42,0.65,0.46,7.18,
2.141,-15.88,-13.57,2.42,0.64,0.40,7.19,
2.143,-15.88,-13.57,2.42,0.63,0.33,7.20,
2.143,-15.72,-13.97,2.58,0.63,0.33,7.20,
2.145,-15.72,-13.97,2.58,0.62,0.25,7.20,
2.148,-15.72,-13.97,2.58,0.60,0.15,7.21,
2.148,-15.43,-14.34,2.61,0.60,0.15,7.21,
2.15,-15.43,-14.34,2.61,0.58,0.06,7.22,
2.155,-15.43,-14.34,2.61,0.56,-0.05,7.22,
2.155,-15.04,-14.61,2.68,0.56,-0.05,7.22,
2.155,-15.04,-14.61,2.68,0.54,-0.16,7.23,
2.158,-15.04,-14.61,2.68,0.52,-0.26,7.24,
2.158,-14.57,-14.70,2.81,0.52,-0.26,7.24,
2.161,-14.57,-14.70,2.81,0.49,-0.37,7.25,
2.163,-14.57,-14.70,2.81,0.46,-0.47,7.26,
2.163,-14.10,-14.69,2.86,0.46,-0.47,7.26,
2.166,-14.10,-14.69,2.86,0.43,-0.58,7.28,
2.169,-13.58,-14.74,2.86,0.43,-0.58,7.28,
2.169,-13.58,-14.74,2.86,0.40,-0.69,7.30,
2.176,-13.58,-14.74,2.86,0.37,-0.80,7.32,
2.177,-13.58,-14.74,2.86,0.33,-0.91,7.34,
2.177,-12.99,-14.89,2.83,0.33,-0.91,7.34,
2.177,-12.99,-14.89,2.83,0.30,-1.02,7.36,
2.178,-12.99,-14.89,2.83,0.28,-1.13,7.39,
2.179,-12.31,-15.04,2.83,0.28,-1.13,7.39,
2.18,-12.31,-15.04,2.83,0.25,-1.23,7.41,
2.183,-11.67,-15.21,2.74,0.25,-1.23,7.41,
2.183,-11.67,-15.21,2.74,0.22,-1.33,7.43,
2.185,-11.67,-15.21,2.74,0.20,-1.43,7.45,
2.188,-10.99,-15.40,2.61,0.20,-1.43,7.45,
2.188,-10.99,-15.40,2.61,0.19,-1.51,7.48,
2.19,-10.99,-15.40,2.61,0.17,-1.60,7.50,
2.193,-10.99,-15.40,2.61,0.16,-1.67,7.51,
2.193,-10.32,-15.67,2.42,0.16,-1.67,7.51,
2.195,-10.32,-15.67,2.42,0.16,-1.74,7.53,
2.198,-10.32,-15.67,2.42,0.15,-1.80,7.54,
2.198,-9.66,-15.96,2.17,0.15,-1.80,7.54,
2.2,-9.66,-15.96,2.17,0.15,-1.85,7.55,
2.203,-9.08,-16.35,1.88,0.15,-1.85,7.55,
2.203,-9.08,-16.35,1.88,0.16,-1.89,7.55,
2.205,-9.08,-16.35,1.88,0.16,-1.91,7.55,
2.208,-8.53,-16.75,1.61,0.16,-1.91,7.55,
2.208,-8.53,-16.75,1.61,0.17,-1.94,7.54,
2.21,-8.53,-16.75,1.61,0.18,-1.95,7.53,
2.213,-8.53,-16.75,1.61,0.20,-1.96,7.51,
2.213,-7.95,-17.16,1.38,0.20,-1.96,7.51,
2.215,-7.95,-17.16,1.38,0.22,-1.97,7.48,
2.218,-7.95,-17.16,1.38,0.24,-1.97,7.45,
2.218,-7.25,-17.47,1.20,0.24,-1.97,7.45,
2.221,-7.25,-17.47,1.20,0.27,-1.97,7.40,
2.223,-7.25,-17.47,1.20,0.31,-1.96,7.36,
2.223,-6.46,-17.60,1.05,0.31,-1.96,7.36,
2.225,-6.46,-17.60,1.05,0.34,-1.96,7.30,
2.228,-6.46,-17.60,1.05,0.38,-1.94,7.25,
2.228,-5.64,-17.61,0.93,0.38,-1.94,7.25,
2.233,-5.64,-17.61,0.93,0.42,-1.93,7.19,
2.233,-4.90,-17.53,0.79,0.42,-1.93,7.19,
2.233,-4.90,-17.53,0.79,0.47,-1.90,7.12,
2.235,-4.90,-17.53,0.79,0.52,-1.88,7.05,
2.238,-4.90,-17.53,0.79,0.56,-1.84,6.99,
2.238,-4.29,-17.43,0.67,0.56,-1.84,6.99,
2.24,-4.29,-17.43,0.67,0.61,-1.80,6.92,
2.243,-4.29,-17.43,0.67,0.66,-1.75,6.85,
2.243,-3.80,-17.34,0.57,0.66,-1.75,6.85,
2.245,-3.80,-17.34,0.57,0.71,-1.70,6.79,
2.247,-3.80,-17.34,0.57,0.75,-1.65,6.73,
2.248,-3.40,-17.19,0.52,0.75,-1.65,6.73,
2.25,-3.40,-17.19,0.52,0.80,-1.60,6.67,
2.258,-3.40,-17.19,0.52,0.85,-1.55,6.62,
2.259,-3.02,-17.01,0.57,0.85,-1.55,6.62,
2.259,-3.02,-17.01,0.57,0.90,-1.50,6.57,
2.288,-2.60,-16.77,0.64,0.90,-1.50,6.57,
2.288,-2.60,-16.77,0.64,0.94,-1.46,6.53,
2.289,-2.60,-16.77,0.64,0.99,-1.43,6.50,
2.289,-2.60,-16.77,0.64,1.04,-1.40,6.46,
2.29,-2.15,-16.47,0.71,1.04,-1.40,6.46,
2.29,-2.15,-16.47,0.71,1.09,-1.38,6.44,
2.29,-1.68,-16.21,0.75,1.09,-1.38,6.44,
2.291,-1.68,-16.21,0.75,1.13,-1.36,6.42,
2.291,-1.68,-16.21,0.75,1.18,-1.34,6.41,
2.291,-1.68,-16.21,0.75,1.23,-1.32,6.40,
2.292,-1.22,-16.02,0.73,1.23,-1.32,6.40,
2.293,-1.22,-16.02,0.73,1.27,-1.30,6.39,
2.293,-0.80,-15.87,0.69,1.27,-1.30,6.39,
2.293,-0.80,-15.87,0.69,1.31,-1.29,6.39,
2.294,-0.80,-15.87,0.69,1.35,-1.27,6.38,
2.294,-0.80,-15.87,0.69,1.39,-1.26,6.38,
2.295,-0.39,-15.78,0.60,1.39,-1.26,6.38,
2.295,-0.39,-15.78,0.60,1.43,-1.25,6.39,
2.295,-0.39,-15.78,0.60,1.46,-1.24,6.39,
2.296,-0.01,-15.82,0.48,1.46,-1.24,6.39,
2.296,-0.01,-15.82,0.48,1.50,-1.23,6.40,
2.296,-0.01,-15.82,0.48,1.53,-1.22,6.40,
2.297,0.34,-15.99,0.33,1.53,-1.22,6.40,
2.297,0.34,-15.99,0.33,1.56,-1.21,6.41,
2.297,0.70,-16.26,0.21,1.56,-1.21,6.41,
2.298,0.70,-16.26,0.21,1.59,-1.20,6.41,
2.301,0.70,-16.26,0.21,1.62,-1.20,6.40,
2.304,0.70,-16.26,0.21,1.65,-1.19,6.39,
2.304,1.11,-16.53,0.09,1.65,-1.19,6.39,
2.305,1.11,-16.53,0.09,1.67,-1.18,6.38,
2.31,1.50,-16.81,-0.03,1.67,-1.18,6.38,
2.31,1.50,-16.81,-0.03,1.70,-1.18,6.36,
2.31,1.50,-16.81,-0.03,1.72,-1.17,6.33,
2.312,1.50,-16.81,-0.03,1.75,-1.16,6.30,
2.312,1.95,-17.04,-0.17,1.75,-1.16,6.30,
2.314,1.95,-17.04,-0.17,1.77,-1.15,6.26,
2.317,2.41,-17.23,-0.26,1.77,-1.15,6.26,
2.317,2.41,-17.23,-0.26,1.79,-1.15,6.21,
2.319,2.41,-17.23,-0.26,1.82,-1.14,6.16,
2.322,2.87,-17.40,-0.40,1.82,-1.14,6.16,
2.323,2.87,-17.40,-0.40,1.84,-1.12,6.10,
2.324,2.87,-17.40,-0.40,1.86,-1.11,6.03,
2.328,2.87,-17.40,-0.40,1.88,-1.09,5.95,
2.328,3.30,-17.57,-0.56,1.88,-1.09,5.95,
2.33,3.30,-17.57,-0.56,1.89,-1.07,5.87,
2.332,3.30,-17.57,-0.56,1.91,-1.04,5.78,
2.333,3.82,-17.71,-0.73,1.91,-1.04,5.78,
2.335,3.82,-17.71,-0.73,1.92,-1.02,5.69,
2.337,3.82,-17.71,-0.73,1.93,-0.98,5.59,
2.337,4.36,-17.72,-0.92,1.93,-0.98,5.59,
2.339,4.36,-17.72,-0.92,1.93,-0.95,5.48,
2.342,4.36,-17.72,-0.92,1.94,-0.91,5.37,
2.342,4.90,-17.65,-1.11,1.94,-0.91,5.37,
2.344,4.90,-17.65,-1.11,1.94,-0.87,5.26,
2.347,4.90,-17.65,-1.11,1.94,-0.83,5.13,
2.347,5.41,-17.56,-1.25,1.94,-0.83,5.13,
2.349,5.41,-17.56,-1.25,1.94,-0.78,5.01,
2.351,5.88,-17.42,-1.39,1.94,-0.78,5.01,
2.352,5.88,-17.42,-1.39,1.93,-0.72,4.88,
2.355,5.88,-17.42,-1.39,1.93,-0.67,4.75,
2.357,5.88,-17.42,-1.39,1.92,-0.61,4.61,
2.357,6.25,-17.25,-1.48,1.92,-0.61,4.61,
2.361,6.25,-17.25,-1.48,1.91,-0.55,4.48,
2.367,6.52,-17.05,-1.50,1.91,-0.55,4.48,
2.367,6.72,-16.82,-1.49,1.91,-0.55,4.48,
2.368,6.72,-16.82,-1.49,1.90,-0.48,4.34,
2.368,6.72,-16.82,-1.49,1.89,-0.41,4.20,
2.368,6.72,-16.82,-1.49,1.88,-0.35,4.07,
2.369,6.72,-16.82,-1.49,1.86,-0.28,3.93,
2.378,6.72,-16.82,-1.49,1.85,-0.22,3.80,
2.379,6.81,-16.60,-1.40,1.85,-0.22,3.80,
2.38,6.81,-16.60,-1.40,1.83,-0.15,3.67,
2.38,6.81,-16.60,-1.40,1.82,-0.09,3.54,
2.38,6.85,-16.39,-1.31,1.82,-0.09,3.54,
2.381,6.85,-16.39,-1.31,1.80,-0.03,3.42,
2.381,6.85,-16.39,-1.31,1.78,0.03,3.30,
2.382,6.75,-16.25,-1.21,1.78,0.03,3.30,
2.384,6.75,-16.25,-1.21,1.76,0.09,3.18,
2.387,6.75,-16.25,-1.21,1.74,0.15,3.06,
2.387,6.65,-16.14,-1.07,1.74,0.15,3.06,
2.39,6.65,-16.14,-1.07,1.72,0.20,2.95,
2.394,6.65,-16.14,-1.07,1.70,0.24,2.84,
2.394,6.52,-16.02,-0.90,1.70,0.24,2.84,
2.394,6.52,-16.02,-0.90,1.68,0.28,2.74,
2.396,6.52,-16.02,-0.90,1.66,0.31,2.64,
2.397,6.43,-15.93,-0.73,1.66,0.31,2.64,
2.398,6.43,-15.93,-0.73,1.63,0.34,2.54,
2.401,6.43,-15.93,-0.73,1.61,0.37,2.44,
2.401,6.36,-15.88,-0.53,1.61,0.37,2.44,
2.406,6.36,-15.88,-0.53,1.59,0.39,2.34,
2.407,6.36,-15.88,-0.53,1.58,0.40,2.24,
2.407,6.28,-15.81,-0.33,1.58,0.40,2.24,
2.408,6.28,-15.81,-0.33,1.56,0.42,2.15,
2.411,6.28,-15.81,-0.33,1.54,0.43,2.05,
2.411,6.33,-15.77,-0.13,1.54,0.43,2.05,
2.413,6.33,-15.77,-0.13,1.53,0.43,1.95,
2.416,6.40,-15.69,0.04,1.53,0.43,1.95,
2.416,6.40,-15.69,0.04,1.51,0.44,1.85,
2.418,6.40,-15.69,0.04,1.50,0.44,1.75,
2.422,6.40,-15.69,0.04,1.49,0.44,1.65,
2.434,6.49,-15.64,0.14,1.49,0.44,1.65,
2.434,6.49,-15.64,0.14,1.48,0.45,1.54,
2.434,6.49,-15.64,0.14,1.47,0.45,1.44,
2.435,6.59,-15.58,0.22,1.47,0.45,1.44,
2.435,6.59,-15.58,0.22,1.46,0.46,1.33,
2.435,6.59,-15.58,0.22,1.45,0.46,1.22,
2.435,6.73,-15.59,0.32,1.45,0.46,1.22,
2.435,6.73,-15.59,0.32,1.45,0.47,1.10,
2.441,6.73,-15.59,0.32,1.44,0.47,0.98,
2.441,6.91,-15.60,0.37,1.44,0.47,0.98,
2.441,6.91,-15.60,0.37,1.44,0.47,0.85,
2.442,7.09,-15.59,0.40,1.44,0.47,0.85,
2.442,7.09,-15.59,0.40,1.43,0.48,0.73,
2.443,7.09,-15.59,0.40,1.43,0.49,0.59,
2.447,7.32,-15.59,0.43,1.43,0.49,0.59,
2.447,7.32,-15.59,0.43,1.42,0.50,0.45,
2.449,7.32,-15.59,0.43,1.42,0.51,0.31,
2.452,7.32,-15.59,0.43,1.42,0.52,0.16,
2.452,7.51,-15.57,0.47,1.42,0.52,0.16,
2.454,7.51,-15.57,0.47,1.41,0.53,0.02,
2.456,7.51,-15.57,0.47,1.42,0.55,-0.14,
2.456,7.65,-15.55,0.49,1.42,0.55,-0.14,
2.459,7.65,-15.55,0.49,1.41,0.56,-0.30,
2.461,7.65,-15.55,0.49,1.42,0.58,-0.47,
2.461,7.73,-15.50,0.51,1.42,0.58,-0.47,
2.463,7.73,-15.50,0.51,1.42,0.60,-0.63,
2.466,7.73,-15.50,0.51,1.42,0.63,-0.80,
2.466,7.69,-15.47,0.56,1.42,0.63,-0.80,
2.468,7.69,-15.47,0.56,1.43,0.65,-0.97,
2.472,7.56,-15.45,0.60,1.43,0.65,-0.97,
2.474,7.56,-15.45,0.60,1.43,0.67,-1.13,
2.474,7.56,-15.45,0.60,1.44,0.70,-1.30,
2.482,7.29,-15.48,0.67,1.44,0.70,-1.30,
2.482,6.95,-15.51,0.76,1.44,0.70,-1.30,
2.482,6.95,-15.51,0.76,1.44,0.72,-1.47,
2.482,6.95,-15.51,0.76,1.45,0.74,-1.63,
2.482,6.95,-15.51,0.76,1.45,0.75,-1.80,
2.483,6.95,-15.51,0.76,1.45,0.76,-1.96,
2.486,6.95,-15.51,0.76,1.46,0.77,-2.12,
2.486,6.50,-15.58,0.82,1.46,0.77,-2.12,
2.489,6.50,-15.58,0.82,1.46,0.77,-2.28,
2.491,6.50,-15.58,0.82,1.46,0.77,-2.43,
2.491,5.95,-15.69,0.87,1.46,0.77,-2.43,
2.493,5.95,-15.69,0.87,1.46,0.76,-2.59,
2.496,5.44,-15.83,0.93,1.46,0.76,-2.59,
2.496,5.44,-15.83,0.93,1.46,0.75,-2.74,
2.498,5.44,-15.83,0.93,1.46,0.74,-2.89,
2.5,5.44,-15.83,0.93,1.45,0.72,-3.04,
2.5,5.00,-15.91,0.95,1.45,0.72,-3.04,
2.502,5.00,-15.91,0.95,1.44,0.69,-3.18,
2.506,5.00,-15.91,0.95,1.42,0.67,-3.32,
2.506,4.55,-15.91,0.90,1.42,0.67,-3.32,
2.507,4.55,-15.91,0.90,1.40,0.64,-3.46,
2.51,4.55,-15.91,0.90,1.37,0.62,-3.60,
2.511,4.09,-15.79,0.83,1.37,0.62,-3.60,
2.512,4.09,-15.79,0.83,1.34,0.59,-3.73,
2.515,4.09,-15.79,0.83,1.31,0.56,-3.85,
2.515,3.60,-15.64,0.73,1.31,0.56,-3.85,
2.517,3.60,-15.64,0.73,1.27,0.54,-3.97,
2.52,3.60,-15.64,0.73,1.22,0.50,-4.09,
2.521,3.18,-15.58,0.62,1.22,0.50,-4.09,
2.522,3.18,-15.58,0.62,1.17,0.47,-4.21,
2.525,3.18,-15.58,0.62,1.12,0.44,-4.32,
2.525,2.81,-15.53,0.58,1.12,0.44,-4.32,
2.527,2.81,-15.53,0.58,1.07,0.40,-4.43,
2.53,2.81,-15.53,0.58,1.01,0.37,-4.53,
2.53,2.44,-15.46,0.54,1.01,0.37,-4.53,
2.533,2.44,-15.46,0.54,0.94,0.34,-4.63,
2.535,2.44,-15.46,0.54,0.88,0.31,-4.73,
2.535,2.09,-15.40,0.55,0.88,0.31,-4.73,
2.538,2.09,-15.40,0.55,0.81,0.28,-4.83,
2.54,1.77,-15.36,0.60,0.81,0.28,-4.83,
2.54,1.77,-15.36,0.60,0.75,0.24,-4.93,
2.542,1.77,-15.36,0.60,0.68,0.21,-5.04,
2.545,1.77,-15.36,0.60,0.62,0.18,-5.14,
2.545,1.48,-15.39,0.64,0.62,0.18,-5.14,
2.547,1.48,-15.39,0.64,0.56,0.15,-5.24,
2.55,1.48,-15.39,0.64,0.50,0.11,-5.35,
2.55,1.17,-15.47,0.67,0.50,0.11,-5.35,
2.552,1.17,-15.47,0.67,0.45,0.08,-5.47,
2.555,1.17,-15.47,0.67,0.41,0.06,-5.58,
2.556,0.82,-15.57,0.71,0.41,0.06,-5.58,
2.558,0.82,-15.57,0.71,0.38,0.03,-5.70,
2.56,0.82,-15.57,0.71,0.36,-0.00,-5.83,
2.56,0.42,-15.62,0.79,0.36,-0.00,-5.83,
2.563,0.42,-15.62,0.79,0.35,-0.03,-5.95,
2.565,0.42,-15.62,0.79,0.35,-0.06,-6.08,
2.565,-0.11,-15.66,0.84,0.35,-0.06,-6.08,
2.567,-0.11,-15.66,0.84,0.36,-0.09,-6.21,
2.576,-0.11,-15.66,0.84,0.39,-0.11,-6.33,
2.577,-0.79,-15.60,0.83,0.39,-0.11,-6.33,
2.577,-0.79,-15.60,0.83,0.42,-0.12,-6.45,
2.578,-0.79,-15.60,0.83,0.46,-0.13,-6.57,
2.578,-1.59,-15.53,0.63,0.46,-0.13,-6.57,
2.579,-1.59,-15.53,0.63,0.50,-0.13,-6.67,
2.58,-1.59,-15.53,0.63,0.55,-0.13,-6.77,
2.581,-2.56,-15.37,0.34,0.55,-0.13,-6.77,
2.582,-2.56,-15.37,0.34,0.60,-0.13,-6.86,
2.585,-3.55,-15.19,-0.06,0.60,-0.13,-6.86,
2.587,-3.55,-15.19,-0.06,0.65,-0.14,-6.94,
2.61,-3.55,-15.19,-0.06,0.70,-0.15,-7.01,
2.61,-3.55,-15.19,-0.06,0.74,-0.17,-7.07,
2.611,-4.47,-14.91,-0.52,0.74,-0.17,-7.07,
2.611,-4.47,-14.91,-0.52,0.77,-0.19,-7.11,
2.611,-5.29,-14.54,-1.06,0.77,-0.19,-7.11,
2.611,-5.29,-14.54,-1.06,0.80,-0.20,-7.14,
2.611,-5.29,-14.54,-1.06,0.81,-0.21,-7.16,
2.612,-5.98,-14.10,-1.65,0.81,-0.21,-7.16,
2.612,-5.98,-14.10,-1.65,0.81,-0.21,-7.17,
2.612,-5.98,-14.10,-1.65,0.79,-0.20,-7.17,
2.612,-6.52,-13.66,-2.26,0.79,-0.20,-7.17,
2.613,-6.52,-13.66,-2.26,0.76,-0.18,-7.15,
2.613,-6.52,-13.66,-2.26,0.71,-0.16,-7.13,
2.613,-6.52,-13.66,-2.26,0.65,-0.13,-7.11,
2.613,-7.00,-13.28,-2.77,0.65,-0.13,-7.11,
2.614,-7.00,-13.28,-2.77,0.57,-0.11,-7.08,
2.616,-7.00,-13.28,-2.77,0.47,-0.08,-7.04,
2.617,-7.41,-13.00,-3.15,0.47,-0.08,-7.04,
2.617,-7.41,-13.00,-3.15,0.37,-0.06,-7.01,
2.62,-7.76,-12.80,-3.32,0.37,-0.06,-7.01,
2.621,-7.76,-12.80,-3.32,0.25,-0.03,-6.97,
2.623,-7.76,-12.80,-3.32,0.12,-0.02,-6.94,
2.625,-8.15,-12.73,-3.26,0.12,-0.02,-6.94,
2.625,-8.15,-12.73,-3.26,-0.02,-0.01,-6.90,
2.626,-8.15,-12.73,-3.26,-0.16,-0.01,-6.88,
2.63,-8.61,-12.85,-2.97,-0.16,-0.01,-6.88,
2.631,-8.61,-12.85,-2.97,-0.31,-0.02,-6.85,
2.633,-8.61,-12.85,-2.97,-0.46,-0.05,-6.84,
2.634,-8.61,-12.85,-2.97,-0.61,-0.09,-6.82,
2.635,-9.14,-13.05,-2.50,-0.61,-0.09,-6.82,
2.636,-9.14,-13.05,-2.50,-0.77,-0.14,-6.81,
2.639,-9.14,-13.05,-2.50,-0.93,-0.21,-6.81,
2.64,-9.65,-13.18,-1.89,-0.93,-0.21,-6.81,
2.641,-9.65,-13.18,-1.89,-1.08,-0.28,-6.81,
2.644,-9.65,-13.18,-1.89,-1.24,-0.37,-6.80,
2.644,-10.18,-13.24,-1.22,-1.24,-0.37,-6.80,
2.646,-10.18,-13.24,-1.22,-1.39,-0.46,-6.81,
2.65,-10.18,-13.24,-1.22,-1.55,-0.57,-6.81,
2.65,-10.72,-13.14,-0.55,-1.55,-0.57,-6.81,
2.652,-10.72,-13.14,-0.55,-1.70,-0.68,-6.82,
2.656,-11.16,-12.87,0.12,-1.70,-0.68,-6.82,
2.656,-11.16,-12.87,0.12,-1.84,-0.80,-6.82,
2.657,-11.16,-12.87,0.12,-1.99,-0.93,-6.82,
2.659,-11.16,-12.87,0.12,-2.12,-1.06,-6.82,
2.659,-11.46,-12.45,0.73,-2.12,-1.06,-6.82,
2.662,-11.46,-12.45,0.73,-2.26,-1.19,-6.81,
2.664,-11.46,-12.45,0.73,-2.39,-1.32,-6.80,
2.664,-11.63,-12.01,1.24,-2.39,-1.32,-6.80,
2.666,-11.63,-12.01,1.24,-2.51,-1.45,-6.80,
2.67,-11.72,-11.61,1.71,-2.51,-1.45,-6.80,
2.67,-11.72,-11.61,1.71,-2.64,-1.57,-6.78,
2.673,-11.72,-11.61,1.71,-2.75,-1.69,-6.77,
2.681,-11.72,-11.61,1.71,-2.87,-1.81,-6.76,
2.682,-11.72,-11.61,1.71,-2.97,-1.92,-6.75,
2.682,-11.72,-11.61,1.71,-3.07,-2.03,-6.75,
2.683,-11.72,-11.25,2.17,-3.07,-2.03,-6.75,
2.683,-11.68,-10.91,2.63,-3.07,-2.03,-6.75,
2.684,-11.68,-10.91,2.63,-3.15,-2.13,-6.75,
2.685,-11.61,-10.61,3.08,-3.15,-2.13,-6.75,
2.685,-11.61,-10.61,3.08,-3.23,-2.23,-6.75,
2.686,-11.61,-10.61,3.08,-3.30,-2.32,-6.76,
2.708,-11.61,-10.61,3.08,-3.36,-2.40,-6.77,
2.709,-11.55,-10.33,3.47,-3.36,-2.40,-6.77,
2.71,-11.55,-10.33,3.47,-3.41,-2.48,-6.78,
2.71,-11.56,-10.06,3.82,-3.41,-2.48,-6.78,
2.711,-11.56,-10.06,3.82,-3.45,-2.55,-6.80,
2.711,-11.56,-10.06,3.82,-3.48,-2.62,-6.82,
2.712,-11.56,-10.06,3.82,-3.50,-2.68,-6.85,
2.712,-11.65,-9.82,4.12,-3.50,-2.68,-6.85,
2.712,-11.65,-9.82,4.12,-3.51,-2.73,-6.87,
2.713,-11.65,-9.82,4.12,-3.50,-2.78,-6.91,
2.713,-11.76,-9.51,4.44,-3.50,-2.78,-6.91,
2.713,-11.76,-9.51,4.44,-3.49,-2.82,-6.94,
2.714,-11.76,-9.51,4.44,-3.46,-2.86,-6.97,
2.714,-11.93,-9.10,4.67,-3.46,-2.86,-6.97,
2.716,-11.93,-9.10,4.67,-3.42,-2.88,-7.01,
2.717,-11.93,-9.10,4.67,-3.36,-2.89,-7.04,
2.718,-11.93,-9.10,4.67,-3.29,-2.89,-7.08,
2.718,-12.14,-8.57,4.84,-3.29,-2.89,-7.08,
2.719,-12.14,-8.57,4.84,-3.21,-2.87,-7.11,
2.719,-12.41,-7.94,4.97,-3.21,-2.87,-7.11,
2.722,-12.41,-7.94,4.97,-3.12,-2.85,-7.15,
2.724,-12.41,-7.94,4.97,-3.01,-2.82,-7.17,
2.725,-12.72,-7.19,4.99,-3.01,-2.82,-7.17,
2.726,-12.72,-7.19,4.99,-2.89,-2.77,-7.20,
2.729,-13.07,-6.36,4.98,-2.89,-2.77,-7.20,
2.729,-13.07,-6.36,4.98,-2.76,-2.71,-7.22,
2.731,-13.07,-6.36,4.98,-2.61,-2.65,-7.24,
2.733,-13.07,-6.36,4.98,-2.46,-2.57,-7.25,
2.733,-13.46,-5.45,4.86,-2.46,-2.57,-7.25,
2.736,-13.46,-5.45,4.86,-2.31,-2.47,-7.25,
2.738,-13.46,-5.45,4.86,-2.14,-2.37,-7.25,
2.739,-13.89,-4.44,4.68,-2.14,-2.37,-7.25,
2.741,-13.89,-4.44,4.68,-1.97,-2.25,-7.24,
2.743,-14.29,-3.33,4.47,-1.97,-2.25,-7.24,
2.744,-14.29,-3.33,4.47,-1.79,-2.12,-7.22,
2.746,-14.29,-3.33,4.47,-1.61,-1.98,-7.18,
2.748,-14.29,-3.33,4.47,-1.43,-1.83,-7.14,
2.749,-14.68,-2.10,4.22,-1.43,-1.83,-7.14,
2.751,-14.68,-2.10,4.22,-1.24,-1.67,-7.09,
2.77,-14.68,-2.10,4.22,-1.05,-1.50,-7.02,
2.771,-15.03,-0.89,3.97,-1.05,-1.50,-7.02,
2.771,-15.03,-0.89,3.97,-0.86,-1.32,-6.95,
2.771,-15.03,-0.89,3.97,-0.68,-1.14,-6.86,
2.772,-15.32,0.34,3.69,-0.68,-1.14,-6.86,
2.772,-15.32,0.34,3.69,-0.49,-0.95,-6.76,
2.772,-15.32,0.34,3.69,-0.31,-0.76,-6.66,
2.773,-15.62,1.53,3.42,-0.31,-0.76,-6.66,
2.773,-15.62,1.53,3.42,-0.14,-0.56,-6.54,
2.773,-15.62,1.53,3.42,0.02,-0.37,-6.41,
2.774,-15.90,2.72,3.16,0.02,-0.37,-6.41,
2.774,-15.90,2.72,3.16,0.18,-0.19,-6.27,
2.774,-15.90,2.72,3.16,0.33,-0.00,-6.12,
2.775,-16.21,3.90,2.95,0.33,-0.00,-6.12,
2.777,-16.21,3.90,2.95,0.47,0.17,-5.95,
2.778,-16.21,3.90,2.95,0.60,0.34,-5.77,
2.778,-16.50,5.07,2.73,0.60,0.34,-5.77,
2.78,-16.50,5.07,2.73,0.72,0.49,-5.57,
2.783,-16.50,5.07,2.73,0.84,0.63,-5.36,
2.783,-16.78,6.21,2.59,0.84,0.63,-5.36,
2.785,-16.78,6.21,2.59,0.94,0.75,-5.14,
2.789,-16.78,6.21,2.59,1.04,0.86,-4.91,
2.789,-16.91,7.21,2.43,1.04,0.86,-4.91,
2.79,-16.91,7.21,2.43,1.12,0.94,-4.66,
2.793,-16.91,7.21,2.43,1.19,1.01,-4.41,
2.793,-16.82,8.10,2.29,1.19,1.01,-4.41,
2.795,-16.82,8.10,2.29,1.26,1.06,-4.15,
2.798,-16.82,8.10,2.29,1.31,1.10,-3.89,
2.798,-16.56,8.86,2.15,1.31,1.10,-3.89,
2.8,-16.56,8.86,2.15,1.35,1.12,-3.62,
2.803,-16.56,8.86,2.15,1.38,1.12,-3.35,
2.803,-16.09,9.49,1.97,1.38,1.12,-3.35,
2.807,-16.09,9.49,1.97,1.39,1.10,-3.08,
2.81,-16.09,9.49,1.97,1.40,1.07,-2.82,
2.811,-15.47,9.86,1.70,1.40,1.07,-2.82,
2.811,-15.47,9.86,1.70,1.38,1.01,-2.56,
2.813,-15.47,9.86,1.70,1.36,0.94,-2.31,
2.813,-14.72,10.03,1.41,1.36,0.94,-2.31,
2.816,-14.72,10.03,1.41,1.32,0.86,-2.08,
2.817,-14.72,10.03,1.41,1.26,0.76,-1.85,
2.818,-13.94,10.00,1.03,1.26,0.76,-1.85,
2.82,-13.94,10.00,1.03,1.20,0.65,-1.64,
2.823,-13.94,10.00,1.03,1.11,0.53,-1.43,
2.823,-13.13,9.83,0.65,1.11,0.53,-1.43,
2.825,-13.13,9.83,0.65,1.01,0.40,-1.24,
2.828,-13.13,9.83,0.65,0.90,0.26,-1.07,
2.828,-12.34,9.54,0.29,0.90,0.26,-1.07,
2.83,-12.34,9.54,0.29,0.78,0.10,-0.90,
2.833,-11.62,9.17,-0.08,0.78,0.10,-0.90,
2.833,-11.62,9.17,-0.08,0.64,-0.06,-0.75,
2.835,-11.62,9.17,-0.08,0.49,-0.24,-0.60,
2.838,-11.62,9.17,-0.08,0.33,-0.43,-0.48,
2.838,-10.91,8.80,-0.39,0.33,-0.43,-0.48,
2.842,-10.91,8.80,-0.39,0.17,-0.63,-0.35,
2.842,-10.91,8.80,-0.39,-0.01,-0.83,-0.25,
2.842,-10.22,8.43,-0.71,-0.01,-0.83,-0.25,
2.845,-10.22,8.43,-0.71,-0.19,-1.04,-0.15,
2.847,-10.22,8.43,-0.71,-0.39,-1.25,-0.06,
2.848,-9.59,8.06,-0.97,-0.39,-1.25,-0.06,
2.85,-9.59,8.06,-0.97,-0.59,-1.46,0.02,
2.852,-9.59,8.06,-0.97,-0.79,-1.68,0.09,
2.852,-8.98,7.76,-1.20,-0.79,-1.68,0.09,
2.857,-8.98,7.76,-1.20,-0.99,-1.89,0.15,
2.857,-8.98,7.76,-1.20,-1.20,-2.09,0.21,
2.857,-8.39,7.47,-1.37,-1.20,-2.09,0.21,
2.86,-8.39,7.47,-1.37,-1.40,-2.29,0.26,
2.862,-8.39,7.47,-1.37,-1.61,-2.48,0.30,
2.862,-7.84,7.26,-1.47,-1.61,-2.48,0.30,
2.864,-7.84,7.26,-1.47,-1.81,-2.67,0.34,
2.867,-7.84,7.26,-1.47,-2.00,-2.85,0.37,
2.867,-7.31,7.12,-1.41,-2.00,-2.85,0.37,
2.869,-7.31,7.12,-1.41,-2.19,-3.02,0.39,
2.875,-7.31,7.12,-1.41,-2.38,-3.19,0.41,
2.875,-6.81,7.02,-1.32,-2.38,-3.19,0.41,
2.875,-6.81,7.02,-1.32,-2.55,-3.34,0.43,
2.877,-6.81,7.02,-1.32,-2.72,-3.49,0.44,
2.877,-6.32,6.95,-1.19,-2.72,-3.49,0.44,
2.879,-6.32,6.95,-1.19,-2.88,-3.63,0.45,
2.882,-6.32,6.95,-1.19,-3.04,-3.76,0.45,
2.882,-5.80,6.92,-1.02,-3.04,-3.76,0.45,
2.885,-5.80,6.92,-1.02,-3.18,-3.88,0.45,
2.899,-5.80,6.92,-1.02,-3.32,-3.99,0.45,
2.9,-5.34,6.92,-0.84,-3.32,-3.99,0.45,
2.9,-5.34,6.92,-0.84,-3.44,-4.09,0.45,
2.9,-5.34,6.92,-0.84,-3.56,-4.17,0.45,
2.9,-4.94,6.93,-0.64,-3.56,-4.17,0.45,
2.9,-4.94,6.93,-0.64,-3.67,-4.24,0.45,
2.9,-4.94,6.93,-0.64,-3.77,-4.31,0.45,
2.9,-4.57,6.99,-0.41,-3.77,-4.31,0.45,
2.9,-4.57,6.99,-0.41,-3.86,-4.36,0.44,
2.903,-4.57,6.99,-0.41,-3.94,-4.39,0.44,
2.903,-4.26,7.02,-0.15,-3.94,-4.39,0.44,
2.905,-4.26,7.02,-0.15,-4.02,-4.42,0.44,
2.907,-4.00,7.06,0.12,-4.02,-4.42,0.44,
2.908,-4.00,7.06,0.12,-4.08,-4.44,0.44,
2.909,-4.00,7.06,0.12,-4.14,-4.44,0.44,
2.912,-3.76,7.07,0.42,-4.14,-4.44,0.44,
2.912,-3.76,7.07,0.42,-4.19,-4.43,0.44,
2.914,-3.76,7.07,0.42,-4.23,-4.42,0.45,
2.917,-3.76,7.07,0.42,-4.26,-4.39,0.45,
2.932,-3.55,7.06,0.70,-4.26,-4.39,0.45,
2.932,-3.55,7.06,0.70,-4.28,-4.35,0.45,
2.932,-3.35,6.97,1.03,-4.28,-4.35,0.45,
2.932,-3.35,6.97,1.03,-4.30,-4.30,0.46,
2.933,-3.35,6.97,1.03,-4.30,-4.25,0.46,
2.933,-3.35,6.97,1.03,-4.31,-4.18,0.47,
2.933,-3.15,6.88,1.40,-4.31,-4.18,0.47,
2.933,-3.15,6.88,1.40,-4.30,-4.11,0.46,
2.934,-3.15,6.88,1.40,-4.29,-4.03,0.47,
2.934,-2.96,6.73,1.77,-4.29,-4.03,0.47,
2.934,-2.96,6.73,1.77,-4.27,-3.94,0.47,
2.937,-2.96,6.73,1.77,-4.24,-3.84,0.46,
2.937,-2.79,6.62,2.16,-4.24,-3.84,0.46,
2.941,-2.79,6.62,2.16,-4.21,-3.73,0.46,
2.942,-2.79,6.62,2.16,-4.17,-3.62,0.46,
2.942,-2.63,6.53,2.60,-4.17,-3.62,0.46,
2.944,-2.63,6.53,2.60,-4.13,-3.49,0.46,
2.947,-2.63,6.53,2.60,-4.08,-3.36,0.45,
2.947,-2.47,6.45,3.03,-4.08,-3.36,0.45,
2.949,-2.47,6.45,3.03,-4.02,-3.23,0.45,
2.952,-2.47,6.45,3.03,-3.96,-3.09,0.44,
2.952,-2.35,6.33,3.48,-3.96,-3.09,0.44,
2.954,-2.35,6.33,3.48,-3.90,-2.95,0.44,
2.958,-2.28,6.15,3.90,-3.90,-2.95,0.44,
2.958,-2.28,6.15,3.90,-3.83,-2.80,0.43,
2.959,-2.28,6.15,3.90,-3.76,-2.65,0.42,
2.962,-2.25,5.95,4.32,-3.76,-2.65,0.42,
2.962,-2.25,5.95,4.32,-3.68,-2.50,0.41,
2.964,-2.25,5.95,4.32,-3.61,-2.35,0.39,
2.967,-2.28,5.70,4.71,-3.61,-2.35,0.39,
2.967,-2.28,5.70,4.71,-3.53,-2.19,0.38,
2.969,-2.28,5.70,4.71,-3.45,-2.04,0.36,
2.976,-2.33,5.44,5.11,-3.45,-2.04,0.36,
2.977,-2.33,5.44,5.11,-3.37,-1.88,0.35,
2.977,-2.33,5.44,5.11,-3.29,-1.72,0.33,
2.977,-2.33,5.44,5.11,-3.20,-1.56,0.31,
2.978,-2.40,5.19,5.55,-3.20,-1.56,0.31,
2.981,-2.40,5.19,5.55,-3.11,-1.39,0.30,
2.981,-2.40,5.19,5.55,-3.02,-1.22,0.27,
2.983,-2.55,4.92,6.04,-3.02,-1.22,0.27,
2.984,-2.55,4.92,6.04,-2.92,-1.06,0.26,
2.987,-2.74,4.67,6.58,-2.92,-1.06,0.26,
2.987,-2.74,4.67,6.58,-2.82,-0.89,0.24,
3.004,-2.74,4.67,6.58,-2.72,-0.73,0.22,
3.005,-2.74,4.67,6.58,-2.61,-0.56,0.20,
3.005,-3.04,4.38,7.17,-2.61,-0.56,0.20,
3.005,-3.04,4.38,7.17,-2.49,-0.40,0.18,
3.006,-3.04,4.38,7.17,-2.37,-0.24,0.16,
3.006,-3.41,4.07,7.80,-2.37,-0.24,0.16,
3.006,-3.41,4.07,7.80,-2.24,-0.08,0.14,
3.007,-3.41,4.07,7.80,-2.10,0.07,0.11,
3.007,-3.78,3.72,8.41,-2.10,0.07,0.11,
3.007,-3.78,3.72,8.41,-1.96,0.22,0.09,
3.007,-3.78,3.72,8.41,-1.82,0.36,0.06,
3.008,-4.15,3.42,9.02,-1.82,0.36,0.06,
3.009,-4.15,3.42,9.02,-1.67,0.50,0.03,
3.011,-4.59,3.14,9.60,-1.67,0.50,0.03,
3.012,-4.59,3.14,9.60,-1.51,0.64,0.00,
3.013,-4.59,3.14,9.60,-1.34,0.77,-0.03,
3.016,-4.59,3.14,9.60,-1.17,0.91,-0.06,
3.016,-5.02,2.96,10.17,-1.17,0.91,-0.06,
3.018,-5.02,2.96,10.17,-0.99,1.04,-0.10,
3.021,-5.02,2.96,10.17,-0.81,1.17,-0.13,
3.021,-5.45,2.88,10.71,-0.81,1.17,-0.13,
3.024,-5.45,2.88,10.71,-0.62,1.30,-0.16,
3.026,-5.45,2.88,10.71,-0.42,1.43,-0.20,
3.026,-5.92,2.92,11.21,-0.42,1.43,-0.20,
3.028,-5.92,2.92,11.21,-0.22,1.55,-0.23,
3.031,-6.40,3.06,11.68,-0.22,1.55,-0.23,
3.031,-6.40,3.06,11.68,-0.01,1.66,-0.26,
3.034,-6.40,3.06,11.68,0.21,1.77,-0.29,
3.036,-6.40,3.06,11.68,0.42,1.88,-0.32,
3.036,-6.96,3.20,12.12,0.42,1.88,-0.32,
3.039,-6.96,3.20,12.12,0.64,1.97,-0.35,
3.041,-6.96,3.20,12.12,0.86,2.06,-0.38,
3.042,-7.60,3.34,12.47,0.86,2.06,-0.38,
3.043,-7.60,3.34,12.47,1.08,2.15,-0.40,
3.046,-7.60,3.34,12.47,1.30,2.23,-0.42,
3.046,-8.33,3.52,12.70,1.30,2.23,-0.42,
3.048,-8.33,3.52,12.70,1.52,2.30,-0.44,
3.051,-9.09,3.72,12.75,1.52,2.30,-0.44,
3.051,-9.09,3.72,12.75,1.73,2.37,-0.45,
3.053,-9.09,3.72,12.75,1.95,2.44,-0.45,
3.056,-9.99,3.94,12.71,1.95,2.44,-0.45,
3.057,-9.99,3.94,12.71,2.16,2.50,-0.45,
3.058,-9.99,3.94,12.71,2.36,2.55,-0.43,
3.061,-9.99,3.94,12.71,2.57,2.60,-0.41,
3.061,-10.97,4.16,12.52,2.57,2.60,-0.41,
3.063,-10.97,4.16,12.52,2.76,2.64,-0.38,
3.066,-12.05,4.40,12.27,2.76,2.64,-0.38,
3.066,-12.05,4.40,12.27,2.96,2.68,-0.33,
3.068,-12.05,4.40,12.27,3.14,2.71,-0.28,
3.071,-13.16,4.63,11.94,3.14,2.71,-0.28,
3.071,-13.16,4.63,11.94,3.32,2.74,-0.21,
3.078,-13.16,4.63,11.94,3.50,2.76,-0.13,
3.079,-14.26,4.94,11.58,3.50,2.76,-0.13,
3.079,-14.26,4.94,11.58,3.66,2.77,-0.04,
3.08,-14.26,4.94,11.58,3.83,2.78,0.08,
3.081,-15.28,5.24,11.17,3.83,2.78,0.08,
3.082,-15.28,5.24,11.17,3.99,2.78,0.20,
3.11,-15.28,5.24,11.17,4.14,2.78,0.34,
3.11,-15.28,5.24,11.17,4.28,2.77,0.50,
3.11,-16.22,5.52,10.72,4.28,2.77,0.50,
3.111,-16.22,5.52,10.72,4.42,2.75,0.67,
3.111,-16.22,5.52,10.72,4.54,2.72,0.85,
3.111,-17.07,5.74,10.16,4.54,2.72,0.85,
3.112,-17.07,5.74,10.16,4.66,2.68,1.05,
3.112,-17.07,5.74,10.16,4.76,2.64,1.26,
3.112,-17.77,5.82,9.44,4.76,2.64,1.26,
3.112,-17.77,5.82,9.44,4.86,2.60,1.48,
3.113,-17.77,5.82,9.44,4.93,2.54,1.70,
3.113,-18.29,5.72,8.63,4.93,2.54,1.70,
3.114,-18.29,5.72,8.63,4.99,2.48,1.94,
3.116,-18.29,5.72,8.63,5.04,2.42,2.19,
3.116,-18.58,5.40,7.65,5.04,2.42,2.19,
3.116,-18.58,5.40,7.65,5.06,2.36,2.44,
3.117,-18.58,5.40,7.65,5.06,2.29,2.69,
3.117,-18.60,4.84,6.60,5.06,2.29,2.69,
3.118,-18.60,4.84,6.60,5.04,2.22,2.94,
3.118,-18.60,4.84,6.60,5.01,2.15,3.19,
3.118,-18.38,4.13,5.52,5.01,2.15,3.19,
3.119,-18.38,4.13,5.52,4.95,2.07,3.43,
3.122,-18.38,4.13,5.52,4.88,1.99,3.67,
3.122,-18.00,3.29,4.56,4.88,1.99,3.67,
3.123,-18.00,3.29,4.56,4.80,1.91,3.90,
3.126,-18.00,3.29,4.56,4.69,1.83,4.12,
3.127,-17.51,2.36,3.69,4.69,1.83,4.12,
3.127,-17.51,2.36,3.69,4.58,1.75,4.33,
3.13,-17.51,2.36,3.69,4.46,1.67,4.53,
3.13,-16.93,1.35,3.03,4.46,1.67,4.53,
3.132,-16.93,1.35,3.03,4.33,1.59,4.71,
3.135,-16.93,1.35,3.03,4.20,1.52,4.87,
3.135,-16.28,0.32,2.52,4.20,1.52,4.87,
3.137,-16.28,0.32,2.52,4.06,1.44,5.02,
3.141,-16.28,0.32,2.52,3.93,1.36,5.16,
3.141,-15.59,-0.70,2.23,3.93,1.36,5.16,
3.142,-15.59,-0.70,2.23,3.80,1.29,5.28,
3.145,-15.59,-0.70,2.23,3.66,1.22,5.38,
3.149,-14.98,-1.72,1.98,3.66,1.22,5.38,
3.149,-14.98,-1.72,1.98,3.53,1.16,5.47,
3.15,-14.98,-1.72,1.98,3.41,1.10,5.55,
3.15,-14.49,-2.73,1.81,3.41,1.10,5.55,
3.152,-14.49,-2.73,1.81,3.29,1.04,5.61,
3.155,-14.49,-2.73,1.81,3.17,0.99,5.67,
3.156,-14.13,-3.73,1.78,3.17,0.99,5.67,
3.157,-14.13,-3.73,1.78,3.07,0.94,5.71,
3.162,-13.83,-4.69,1.83,3.07,0.94,5.71,
3.162,-13.83,-4.69,1.83,2.97,0.89,5.74,
3.162,-13.83,-4.69,1.83,2.87,0.83,5.76,
3.166,-13.83,-4.69,1.83,2.79,0.78,5.78,
3.166,-13.68,-5.61,1.90,2.79,0.78,5.78,
3.168,-13.68,-5.61,1.90,2.71,0.72,5.78,
3.17,-13.68,-5.61,1.90,2.64,0.68,5.78,
3.171,-13.65,-6.45,1.94,2.64,0.68,5.78,
3.174,-13.65,-6.45,1.94,2.57,0.63,5.78,
3.175,-13.65,-6.45,1.94,2.51,0.59,5.78,
3.175,-13.77,-7.28,1.89,2.51,0.59,5.78,
3.177,-13.77,-7.28,1.89,2.44,0.56,5.77,
3.179,-13.77,-7.28,1.89,2.39,0.53,5.76,
3.18,-13.99,-8.08,1.84,2.39,0.53,5.76,
3.182,-13.99,-8.08,1.84,2.33,0.49,5.76,
3.185,-13.99,-8.08,1.84,2.27,0.46,5.75,
3.186,-14.27,-8.79,1.80,2.27,0.46,5.75,
3.187,-14.27,-8.79,1.80,2.22,0.43,5.75,
3.192,-14.45,-9.40,1.83,2.22,0.43,5.75,
3.192,-14.45,-9.40,1.83,2.16,0.39,5.74,
3.193,-14.45,-9.40,1.83,2.10,0.36,5.74,
3.197,-14.45,-9.40,1.83,2.05,0.32,5.74,
3.198,-14.45,-9.40,1.83,1.98,0.28,5.74,
3.198,-14.57,-9.88,1.80,1.98,0.28,5.74,
3.2,-14.57,-9.88,1.80,1.92,0.24,5.75,
3.2,-14.59,-10.26,1.80,1.92,0.24,5.75,
3.203,-14.59,-10.26,1.80,1.85,0.19,5.76,
3.205,-14.59,-10.26,1.80,1.78,0.15,5.78,
3.205,-14.60,-10.56,1.88,1.78,0.15,5.78,
3.219,-14.60,-10.56,1.88,1.71,0.10,5.80,
3.22,-14.60,-10.56,1.88,1.64,0.05,5.83,
3.22,-14.58,-10.77,2.01,1.64,0.05,5.83,
3.221,-14.58,-10.77,2.01,1.57,-0.00,5.87,
3.221,-14.58,-10.77,2.01,1.49,-0.05,5.91,
3.221,-14.51,-10.95,2.21,1.49,-0.05,5.91,
3.222,-14.51,-10.95,2.21,1.42,-0.11,5.97,
3.222,-14.51,-10.95,2.21,1.35,-0.16,6.03,
3.223,-14.35,-11.15,2.44,1.35,-0.16,6.03,
3.227,-14.35,-11.15,2.44,1.28,-0.22,6.09,
3.228,-14.11,-11.44,2.66,1.28,-0.22,6.09,
3.228,-14.11,-11.44,2.66,1.21,-0.28,6.16,
3.229,-14.11,-11.44,2.66,1.15,-0.34,6.24,
3.229,-14.11,-11.44,2.66,1.09,-0.41,6.31,
3.23,-13.84,-11.83,2.92,1.09,-0.41,6.31,
3.237,-13.84,-11.83,2.92,1.03,-0.49,6.39,
3.237,-13.48,-12.32,3.20,1.03,-0.49,6.39,
3.238,-13.48,-12.32,3.20,0.98,-0.56,6.47,
3.238,-13.48,-12.32,3.20,0.93,-0.65,6.55,
3.241,-13.48,-12.32,3.20,0.89,-0.74,6.63,
3.241,-13.04,-12.84,3.49,0.89,-0.74,6.63,
3.242,-13.04,-12.84,3.49,0.86,-0.83,6.71,
3.245,-13.04,-12.84,3.49,0.83,-0.93,6.78,
3.245,-12.49,-13.37,3.76,0.83,-0.93,6.78,
3.247,-12.49,-13.37,3.76,0.82,-1.02,6.86,
3.263,-12.49,-13.37,3.76,0.81,-1.13,6.92,
3.263,-11.82,-13.93,4.00,0.81,-1.13,6.92,
3.263,-11.82,-13.93,4.00,0.81,-1.23,6.98,
3.264,-11.82,-13.93,4.00,0.81,-1.33,7.04,
3.264,-11.03,-14.49,4.15,0.81,-1.33,7.04,
3.264,-11.03,-14.49,4.15,0.83,-1.44,7.09,
3.265,-11.03,-14.49,4.15,0.86,-1.54,7.13,
3.265,-10.19,-15.00,4.20,0.86,-1.54,7.13,
3.265,-10.19,-15.00,4.20,0.89,-1.64,7.16,
3.266,-10.19,-15.00,4.20,0.93,-1.75,7.18,
3.266,-9.30,-15.46,4.20,0.93,-1.75,7.18,
3.267,-9.30,-15.46,4.20,0.98,-1.85,7.20,
3.27,-8.40,-15.90,4.08,0.98,-1.85,7.20,
3.27,-8.40,-15.90,4.08,1.04,-1.94,7.20,
3.271,-8.40,-15.90,4.08,1.10,-2.03,7.19,
3.275,-8.40,-15.90,4.08,1.17,-2.12,7.17,
3.277,-7.47,-16.26,3.82,1.17,-2.12,7.17,
3.278,-7.47,-16.26,3.82,1.24,-2.19,7.14,
3.279,-7.47,-16.26,3.82,1.32,-2.26,7.10,
3.28,-6.57,-16.55,3.42,1.32,-2.26,7.10,
3.281,-6.57,-16.55,3.42,1.40,-2.32,7.05,
3.284,-6.57,-16.55,3.42,1.49,-2.37,6.99,
3.285,-5.72,-16.78,2.94,1.49,-2.37,6.99,
3.286,-5.72,-16.78,2.94,1.57,-2.41,6.92,
3.296,-5.72,-16.78,2.94,1.65,-2.45,6.85,
3.297,-5.72,-16.78,2.94,1.73,-2.47,6.77,
3.297,-4.97,-16.97,2.41,1.73,-2.47,6.77,
3.298,-4.32,-17.05,1.87,1.73,-2.47,6.77,
3.298,-4.32,-17.05,1.87,1.81,-2.48,6.68,
3.299,-4.32,-17.05,1.87,1.88,-2.48,6.59,
3.299,-4.32,-17.05,1.87,1.95,-2.48,6.49,
3.299,-3.74,-17.04,1.29,1.95,-2.48,6.49,
3.327,-3.18,-16.91,0.73,1.95,-2.48,6.49,
3.328,-3.18,-16.91,0.73,2.01,-2.47,6.40,
3.328,-3.18,-16.91,0.73,2.06,-2.45,6.30,
3.328,-3.18,-16.91,0.73,2.11,-2.43,6.21,
3.328,-2.63,-16.71,0.21,2.11,-2.43,6.21,
3.329,-2.63,-16.71,0.21,2.15,-2.41,6.11,
3.329,-2.63,-16.71,0.21,2.18,-2.38,6.02,
3.329,-2.63,-16.71,0.21,2.21,-2.34,5.93,
3.329,-2.12,-16.43,-0.29,2.21,-2.34,5.93,
3.329,-2.12,-16.43,-0.29,2.23,-2.31,5.84,
3.329,-2.12,-16.43,-0.29,2.24,-2.27,5.76,
3.33,-1.61,-16.11,-0.70,2.24,-2.27,5.76,
3.33,-1.61,-16.11,-0.70,2.25,-2.23,5.68,
3.33,-1.61,-16.11,-0.70,2.25,-2.18,5.60,
3.33,-1.13,-15.77,-1.04,2.25,-2.18,5.60,
3.33,-1.13,-15.77,-1.04,2.25,-2.13,5.52,
3.33,-1.13,-15.77,-1.04,2.24,-2.09,5.45,
3.331,-0.68,-15.40,-1.30,2.24,-2.09,5.45,
3.331,-0.68,-15.40,-1.30,2.23,-2.04,5.39,
3.333,-0.68,-15.40,-1.30,2.21,-1.99,5.32,
3.334,-0.26,-15.05,-1.47,2.21,-1.99,5.32,
3.336,-0.26,-15.05,-1.47,2.19,-1.94,5.26,
3.338,-0.26,-15.05,-1.47,2.17,-1.90,5.20,
3.339,0.11,-14.69,-1.59,2.17,-1.90,5.20,
3.341,0.11,-14.69,-1.59,2.15,-1.86,5.14,
3.345,0.11,-14.69,-1.59,2.13,-1.81,5.09,
3.345,0.47,-14.39,-1.63,2.13,-1.81,5.09,
3.346,0.47,-14.39,-1.63,2.11,-1.77,5.04,
3.348,0.47,-14.39,-1.63,2.09,-1.74,5.00,
3.348,0.77,-14.16,-1.64,2.09,-1.74,5.00,
3.351,0.77,-14.16,-1.64,2.07,-1.70,4.95,
3.353,0.77,-14.16,-1.64,2.05,-1.67,4.91,
3.353,1.02,-13.92,-1.61,2.05,-1.67,4.91,
3.356,1.02,-13.92,-1.61,2.03,-1.64,4.87,
3.359,1.02,-13.92,-1.61,2.01,-1.62,4.84,
3.36,1.27,-13.74,-1.55,2.01,-1.62,4.84,
3.361,1.27,-13.74,-1.55,2.00,-1.59,4.80,
3.363,1.27,-13.74,-1.55,1.99,-1.58,4.77,
3.364,1.52,-13.60,-1.45,1.99,-1.58,4.77,
3.366,1.52,-13.60,-1.45,1.98,-1.56,4.74,
3.368,1.52,-13.60,-1.45,1.97,-1.55,4.71,
3.368,1.78,-13.45,-1.33,1.97,-1.55,4.71,
3.37,1.78,-13.45,-1.33,1.97,-1.55,4.68,
3.373,1.78,-13.45,-1.33,1.97,-1.55,4.65,
3.374,2.05,-13.36,-1.27,1.97,-1.55,4.65,
3.376,2.05,-13.36,-1.27,1.98,-1.55,4.63,
3.378,2.05,-13.36,-1.27,1.98,-1.55,4.60,
3.378,2.34,-13.29,-1.26,1.98,-1.55,4.60,
3.38,2.34,-13.29,-1.26,2.00,-1.54,4.57,
3.383,2.34,-13.29,-1.26,2.01,-1.54,4.55,
3.384,2.65,-13.30,-1.33,2.01,-1.54,4.55,
3.386,2.65,-13.30,-1.33,2.03,-1.53,4.52,
3.388,2.65,-13.30,-1.33,2.04,-1.52,4.48,
3.388,2.97,-13.36,-1.41,2.04,-1.52,4.48,
3.396,2.97,-13.36,-1.41,2.06,-1.51,4.45,
3.396,3.28,-13.48,-1.53,2.06,-1.51,4.45,
3.397,3.28,-13.48,-1.53,2.09,-1.50,4.41,
3.397,3.28,-13.48,-1.53,2.11,-1.48,4.36,
3.398,3.28,-13.48,-1.53,2.13,-1.47,4.31,
3.399,3.60,-13.61,-1.67,2.13,-1.47,4.31,
3.402,3.60,-13.61,-1.67,2.15,-1.45,4.26,
3.403,3.60,-13.61,-1.67,2.17,-1.43,4.21,
3.404,3.92,-13.73,-1.81,2.17,-1.43,4.21,
3.407,3.92,-13.73,-1.81,2.19,-1.41,4.15,
3.425,4.20,-13.84,-1.94,2.19,-1.41,4.15,
3.426,4.20,-13.84,-1.94,2.21,-1.39,4.09,
3.426,4.20,-13.84,-1.94,2.23,-1.36,4.02,
3.426,4.20,-13.84,-1.94,2.25,-1.33,3.95,
3.458,4.52,-13.92,-2.13,2.25,-1.33,3.95,
3.458,4.52,-13.92,-2.13,2.26,-1.30,3.88,
3.459,4.52,-13.92,-2.13,2.27,-1.27,3.80,
3.459,4.84,-13.94,-2.31,2.27,-1.27,3.80,
3.459,4.84,-13.94,-2.31,2.28,-1.23,3.73,
3.46,4.84,-13.94,-2.31,2.29,-1.20,3.64,
3.46,5.18,-13.94,-2.47,2.29,-1.20,3.64,
3.461,5.18,-13.94,-2.47,2.30,-1.16,3.56,
3.461,5.18,-13.94,-2.47,2.30,-1.12,3.48,
3.461,5.49,-13.89,-2.66,2.30,-1.12,3.48,
3.461,5.49,-13.89,-2.66,2.30,-1.08,3.39,
3.462,5.49,-13.89,-2.66,2.30,-1.04,3.31,
3.462,5.78,-13.82,-2.79,2.30,-1.04,3.31,
3.462,5.78,-13.82,-2.79,2.29,-0.99,3.22,
3.462,5.78,-13.82,-2.79,2.29,-0.95,3.13,
3.463,6.01,-13.67,-2.91,2.29,-0.95,3.13,
3.463,6.01,-13.67,-2.91,2.28,-0.90,3.04,
3.463,6.01,-13.67,-2.91,2.26,-0.85,2.96,
3.463,6.20,-13.56,-3.03,2.26,-0.85,2.96,
3.463,6.20,-13.56,-3.03,2.25,-0.80,2.87,
3.464,6.20,-13.56,-3.03,2.23,-0.75,2.78,
3.464,6.38,-13.48,-3.14,2.23,-0.75,2.78,
3.464,6.38,-13.48,-3.14,2.21,-0.71,2.69,
3.464,6.38,-13.48,-3.14,2.19,-0.66,2.60,
3.465,6.54,-13.41,-3.23,2.19,-0.66,2.60,
3.465,6.54,-13.41,-3.23,2.16,-0.61,2.51,
3.465,6.54,-13.41,-3.23,2.13,-0.56,2.43,
3.465,6.66,-13.33,-3.26,2.13,-0.56,2.43,
3.466,6.66,-13.33,-3.26,2.10,-0.51,2.34,
3.466,6.66,-13.33,-3.26,2.07,-0.46,2.25,
3.466,6.74,-13.23,-3.25,2.07,-0.46,2.25,
3.466,6.74,-13.23,-3.25,2.03,-0.42,2.17,
3.469,6.74,-13.23,-3.25,2.00,-0.37,2.08,
3.47,6.80,-13.17,-3.22,2.00,-0.37,2.08,
3.47,6.80,-13.17,-3.22,1.96,-0.33,1.99,
3.473,6.80,-13.17,-3.22,1.92,-0.29,1.90,
3.474,6.88,-13.10,-3.14,1.92,-0.29,1.90,
3.476,6.88,-13.10,-3.14,1.89,-0.26,1.82,
3.478,6.96,-13.03,-3.05,1.89,-0.26,1.82,
3.478,6.96,-13.03,-3.05,1.85,-0.23,1.73,
3.48,6.96,-13.03,-3.05,1.81,-0.20,1.64,
3.482,6.96,-13.03,-3.05,1.77,-0.17,1.55,
3.483,7.03,-12.96,-2.99,1.77,-0.17,1.55,
3.485,7.03,-12.96,-2.99,1.73,-0.15,1.46,
3.487,7.03,-12.96,-2.99,1.69,-0.13,1.37,
3.487,7.09,-12.89,-2.93,1.69,-0.13,1.37,
3.494,7.09,-12.89,-2.93,1.64,-0.11,1.28,
3.495,7.13,-12.82,-2.91,1.64,-0.11,1.28,
3.495,7.13,-12.82,-2.91,1.60,-0.09,1.19,
3.495,7.13,-12.82,-2.91,1.56,-0.07,1.09,
3.498,7.13,-12.82,-2.91,1.51,-0.05,0.99,
3.499,7.20,-12.78,-2.89,1.51,-0.05,0.99,
3.501,7.20,-12.78,-2.89,1.47,-0.03,0.89,
3.502,7.20,-12.78,-2.89,1.43,-0.01,0.79,
3.502,7.26,-12.77,-2.86,1.43,-0.01,0.79,
3.504,7.26,-12.77,-2.86,1.38,0.01,0.69,
3.515,7.26,-12.77,-2.86,1.34,0.03,0.58,
3.515,7.30,-12.77,-2.85,1.34,0.03,0.58,
3.515,7.30,-12.77,-2.85,1.29,0.05,0.48,
3.516,7.35,-12.80,-2.87,1.29,0.05,0.48,
3.516,7.35,-12.80,-2.87,1.25,0.08,0.37,
3.516,7.35,-12.80,-2.87,1.20,0.10,0.26,
3.517,7.38,-12.84,-2.90,1.20,0.10,0.26,
3.517,7.38,-12.84,-2.90,1.15,0.13,0.14,
3.519,7.38,-12.84,-2.90,1.10,0.15,0.02,
3.522,7.38,-12.84,-2.90,1.05,0.19,-0.10,
3.522,7.38,-12.90,-2.95,1.05,0.19,-0.10,
3.525,7.38,-12.90,-2.95,1.00,0.22,-0.22,
3.527,7.32,-12.98,-2.92,1.00,0.22,-0.22,
3.527,7.32,-12.98,-2.92,0.95,0.25,-0.34,
3.529,7.32,-12.98,-2.92,0.90,0.28,-0.46,
3.532,7.22,-13.07,-2.87,0.90,0.28,-0.46,
3.532,7.22,-13.07,-2.87,0.84,0.32,-0.59,
3.534,7.22,-13.07,-2.87,0.79,0.35,-0.72,
3.536,7.22,-13.07,-2.87,0.74,0.38,-0.85,
3.537,7.07,-13.23,-2.77,0.74,0.38,-0.85,
3.539,7.07,-13.23,-2.77,0.69,0.41,-0.99,
3.542,7.07,-13.23,-2.77,0.64,0.44,-1.13,
3.542,6.96,-13.39,-2.71,0.64,0.44,-1.13,
3.544,6.96,-13.39,-2.71,0.60,0.46,-1.26,
3.547,6.82,-13.54,-2.63,0.60,0.46,-1.26,
3.547,6.82,-13.54,-2.63,0.55,0.48,-1.40,
3.549,6.82,-13.54,-2.63,0.50,0.51,-1.55,
3.552,6.64,-13.65,-2.57,0.50,0.51,-1.55,
3.552,6.64,-13.65,-2.57,0.45,0.54,-1.69,
3.554,6.64,-13.65,-2.57,0.41,0.57,-1.83,
3.558,6.64,-13.65,-2.57,0.36,0.60,-1.97,
3.559,6.44,-13.70,-2.52,0.36,0.60,-1.97,
3.559,6.44,-13.70,-2.52,0.32,0.63,-2.11,
3.562,6.20,-13.76,-2.44,0.32,0.63,-2.11,
3.562,6.20,-13.76,-2.44,0.27,0.66,-2.24,
3.564,6.20,-13.76,-2.44,0.23,0.70,-2.38,
3.566,6.20,-13.76,-2.44,0.19,0.73,-2.52,
3.567,5.96,-13.83,-2.33,0.19,0.73,-2.52,
3.569,5.96,-13.83,-2.33,0.14,0.76,-2.66,
3.571,5.96,-13.83,-2.33,0.10,0.80,-2.79,
3.572,5.67,-13.92,-2.23,0.10,0.80,-2.79,
3.576,5.67,-13.92,-2.23,0.06,0.83,-2.92,
3.577,5.35,-14.02,-2.11,0.06,0.83,-2.92,
3.577,5.35,-14.02,-2.11,0.02,0.86,-3.06,
3.6,5.35,-14.02,-2.11,-0.02,0.89,-3.18,
3.6,5.00,-14.14,-2.00,-0.02,0.89,-3.18,
3.601,5.00,-14.14,-2.00,-0.06,0.93,-3.31,
3.601,5.00,-14.14,-2.00,-0.10,0.96,-3.44,
3.601,5.00,-14.14,-2.00,-0.14,0.99,-3.56,
3.602,4.61,-14.26,-1.84,-0.14,0.99,-3.56,
3.603,4.61,-14.26,-1.84,-0.18,1.02,-3.68,
3.604,4.17,-14.50,-1.68,-0.18,1.02,-3.68,
3.604,4.17,-14.50,-1.68,-0.22,1.05,-3.81,
3.604,4.17,-14.50,-1.68,-0.26,1.07,-3.93,
3.605,4.17,-14.50,-1.68,-0.30,1.09,-4.05,
3.605,3.76,-14.74,-1.53,-0.30,1.09,-4.05,
3.606,3.76,-14.74,-1.53,-0.34,1.10,-4.17,
3.607,3.37,-14.99,-1.40,-0.34,1.10,-4.17,
3.608,3.37,-14.99,-1.40,-0.38,1.12,-4.29,
3.608,3.37,-14.99,-1.40,-0.43,1.13,-4.41,
3.608,2.98,-15.20,-1.32,-0.43,1.13,-4.41,
3.609,2.98,-15.20,-1.32,-0.47,1.14,-4.53,
3.623,2.98,-15.20,-1.32,-0.52,1.15,-4.65,
3.624,2.98,-15.20,-1.32,-0.57,1.16,-4.77,
3.624,2.55,-15.44,-1.28,-0.57,1.16,-4.77,
3.625,2.55,-15.44,-1.28,-0.61,1.17,-4.89,
3.625,2.55,-15.44,-1.28,-0.66,1.19,-5.01,
3.626,2.03,-15.74,-1.25,-0.66,1.19,-5.01,
3.626,2.03,-15.74,-1.25,-0.71,1.20,-5.13,
3.626,1.39,-16.13,-1.23,-0.71,1.20,-5.13,
3.627,1.39,-16.13,-1.23,-0.76,1.22,-5.25,
3.627,1.39,-16.13,-1.23,-0.81,1.23,-5.38,
3.627,1.39,-16.13,-1.23,-0.87,1.24,-5.51,
3.628,0.73,-16.48,-1.15,-0.87,1.24,-5.51,
3.629,0.73,-16.48,-1.15,-0.92,1.26,-5.63,
3.633,0.02,-16.75,-1.11,-0.92,1.26,-5.63,
3.634,0.02,-16.75,-1.11,-0.98,1.27,-5.75,
3.634,0.02,-16.75,-1.11,-1.03,1.29,-5.87,
3.636,0.02,-16.75,-1.11,-1.08,1.31,-5.99,
3.637,-0.81,-16.98,-1.08,-1.08,1.31,-5.99,
3.639,-0.81,-16.98,-1.08,-1.13,1.33,-6.11,
3.645,-0.81,-16.98,-1.08,-1.18,1.34,-6.22,
3.645,-1.69,-17.16,-0.94,-1.18,1.34,-6.22,
3.645,-1.69,-17.16,-0.94,-1.22,1.35,-6.33,
3.646,-1.69,-17.16,-0.94,-1.26,1.36,-6.44,
3.647,-2.53,-17.27,-0.77,-1.26,1.36,-6.44,
3.648,-2.53,-17.27,-0.77,-1.30,1.37,-6.54,
3.651,-2.53,-17.27,-0.77,-1.33,1.38,-6.64,
3.651,-3.32,-17.28,-0.62,-1.33,1.38,-6.64,
3.655,-3.32,-17.28,-0.62,-1.36,1.39,-6.73,
3.657,-3.32,-17.28,-0.62,-1.39,1.40,-6.82,
3.657,-4.09,-17.17,-0.48,-1.39,1.40,-6.82,
3.66,-4.09,-17.17,-0.48,-1.41,1.42,-6.90,
3.662,-4.79,-16.96,-0.38,-1.41,1.42,-6.90,
3.663,-4.79,-16.96,-0.38,-1.44,1.44,-6.97,
3.663,-4.79,-16.96,-0.38,-1.45,1.47,-7.04,
3.666,-4.79,-16.96,-0.38,-1.47,1.50,-7.11,
3.666,-5.56,-16.70,-0.26,-1.47,1.50,-7.11,
3.669,-5.56,-16.70,-0.26,-1.49,1.53,-7.17,
3.671,-5.56,-16.70,-0.26,-1.50,1.56,-7.23,
3.671,-6.36,-16.51,-0.13,-1.50,1.56,-7.23,
3.676,-6.36,-16.51,-0.13,-1.51,1.59,-7.28,
3.678,-6.36,-16.51,-0.13,-1.51,1.62,-7.33,
3.679,-7.18,-16.38,0.05,-1.51,1.62,-7.33,
3.679,-7.18,-16.38,0.05,-1.52,1.64,-7.38,
3.709,-7.18,-16.38,0.05,-1.52,1.66,-7.43,
3.709,-8.04,-16.27,0.24,-1.52,1.66,-7.43,
3.709,-8.95,-16.12,0.48,-1.52,1.66,-7.43,
3.71,-8.95,-16.12,0.48,-1.52,1.67,-7.46,
3.71,-8.95,-16.12,0.48,-1.51,1.68,-7.50,
3.71,-8.95,-16.12,0.48,-1.50,1.68,-7.52,
3.711,-8.95,-16.12,0.48,-1.48,1.68,-7.55,
3.711,-9.98,-15.98,0.69,-1.48,1.68,-7.55,
3.711,-9.98,-15.98,0.69,-1.46,1.67,-7.56,
3.711,-11.12,-15.82,0.87,-1.46,1.67,-7.56,
3.712,-11.12,-15.82,0.87,-1.44,1.66,-7.57,
3.712,-11.12,-15.82,0.87,-1.42,1.63,-7.58,
3.713,-12.25,-15.68,1.02,-1.42,1.63,-7.58,
3.713,-12.25,-15.68,1.02,-1.40,1.60,-7.57,
3.713,-12.25,-15.68,1.02,-1.37,1.57,-7.56,
3.714,-13.32,-15.55,1.09,-1.37,1.57,-7.56,
3.714,-13.32,-15.55,1.09,-1.35,1.52,-7.55,
3.714,-13.32,-15.55,1.09,-1.33,1.47,-7.52,
3.715,-14.27,-15.46,1.13,-1.33,1.47,-7.52,
3.715,-14.27,-15.46,1.13,-1.32,1.41,-7.50,
3.716,-15.13,-15.36,1.13,-1.32,1.41,-7.50,
3.717,-15.13,-15.36,1.13,-1.31,1.35,-7.46,
3.718,-15.13,-15.36,1.13,-1.31,1.28,-7.42,
3.718,-15.13,-15.36,1.13,-1.33,1.21,-7.39,
3.721,-15.13,-15.36,1.13,-1.35,1.14,-7.35,
3.722,-15.80,-15.17,1.05,-1.35,1.14,-7.35,
3.722,-15.80,-15.17,1.05,-1.38,1.06,-7.31,
3.725,-15.80,-15.17,1.05,-1.42,0.99,-7.28,
3.726,-16.31,-14.94,0.97,-1.42,0.99,-7.28,
3.727,-16.31,-14.94,0.97,-1.46,0.91,-7.24,
3.73,-16.31,-14.94,0.97,-1.52,0.84,-7.21,
3.731,-16.66,-14.65,0.92,-1.52,0.84,-7.21,
3.732,-16.66,-14.65,0.92,-1.59,0.76,-7.18,
3.735,-16.66,-14.65,0.92,-1.67,0.69,-7.16,
3.735,-16.85,-14.33,0.93,-1.67,0.69,-7.16,
3.737,-16.85,-14.33,0.93,-1.75,0.61,-7.14,
3.741,-16.85,-14.33,0.93,-1.85,0.54,-7.12,
3.741,-16.94,-13.96,1.01,-1.85,0.54,-7.12,
3.743,-16.94,-13.96,1.01,-1.95,0.46,-7.11,
3.755,-16.94,-13.96,1.01,-2.05,0.38,-7.10,
3.755,-16.97,-13.52,1.23,-2.05,0.38,-7.10,
3.755,-16.97,-13.52,1.23,-2.16,0.30,-7.09,
3.755,-16.86,-12.99,1.55,-2.16,0.30,-7.09,
3.756,-16.86,-12.99,1.55,-2.27,0.22,-7.09,
3.756,-16.86,-12.99,1.55,-2.38,0.13,-7.08,
3.756,-16.86,-12.99,1.55,-2.49,0.04,-7.09,
3.756,-16.70,-12.35,1.98,-2.49,0.04,-7.09,
3.758,-16.70,-12.35,1.98,-2.59,-0.05,-7.09,
3.76,-16.70,-12.35,1.98,-2.69,-0.15,-7.09,
3.761,-16.53,-11.59,2.46,-2.69,-0.15,-7.09,
3.762,-16.53,-11.59,2.46,-2.79,-0.24,-7.09,
3.765,-16.53,-11.59,2.46,-2.88,-0.33,-7.09,
3.765,-16.33,-10.75,2.97,-2.88,-0.33,-7.09,
3.767,-16.33,-10.75,2.97,-2.96,-0.43,-7.09,
3.77,-16.33,-10.75,2.97,-3.04,-0.52,-7.08,
3.77,-16.16,-9.85,3.47,-3.04,-0.52,-7.08,
3.772,-16.16,-9.85,3.47,-3.11,-0.61,-7.07,
3.779,-16.05,-8.91,4.03,-3.11,-0.61,-7.07,
3.78,-16.05,-8.91,4.03,-3.16,-0.70,-7.06,
3.78,-16.05,-8.91,4.03,-3.20,-0.79,-7.04,
3.783,-16.05,-8.91,4.03,-3.24,-0.87,-7.01,
3.784,-15.93,-7.94,4.59,-3.24,-0.87,-7.01,
3.784,-15.93,-7.94,4.59,-3.26,-0.96,-6.98,
3.785,-15.93,-7.94,4.59,-3.26,-1.04,-6.95,
3.788,-15.82,-6.95,5.09,-3.26,-1.04,-6.95,
3.789,-15.82,-6.95,5.09,-3.26,-1.12,-6.90,
3.79,-15.73,-5.96,5.54,-3.26,-1.12,-6.90,
3.79,-15.73,-5.96,5.54,-3.24,-1.19,-6.85,
3.792,-15.73,-5.96,5.54,-3.21,-1.26,-6.80,
3.795,-15.73,-5.96,5.54,-3.17,-1.32,-6.75,
3.795,-15.68,-4.95,5.93,-3.17,-1.32,-6.75,
3.797,-15.68,-4.95,5.93,-3.11,-1.37,-6.69,
3.8,-15.68,-4.95,5.93,-3.04,-1.42,-6.62,
3.8,-15.61,-3.91,6.27,-3.04,-1.42,-6.62,
3.802,-15.61,-3.91,6.27,-2.96,-1.45,-6.55,
3.804,-15.61,-3.91,6.27,-2.87,-1.49,-6.47,
3.804,-15.45,-2.86,6.57,-2.87,-1.49,-6.47,
3.807,-15.45,-2.86,6.57,-2.76,-1.52,-6.39,
3.812,-15.23,-1.91,6.79,-2.76,-1.52,-6.39,
3.813,-15.23,-1.91,6.79,-2.65,-1.55,-6.31,
3.813,-15.23,-1.91,6.79,-2.53,-1.56,-6.23,
3.814,-15.23,-1.91,6.79,-2.40,-1.57,-6.15,
3.814,-15.06,-0.99,6.88,-2.40,-1.57,-6.15,
3.817,-15.06,-0.99,6.88,-2.26,-1.57,-6.07,
3.819,-15.06,-0.99,6.88,-2.12,-1.56,-5.98,
3.82,-15.04,-0.17,6.84,-2.12,-1.56,-5.98,
3.822,-15.04,-0.17,6.84,-1.99,-1.54,-5.89,
3.825,-15.04,-0.17,6.84,-1.85,-1.52,-5.80,
3.825,-15.19,0.61,6.68,-1.85,-1.52,-5.80,
3.827,-15.19,0.61,6.68,-1.71,-1.50,-5.70,
3.83,-15.19,0.61,6.68,-1.58,-1.48,-5.60,
3.83,-15.47,1.47,6.45,-1.58,-1.48,-5.60,
3.832,-15.47,1.47,6.45,-1.46,-1.46,-5.47,
3.834,-15.47,1.47,6.45,-1.33,-1.45,-5.34,
3.834,-15.77,2.41,6.16,-1.33,-1.45,-5.34,
3.837,-15.77,2.41,6.16,-1.21,-1.44,-5.19,
3.839,-15.77,2.41,6.16,-1.10,-1.44,-5.02,
3.84,-15.90,3.38,5.84,-1.10,-1.44,-5.02,
3.845,-15.90,3.38,5.84,-0.99,-1.43,-4.84,
3.847,-15.90,3.38,5.84,-0.89,-1.43,-4.63,
3.847,-15.88,4.27,5.45,-0.89,-1.43,-4.63,
3.847,-15.88,4.27,5.45,-0.80,-1.43,-4.42,
3.85,-15.88,4.27,5.45,-0.71,-1.42,-4.20,
3.851,-15.61,5.08,5.01,-0.71,-1.42,-4.20,
3.853,-15.61,5.08,5.01,-0.64,-1.42,-3.97,
3.854,-15.61,5.08,5.01,-0.57,-1.41,-3.73,
3.855,-15.10,5.71,4.58,-0.57,-1.41,-3.73,
3.857,-15.10,5.71,4.58,-0.51,-1.40,-3.50,
3.86,-15.10,5.71,4.58,-0.46,-1.38,-3.26,
3.86,-14.52,6.24,4.06,-0.46,-1.38,-3.26,
3.864,-14.52,6.24,4.06,-0.42,-1.37,-3.02,
3.865,-13.73,6.56,3.61,-0.42,-1.37,-3.02,
3.866,-13.73,6.56,3.61,-0.39,-1.35,-2.79,
3.866,-13.73,6.56,3.61,-0.36,-1.33,-2.56,
3.869,-13.73,6.56,3.61,-0.35,-1.32,-2.35,
3.87,-12.80,6.72,3.14,-0.35,-1.32,-2.35,
3.871,-12.80,6.72,3.14,-0.34,-1.30,-2.14,
3.88,-12.80,6.72,3.14,-0.34,-1.29,-1.95,
3.881,-11.85,6.79,2.77,-0.34,-1.29,-1.95,
3.881,-11.85,6.79,2.77,-0.34,-1.29,-1.77,
3.882,-11.85,6.79,2.77,-0.35,-1.29,-1.60,
3.882,-10.90,6.75,2.39,-0.35,-1.29,-1.60,
3.884,-10.90,6.75,2.39,-0.36,-1.29,-1.44,
3.885,-9.98,6.68,2.04,-0.36,-1.29,-1.44,
3.886,-9.98,6.68,2.04,-0.38,-1.30,-1.29,
3.887,-9.98,6.68,2.04,-0.41,-1.31,-1.16,
3.889,-9.98,6.68,2.04,-0.44,-1.33,-1.04,
3.89,-9.06,6.55,1.70,-0.44,-1.33,-1.04,
3.919,-9.06,6.55,1.70,-0.48,-1.35,-0.94,
3.921,-9.06,6.55,1.70,-0.53,-1.37,-0.84,
3.921,-8.24,6.43,1.36,-0.53,-1.37,-0.84,
3.921,-8.24,6.43,1.36,-0.58,-1.40,-0.76,
3.922,-8.24,6.43,1.36,-0.64,-1.42,-0.69,
3.922,-7.49,6.30,1.02,-0.64,-1.42,-0.69,
3.922,-7.49,6.30,1.02,-0.71,-1.45,-0.62,
3.922,-7.49,6.30,1.02,-0.78,-1.48,-0.57,
3.922,-6.79,6.16,0.71,-0.78,-1.48,-0.57,
3.923,-6.79,6.16,0.71,-0.86,-1.52,-0.52,
3.923,-6.79,6.16,0.71,-0.95,-1.55,-0.48,
3.948,-6.13,6.02,0.38,-0.95,-1.55,-0.48,
3.948,-6.13,6.02,0.38,-1.04,-1.59,-0.44,
3.949,-6.13,6.02,0.38,-1.14,-1.62,-0.42,
3.949,-5.53,5.91,0.11,-1.14,-1.62,-0.42,
3.949,-5.53,5.91,0.11,-1.25,-1.66,-0.40,
3.949,-5.53,5.91,0.11,-1.36,-1.70,-0.38,
3.95,-4.95,5.86,-0.08,-1.36,-1.70,-0.38,
3.95,-4.95,5.86,-0.08,-1.47,-1.73,-0.37,
3.95,-4.95,5.86,-0.08,-1.58,-1.77,-0.36,
3.95,-4.47,5.86,-0.18,-1.58,-1.77,-0.36,
3.951,-4.47,5.86,-0.18,-1.70,-1.81,-0.35,
3.951,-4.03,5.94,-0.18,-1.70,-1.81,-0.35,
3.951,-4.03,5.94,-0.18,-1.82,-1.85,-0.35,
3.951,-4.03,5.94,-0.18,-1.94,-1.88,-0.35,
3.951,-4.03,5.94,-0.18,-2.05,-1.92,-0.35,
3.952,-3.73,6.02,-0.09,-2.05,-1.92,-0.35,
3.952,-3.73,6.02,-0.09,-2.17,-1.95,-0.35,
3.952,-3.48,6.09,0.04,-2.17,-1.95,-0.35,
3.952,-3.48,6.09,0.04,-2.28,-1.99,-0.36,
3.953,-3.48,6.09,0.04,-2.39,-2.02,-0.36,
3.953,-3.48,6.09,0.04,-2.49,-2.05,-0.36,
3.953,-3.27,6.14,0.27,-2.49,-2.05,-0.36,
3.953,-3.27,6.14,0.27,-2.59,-2.08,-0.36,
3.954,-3.27,6.14,0.27,-2.69,-2.11,-0.36,
3.954,-3.08,6.18,0.57,-2.69,-2.11,-0.36,
3.954,-3.08,6.18,0.57,-2.78,-2.14,-0.36,
3.954,-2.95,6.23,0.91,-2.78,-2.14,-0.36,
3.954,-2.95,6.23,0.91,-2.86,-2.18,-0.36,
3.956,-2.95,6.23,0.91,-2.94,-2.21,-0.35,
3.96,-2.95,6.23,0.91,-3.00,-2.24,-0.35,
3.961,-2.85,6.27,1.27,-3.00,-2.24,-0.35,
3.961,-2.85,6.27,1.27,-3.06,-2.26,-0.35,
3.963,-2.85,6.27,1.27,-3.12,-2.29,-0.34,
3.963,-2.80,6.33,1.59,-3.12,-2.29,-0.34,
3.965,-2.80,6.33,1.59,-3.16,-2.31,-0.33,
3.968,-2.80,6.33,1.59,-3.20,-2.33,-0.31,
3.968,-2.72,6.37,1.93,-3.20,-2.33,-0.31,
3.97,-2.72,6.37,1.93,-3.23,-2.34,-0.30,
3.973,-2.72,6.37,1.93,-3.26,-2.36,-0.29,
3.973,-2.68,6.37,2.21,-3.26,-2.36,-0.29,
3.977,-2.68,6.37,2.21,-3.28,-2.37,-0.28,
3.978,-2.68,6.37,2.21,-3.29,-2.38,-0.26,
3.978,-2.62,6.30,2.45,-3.29,-2.38,-0.26,
3.98,-2.62,6.30,2.45,-3.30,-2.38,-0.24,
3.983,-2.62,6.30,2.45,-3.30,-2.38,-0.23,
3.983,-2.52,6.24,2.68,-3.30,-2.38,-0.23,
3.985,-2.52,6.24,2.68,-3.30,-2.37,-0.22,
3.988,-2.52,6.24,2.68,-3.29,-2.37,-0.21,
3.988,-2.38,6.18,2.88,-3.29,-2.37,-0.21,
3.99,-2.38,6.18,2.88,-3.29,-2.35,-0.19,
3.993,-2.38,6.18,2.88,-3.27,-2.33,-0.18,
3.999,-2.28,6.12,3.02,-3.27,-2.33,-0.18,
3.999,-2.28,6.12,3.02,-3.26,-2.31,-0.17,
3.999,-2.28,6.12,3.02,-3.23,-2.29,-0.16,
4.0,-2.13,6.05,3.17,-3.23,-2.29,-0.16,
4.001,-2.13,6.05,3.17,-3.21,-2.26,-0.15,
4.003,-2.13,6.05,3.17,-3.19,-2.23,-0.14,
4.004,-2.00,6.01,3.28,-3.19,-2.23,-0.14,
4.006,-2.00,6.01,3.28,-3.16,-2.19,-0.14,
4.019,-1.89,5.96,3.39,-3.16,-2.19,-0.14,
4.02,-1.89,5.96,3.39,-3.13,-2.15,-0.14,
4.021,-1.89,5.96,3.39,-3.10,-2.11,-0.13,
4.021,-1.89,5.96,3.39,-3.07,-2.05,-0.13,
4.021,-1.78,5.89,3.48,-3.07,-2.05,-0.13,
4.021,-1.78,5.89,3.48,-3.04,-2.00,-0.13,
4.022,-1.78,5.89,3.48,-3.01,-1.95,-0.12,
4.022,-1.69,5.80,3.59,-3.01,-1.95,-0.12,
4.022,-1.69,5.80,3.59,-2.98,-1.88,-0.12,
4.023,-1.56,5.70,3.72,-2.98,-1.88,-0.12,
4.023,-1.56,5.70,3.72,-2.94,-1.82,-0.13,
4.026,-1.56,5.70,3.72,-2.91,-1.76,-0.13,
4.028,-1.47,5.63,3.86,-2.91,-1.76,-0.13,
4.028,-1.47,5.63,3.86,-2.88,-1.69,-0.13,
4.03,-1.47,5.63,3.86,-2.84,-1.62,-0.13,
4.033,-1.37,5.58,4.04,-2.84,-1.62,-0.13,
4.033,-1.37,5.58,4.04,-2.81,-1.56,-0.13,
4.035,-1.37,5.58,4.04,-2.77,-1.49,-0.14,
4.038,-1.29,5.53,4.24,-2.77,-1.49,-0.14,
4.039,-1.29,5.53,4.24,-2.74,-1.41,-0.15,
4.04,-1.29,5.53,4.24,-2.70,-1.34,-0.15,
4.043,-1.24,5.48,4.49,-2.70,-1.34,-0.15,
4.044,-1.24,5.48,4.49,-2.66,-1.27,-0.16,
4.046,-1.24,5.48,4.49,-2.62,-1.20,-0.17,
4.048,-1.22,5.45,4.76,-2.62,-1.20,-0.17,
4.048,-1.22,5.45,4.76,-2.57,-1.13,-0.18,
4.05,-1.22,5.45,4.76,-2.53,-1.05,-0.19,
4.052,-1.22,5.45,4.76,-2.48,-0.98,-0.19,
4.053,-1.26,5.43,5.03,-2.48,-0.98,-0.19,
4.055,-1.26,5.43,5.03,-2.43,-0.91,-0.20,
4.059,-1.26,5.43,5.03,-2.38,-0.83,-0.21,
4.059,-1.32,5.38,5.35,-2.38,-0.83,-0.21,
4.06,-1.32,5.38,5.35,-2.33,-0.76,-0.22,
4.063,-1.41,5.35,5.68,-2.33,-0.76,-0.22,
4.063,-1.41,5.35,5.68,-2.28,-0.69,-0.22,
4.065,-1.41,5.35,5.68,-2.23,-0.62,-0.22,
4.067,-1.41,5.35,5.68,-2.17,-0.55,-0.23,
4.067,-1.54,5.32,6.02,-2.17,-0.55,-0.23,
4.07,-1.54,5.32,6.02,-2.12,-0.48,-0.22,
4.074,-1.65,5.24,6.35,-2.12,-0.48,-0.22,
4.074,-1.65,5.24,6.35,-2.06,-0.42,-0.22,
4.094,-1.65,5.24,6.35,-2.00,-0.35,-0.22,
4.094,-1.76,5.17,6.70,-2.00,-0.35,-0.22,
4.095,-1.89,5.06,7.02,-2.00,-0.35,-0.22,
4.095,-1.89,5.06,7.02,-1.93,-0.29,-0.22,
4.095,-1.89,5.06,7.02,-1.87,-0.23,-0.21,
4.095,-1.89,5.06,7.02,-1.81,-0.17,-0.21,
4.095,-1.89,5.06,7.02,-1.74,-0.12,-0.21,
4.096,-2.09,4.92,7.30,-1.74,-0.12,-0.21,
4.096,-2.09,4.92,7.30,-1.67,-0.07,-0.20,
4.096,-2.09,4.92,7.30,-1.60,-0.02,-0.20,
4.096,-2.09,4.92,7.30,-1.52,0.02,-0.20,
4.097,-2.27,4.72,7.54,-1.52,0.02,-0.20,
4.097,-2.27,4.72,7.54,-1.45,0.06,-0.20,
4.098,-2.27,4.72,7.54,-1.38,0.10,-0.20,
4.098,-2.41,4.50,7.81,-1.38,0.10,-0.20,
4.1,-2.41,4.50,7.81,-1.30,0.14,-0.20,
4.102,-2.41,4.50,7.81,-1.22,0.18,-0.21,
4.102,-2.58,4.26,8.01,-1.22,0.18,-0.21,
4.104,-2.58,4.26,8.01,-1.14,0.21,-0.21,
4.107,-2.58,4.26,8.01,-1.06,0.25,-0.22,
4.107,-2.82,4.03,8.22,-1.06,0.25,-0.22,
4.117,-2.82,4.03,8.22,-0.98,0.28,-0.23,
4.118,-3.14,3.79,8.40,-0.98,0.28,-0.23,
4.118,-3.14,3.79,8.40,-0.89,0.31,-0.25,
4.118,-3.14,3.79,8.40,-0.80,0.34,-0.26,
4.118,-3.14,3.79,8.40,-0.71,0.36,-0.28,
4.119,-3.50,3.62,8.64,-0.71,0.36,-0.28,
4.121,-3.50,3.62,8.64,-0.61,0.38,-0.29,
4.122,-3.50,3.62,8.64,-0.51,0.39,-0.31,
4.123,-3.83,3.56,8.84,-0.51,0.39,-0.31,
4.127,-3.83,3.56,8.84,-0.41,0.41,-0.33,
4.127,-3.83,3.56,8.84,-0.30,0.42,-0.34,
4.127,-4.16,3.52,9.01,-0.30,0.42,-0.34,
4.131,-4.16,3.52,9.01,-0.19,0.43,-0.35,
4.132,-4.16,3.52,9.01,-0.07,0.45,-0.37,
4.132,-4.52,3.49,9.04,-0.07,0.45,-0.37,
4.134,-4.52,3.49,9.04,0.04,0.46,-0.38,
4.137,-4.52,3.49,9.04,0.16,0.48,-0.39,
4.137,-4.91,3.47,9.04,0.16,0.48,-0.39,
4.139,-4.91,3.47,9.04,0.28,0.50,-0.40,
4.142,-5.26,3.48,9.00,0.28,0.50,-0.40,
4.142,-5.26,3.48,9.00,0.40,0.52,-0.41,
4.146,-5.26,3.48,9.00,0.51,0.54,-0.41,
4.146,-5.26,3.48,9.00,0.63,0.56,-0.42,
4.146,-5.56,3.51,8.92,0.63,0.56,-0.42,
4.149,-5.56,3.51,8.92,0.74,0.58,-0.42,
4.151,-5.56,3.51,8.92,0.85,0.60,-0.43,
4.152,-5.80,3.52,8.77,0.85,0.60,-0.43,
4.154,-5.80,3.52,8.77,0.96,0.62,-0.43,
4.158,-5.80,3.52,8.77,1.06,0.65,-0.44,
4.159,-6.02,3.53,8.56,1.06,0.65,-0.44,
4.161,-6.02,3.53,8.56,1.16,0.68,-0.45,
4.161,-6.02,3.53,8.56,1.25,0.71,-0.46,
4.162,-6.28,3.55,8.38,1.25,0.71,-0.46,
4.165,-6.28,3.55,8.38,1.35,0.75,-0.47,
4.167,-6.28,3.55,8.38,1.44,0.78,-0.48,
4.167,-6.63,3.56,8.19,1.44,0.78,-0.48,
4.169,-6.63,3.56,8.19,1.53,0.83,-0.50,
4.172,-6.63,3.56,8.19,1.62,0.87,-0.51,
4.173,-7.04,3.57,8.00,1.62,0.87,-0.51,
4.174,-7.04,3.57,8.00,1.71,0.93,-0.52,
4.179,-7.04,3.57,8.00,1.80,0.99,-0.54,
4.179,-7.54,3.61,7.85,1.80,0.99,-0.54,
4.179,-7.54,3.61,7.85,1.89,1.05,-0.55,
4.182,-7.54,3.61,7.85,1.98,1.11,-0.55,
4.182,-8.16,3.69,7.70,1.98,1.11,-0.55,
4.185,-8.16,3.69,7.70,2.07,1.18,-0.56,
4.186,-8.16,3.69,7.70,2.16,1.24,-0.56,
4.187,-8.90,3.75,7.61,2.16,1.24,-0.56,
4.191,-8.90,3.75,7.61,2.26,1.31,-0.55,
4.191,-8.90,3.75,7.61,2.35,1.38,-0.54,
4.191,-9.67,3.81,7.58,2.35,1.38,-0.54,
4.195,-9.67,3.81,7.58,2.44,1.44,-0.53,
4.202,-9.67,3.81,7.58,2.54,1.51,-0.51,
4.202,-10.52,3.90,7.55,2.54,1.51,-0.51,
4.203,-10.52,3.90,7.55,2.64,1.58,-0.48,
4.203,-10.52,3.90,7.55,2.74,1.65,-0.45,
4.204,-11.40,3.99,7.60,2.74,1.65,-0.45,
4.205,-11.40,3.99,7.60,2.84,1.71,-0.41,
4.207,-12.30,4.12,7.66,2.84,1.71,-0.41,
4.207,-12.30,4.12,7.66,2.94,1.76,-0.36,
4.218,-12.30,4.12,7.66,3.04,1.81,-0.30,
4.219,-13.20,4.29,7.69,3.04,1.81,-0.30,
4.22,-13.20,4.29,7.69,3.14,1.85,-0.24,
4.22,-13.20,4.29,7.69,3.24,1.89,-0.16,
4.22,-13.20,4.29,7.69,3.34,1.92,-0.07,
4.221,-14.06,4.51,7.60,3.34,1.92,-0.07,
4.221,-14.06,4.51,7.60,3.44,1.94,0.04,
4.222,-14.06,4.51,7.60,3.54,1.95,0.15,
4.222,-14.87,4.73,7.49,3.54,1.95,0.15,
4.223,-14.87,4.73,7.49,3.63,1.96,0.28,
4.227,-14.87,4.73,7.49,3.71,1.96,0.43,
4.227,-15.59,4.87,7.38,3.71,1.96,0.43,
4.23,-15.59,4.87,7.38,3.80,1.96,0.59,
4.231,-15.59,4.87,7.38,3.87,1.94,0.76,
4.231,-16.13,4.88,7.22,3.87,1.94,0.76,
4.233,-16.13,4.88,7.22,3.94,1.91,0.94,
4.236,-16.13,4.88,7.22,4.01,1.88,1.13,
4.236,-16.46,4.80,7.06,4.01,1.88,1.13,
4.239,-16.46,4.80,7.06,4.06,1.83,1.34,
4.251,-16.46,4.80,7.06,4.11,1.78,1.54,
4.252,-16.63,4.57,6.86,4.11,1.78,1.54,
4.252,-16.63,4.57,6.86,4.16,1.73,1.76,
4.253,-16.63,4.57,6.86,4.20,1.68,1.97,
4.253,-16.59,4.12,6.61,4.20,1.68,1.97,
4.254,-16.59,4.12,6.61,4.23,1.62,2.19,
4.254,-16.59,4.12,6.61,4.26,1.57,2.41,
4.254,-16.36,3.48,6.38,4.26,1.57,2.41,
4.255,-16.36,3.48,6.38,4.29,1.51,2.62,
4.257,-15.92,2.71,6.21,4.29,1.51,2.62,
4.258,-15.92,2.71,6.21,4.31,1.45,2.82,
4.26,-15.92,2.71,6.21,4.33,1.39,3.02,
4.262,-15.92,2.71,6.21,4.35,1.33,3.21,
4.262,-15.30,1.85,6.02,4.35,1.33,3.21,
4.263,-15.30,1.85,6.02,4.37,1.26,3.38,
4.266,-15.30,1.85,6.02,4.39,1.20,3.55,
4.266,-14.57,0.96,5.84,4.39,1.20,3.55,
4.268,-14.57,0.96,5.84,4.41,1.14,3.70,
4.271,-14.57,0.96,5.84,4.43,1.08,3.84,
4.271,-13.80,0.09,5.72,4.43,1.08,3.84,
4.273,-13.80,0.09,5.72,4.45,1.01,3.97,
4.276,-13.08,-0.79,5.51,4.45,1.01,3.97,
4.279,-13.08,-0.79,5.51,4.47,0.96,4.09,
4.281,-12.38,-1.62,5.23,4.47,0.96,4.09,
4.281,-12.38,-1.62,5.23,4.48,0.90,4.20,
4.282,-12.38,-1.62,5.23,4.49,0.84,4.29,
4.283,-12.38,-1.62,5.23,4.50,0.80,4.37,
4.286,-11.82,-2.45,4.90,4.50,0.80,4.37,
4.287,-11.82,-2.45,4.90,4.51,0.77,4.45,
4.29,-11.82,-2.45,4.90,4.52,0.76,4.51,
4.291,-11.82,-2.45,4.90,4.54,0.75,4.57,
4.291,-11.44,-3.31,4.61,4.54,0.75,4.57,
4.303,-11.44,-3.31,4.61,4.55,0.76,4.62,
4.304,-11.44,-3.31,4.61,4.56,0.78,4.66,
4.304,-11.34,-4.23,4.29,4.56,0.78,4.66,
4.304,-11.34,-4.23,4.29,4.57,0.81,4.71,
4.305,-11.48,-5.20,4.03,4.57,0.81,4.71,
4.305,-11.48,-5.20,4.03,4.58,0.85,4.75,
4.306,-11.48,-5.20,4.03,4.58,0.90,4.79,
4.306,-11.48,-5.20,4.03,4.58,0.95,4.83,
4.307,-11.79,-6.23,3.82,4.58,0.95,4.83,
4.309,-11.79,-6.23,3.82,4.57,1.01,4.87,
4.329,-12.21,-7.25,3.66,4.57,1.01,4.87,
4.33,-12.21,-7.25,3.66,4.56,1.07,4.91,
4.33,-12.21,-7.25,3.66,4.55,1.12,4.96,
4.33,-12.21,-7.25,3.66,4.53,1.17,5.01,
4.331,-12.60,-8.14,3.58,4.53,1.17,5.01,
4.331,-12.60,-8.14,3.58,4.50,1.21,5.06,
4.331,-12.83,-8.87,3.62,4.50,1.21,5.06,
4.332,-12.83,-8.87,3.62,4.47,1.25,5.11,
4.332,-12.83,-8.87,3.62,4.44,1.27,5.17,
4.332,-12.88,-9.42,3.67,4.44,1.27,5.17,
4.332,-12.88,-9.42,3.67,4.40,1.28,5.22,
4.333,-12.88,-9.42,3.67,4.37,1.28,5.28,
4.333,-12.76,-9.83,3.67,4.37,1.28,5.28,
4.333,-12.76,-9.83,3.67,4.32,1.28,5.34,
4.336,-12.46,-10.12,3.60,4.32,1.28,5.34,
4.336,-12.46,-10.12,3.60,4.28,1.26,5.39,
4.336,-12.46,-10.12,3.60,4.23,1.25,5.44,
4.338,-12.46,-10.12,3.60,4.17,1.23,5.49,
4.34,-11.98,-10.29,3.45,4.17,1.23,5.49,
4.341,-11.98,-10.29,3.45,4.10,1.20,5.54,
4.343,-11.98,-10.29,3.45,4.04,1.18,5.58,
4.349,-11.41,-10.44,3.29,4.04,1.18,5.58,
4.349,-11.41,-10.44,3.29,3.96,1.15,5.62,
4.349,-11.41,-10.44,3.29,3.88,1.12,5.67,
4.35,-11.41,-10.44,3.29,3.79,1.09,5.70,
4.35,-10.79,-10.53,3.11,3.79,1.09,5.70,
4.352,-10.79,-10.53,3.11,3.70,1.06,5.74,
4.355,-10.79,-10.53,3.11,3.60,1.04,5.77,
4.355,-10.20,-10.64,2.89,3.60,1.04,5.77,
4.357,-10.20,-10.64,2.89,3.50,1.01,5.81,
4.361,-9.61,-10.77,2.72,3.50,1.01,5.81,
4.361,-9.61,-10.77,2.72,3.39,0.98,5.84,
4.362,-9.61,-10.77,2.72,3.28,0.95,5.87,
4.365,-9.11,-10.95,2.59,3.28,0.95,5.87,
4.365,-9.11,-10.95,2.59,3.17,0.93,5.89,
4.37,-9.11,-10.95,2.59,3.06,0.90,5.91,
4.37,-8.71,-11.13,2.53,3.06,0.90,5.91,
4.37,-8.71,-11.13,2.53,2.94,0.87,5.93,
4.373,-8.71,-11.13,2.53,2.83,0.84,5.95,
4.375,-8.36,-11.34,2.52,2.83,0.84,5.95,
4.38,-8.36,-11.34,2.52,2.72,0.80,5.97,
4.38,-8.36,-11.34,2.52,2.61,0.76,5.98,
4.38,-8.08,-11.55,2.53,2.61,0.76,5.98,
4.381,-8.08,-11.55,2.53,2.51,0.72,6.00,
4.382,-8.08,-11.55,2.53,2.41,0.67,6.01,
4.385,-7.79,-11.77,2.57,2.41,0.67,6.01,
4.385,-7.79,-11.77,2.57,2.31,0.62,6.02,
4.387,-7.79,-11.77,2.57,2.21,0.56,6.02,
4.389,-7.79,-11.77,2.57,2.13,0.50,6.03,
4.39,-7.48,-11.97,2.58,2.13,0.50,6.03,
4.405,-7.48,-11.97,2.58,2.04,0.43,6.03,
4.405,-7.48,-11.97,2.58,1.97,0.36,6.03,
4.406,-7.13,-12.15,2.54,1.97,0.36,6.03,
4.406,-7.13,-12.15,2.54,1.89,0.28,6.04,
4.406,-7.13,-12.15,2.54,1.82,0.21,6.03,
4.406,-6.77,-12.31,2.42,1.82,0.21,6.03,
4.406,-6.77,-12.31,2.42,1.75,0.13,6.03,
4.406,-6.77,-12.31,2.42,1.68,0.06,6.03,
4.422,-6.33,-12.39,2.21,1.68,0.06,6.03,
4.422,-6.33,-12.39,2.21,1.61,-0.02,6.03,
4.422,-6.33,-12.39,2.21,1.54,-0.08,6.02,
4.423,-5.82,-12.44,1.92,1.54,-0.08,6.02,
4.423,-5.82,-12.44,1.92,1.47,-0.15,6.02,
4.423,-5.82,-12.44,1.92,1.40,-0.21,6.02,
4.423,-5.30,-12.43,1.60,1.40,-0.21,6.02,
4.424,-5.30,-12.43,1.60,1.33,-0.26,6.02,
4.424,-5.30,-12.43,1.60,1.25,-0.31,6.02,
4.424,-4.72,-12.40,1.26,1.25,-0.31,6.02,
4.424,-4.72,-12.40,1.26,1.17,-0.35,6.01,
4.424,-4.09,-12.36,0.97,1.17,-0.35,6.01,
4.425,-4.09,-12.36,0.97,1.09,-0.39,6.01,
4.427,-4.09,-12.36,0.97,1.01,-0.42,6.01,
4.429,-3.47,-12.35,0.77,1.01,-0.42,6.01,
4.43,-3.47,-12.35,0.77,0.93,-0.45,6.01,
4.432,-3.47,-12.35,0.77,0.85,-0.48,6.00,
4.434,-3.47,-12.35,0.77,0.77,-0.51,5.99,
4.434,-2.88,-12.35,0.63,0.77,-0.51,5.99,
4.436,-2.88,-12.35,0.63,0.69,-0.54,5.99,
4.44,-2.33,-12.44,0.59,0.69,-0.54,5.99,
4.44,-2.33,-12.44,0.59,0.62,-0.57,5.97,
4.441,-2.33,-12.44,0.59,0.54,-0.60,5.96,
4.445,-2.33,-12.44,0.59,0.47,-0.63,5.94,
4.445,-1.80,-12.56,0.58,0.47,-0.63,5.94,
4.446,-1.80,-12.56,0.58,0.40,-0.67,5.92,
4.449,-1.80,-12.56,0.58,0.34,-0.70,5.89,
4.449,-1.26,-12.68,0.61,0.34,-0.70,5.89,
4.451,-1.26,-12.68,0.61,0.29,-0.74,5.87,
4.454,-1.26,-12.68,0.61,0.24,-0.77,5.84,
4.454,-0.72,-12.78,0.65,0.24,-0.77,5.84,
4.456,-0.72,-12.78,0.65,0.19,-0.81,5.81,
4.459,-0.20,-12.82,0.64,0.19,-0.81,5.81,
4.46,-0.20,-12.82,0.64,0.16,-0.84,5.78,
4.463,-0.20,-12.82,0.64,0.13,-0.88,5.74,
4.465,0.31,-12.87,0.68,0.13,-0.88,5.74,
4.465,0.31,-12.87,0.68,0.10,-0.92,5.71,
4.467,0.31,-12.87,0.68,0.09,-0.96,5.67,
4.469,0.31,-12.87,0.68,0.08,-0.99,5.63,
4.469,0.81,-12.97,0.65,0.08,-0.99,5.63,
4.472,0.81,-12.97,0.65,0.08,-1.03,5.59,
4.475,1.30,-13.09,0.59,0.08,-1.03,5.59,
4.475,1.30,-13.09,0.59,0.08,-1.06,5.54,
4.479,1.30,-13.09,0.59,0.09,-1.09,5.49,
4.48,1.74,-13.21,0.52,0.09,-1.09,5.49,
4.485,1.74,-13.21,0.52,0.11,-1.11,5.44,
4.486,1.74,-13.21,0.52,0.12,-1.13,5.39,
4.486,1.74,-13.21,0.52,0.15,-1.14,5.33,
4.486,2.12,-13.31,0.40,0.15,-1.14,5.33,
4.487,2.12,-13.31,0.40,0.17,-1.14,5.27,
4.489,2.12,-13.31,0.40,0.20,-1.15,5.21,
4.489,2.48,-13.40,0.29,0.20,-1.15,5.21,
4.493,2.48,-13.40,0.29,0.24,-1.15,5.15,
4.506,2.80,-13.47,0.17,0.24,-1.15,5.15,
4.506,2.80,-13.47,0.17,0.28,-1.14,5.08,
4.506,2.80,-13.47,0.17,0.32,-1.14,5.02,
4.507,3.15,-13.53,0.02,0.32,-1.14,5.02,
4.507,3.15,-13.53,0.02,0.36,-1.13,4.95,
4.507,3.15,-13.53,0.02,0.40,-1.12,4.89,
4.507,3.15,-13.53,0.02,0.44,-1.10,4.82,
4.507,3.48,-13.53,-0.12,0.44,-1.10,4.82,
4.507,3.48,-13.53,-0.12,0.49,-1.08,4.75,
4.509,3.48,-13.53,-0.12,0.53,-1.06,4.68,
4.509,3.80,-13.49,-0.27,0.53,-1.06,4.68,
4.512,3.80,-13.49,-0.27,0.58,-1.04,4.61,
4.514,3.80,-13.49,-0.27,0.63,-1.01,4.53,
4.514,4.11,-13.40,-0.40,0.63,-1.01,4.53,
4.52,4.37,-13.32,-0.55,0.63,-1.01,4.53,
4.52,4.37,-13.32,-0.55,0.67,-0.98,4.46,
4.52,4.37,-13.32,-0.55,0.72,-0.94,4.38,
4.522,4.37,-13.32,-0.55,0.76,-0.90,4.31,
4.524,4.37,-13.32,-0.55,0.81,-0.86,4.23,
4.525,4.62,-13.24,-0.68,0.81,-0.86,4.23,
4.526,4.62,-13.24,-0.68,0.85,-0.81,4.14,
4.528,4.62,-13.24,-0.68,0.90,-0.76,4.06,
4.529,4.83,-13.15,-0.82,0.90,-0.76,4.06,
4.531,4.83,-13.15,-0.82,0.93,-0.71,3.98,
4.534,4.83,-13.15,-0.82,0.97,-0.67,3.90,
4.534,5.00,-13.06,-0.92,0.97,-0.67,3.90,
4.536,5.00,-13.06,-0.92,1.01,-0.62,3.82,
4.538,5.00,-13.06,-0.92,1.04,-0.57,3.74,
4.538,5.15,-12.95,-1.03,1.04,-0.57,3.74,
4.541,5.15,-12.95,-1.03,1.08,-0.52,3.66,
4.544,5.15,-12.95,-1.03,1.10,-0.47,3.59,
4.544,5.25,-12.81,-1.13,1.10,-0.47,3.59,
4.546,5.25,-12.81,-1.13,1.13,-0.43,3.51,
4.548,5.25,-12.81,-1.13,1.15,-0.38,3.44,
4.548,5.31,-12.72,-1.20,1.15,-0.38,3.44,
4.551,5.31,-12.72,-1.20,1.17,-0.34,3.37,
4.553,5.31,-12.72,-1.20,1.19,-0.30,3.30,
4.553,5.38,-12.62,-1.23,1.19,-0.30,3.30,
4.556,5.38,-12.62,-1.23,1.21,-0.26,3.24,
4.558,5.38,-12.62,-1.23,1.23,-0.23,3.17,
4.558,5.43,-12.57,-1.29,1.23,-0.23,3.17,
4.562,5.43,-12.57,-1.29,1.24,-0.20,3.10,
4.565,5.47,-12.51,-1.34,1.24,-0.20,3.10,
4.566,5.47,-12.51,-1.34,1.25,-0.17,3.04,
4.567,5.47,-12.51,-1.34,1.26,-0.14,2.98,
4.568,5.50,-12.48,-1.40,1.26,-0.14,2.98,
4.569,5.50,-12.48,-1.40,1.27,-0.12,2.92,
4.589,5.50,-12.48,-1.40,1.27,-0.10,2.86,
4.589,5.50,-12.48,-1.40,1.28,-0.07,2.80,
4.589,5.56,-12.46,-1.50,1.28,-0.07,2.80,
4.59,5.56,-12.46,-1.50,1.27,-0.05,2.73,
4.59,5.56,-12.46,-1.50,1.27,-0.03,2.67,
4.59,5.62,-12.46,-1.61,1.27,-0.03,2.67,
4.59,5.62,-12.46,-1.61,1.26,-0.00,2.61,
4.591,5.62,-12.46,-1.61,1.25,0.02,2.55,
4.591,5.66,-12.47,-1.72,1.25,0.02,2.55,
4.591,5.66,-12.47,-1.72,1.24,0.05,2.48,
4.591,5.66,-12.47,-1.72,1.22,0.07,2.42,
4.592,5.75,-12.50,-1.83,1.22,0.07,2.42,
4.592,5.75,-12.50,-1.83,1.20,0.10,2.36,
4.597,5.75,-12.50,-1.83,1.17,0.13,2.29,
4.606,5.75,-12.50,-1.83,1.15,0.16,2.22,
4.607,5.80,-12.55,-1.96,1.15,0.16,2.22,
4.607,5.80,-12.55,-1.96,1.12,0.19,2.15,
4.607,5.88,-12.61,-2.05,1.12,0.19,2.15,
4.607,5.88,-12.61,-2.05,1.09,0.22,2.08,
4.608,5.88,-12.61,-2.05,1.05,0.24,2.00,
4.608,5.96,-12.69,-2.13,1.05,0.24,2.00,
4.609,5.96,-12.69,-2.13,1.02,0.27,1.92,
4.609,5.96,-12.69,-2.13,0.98,0.30,1.84,
4.61,6.02,-12.76,-2.18,0.98,0.30,1.84,
4.625,6.02,-12.76,-2.18,0.95,0.33,1.75,
4.626,6.02,-12.76,-2.18,0.91,0.36,1.66,
4.627,6.12,-12.86,-2.18,0.91,0.36,1.66,
4.627,6.12,-12.86,-2.18,0.87,0.38,1.57,
4.627,6.12,-12.86,-2.18,0.83,0.41,1.47,
4.628,6.23,-12.91,-2.15,0.83,0.41,1.47,
4.628,6.23,-12.91,-2.15,0.80,0.43,1.37,
4.629,6.23,-12.91,-2.15,0.76,0.45,1.27,
4.629,6.35,-12.89,-2.12,0.76,0.45,1.27,
4.63,6.35,-12.89,-2.12,0.73,0.47,1.17,
4.63,6.35,-12.89,-2.12,0.70,0.50,1.06,
4.631,6.43,-12.87,-2.05,0.70,0.50,1.06,
4.631,6.43,-12.87,-2.05,0.67,0.52,0.95,
4.635,6.43,-12.87,-2.05,0.64,0.55,0.84,
4.635,6.47,-12.84,-1.99,0.64,0.55,0.84,
4.636,6.47,-12.84,-1.99,0.61,0.57,0.73,
4.638,6.47,-12.84,-1.99,0.58,0.60,0.62,
4.638,6.43,-12.84,-1.90,0.58,0.60,0.62,
4.641,6.43,-12.84,-1.90,0.55,0.62,0.51,
4.643,6.40,-12.89,-1.79,0.55,0.62,0.51,
4.644,6.40,-12.89,-1.79,0.53,0.64,0.39,
4.646,6.40,-12.89,-1.79,0.50,0.66,0.28,
4.648,6.40,-12.89,-1.79,0.47,0.68,0.16,
4.648,6.44,-12.93,-1.66,0.47,0.68,0.16,
4.65,6.44,-12.93,-1.66,0.45,0.69,0.04,
4.653,6.44,-12.93,-1.66,0.43,0.70,-0.07,
4.653,6.46,-12.92,-1.58,0.43,0.70,-0.07,
4.656,6.46,-12.92,-1.58,0.41,0.71,-0.19,
4.658,6.44,-12.89,-1.44,0.41,0.71,-0.19,
4.658,6.44,-12.89,-1.44,0.39,0.72,-0.31,
4.66,6.44,-12.89,-1.44,0.37,0.74,-0.44,
4.663,6.44,-12.89,-1.44,0.35,0.75,-0.56,
4.663,6.35,-12.85,-1.37,0.35,0.75,-0.56,
4.665,6.35,-12.85,-1.37,0.33,0.77,-0.68,
4.667,6.35,-12.85,-1.37,0.32,0.78,-0.80,
4.667,6.17,-12.87,-1.26,0.32,0.78,-0.80,
4.67,6.17,-12.87,-1.26,0.31,0.79,-0.92,
4.672,6.17,-12.87,-1.26,0.29,0.81,-1.04,
4.673,5.91,-12.95,-1.17,0.29,0.81,-1.04,
4.674,5.91,-12.95,-1.17,0.28,0.82,-1.16,
4.678,5.64,-13.09,-1.14,0.28,0.82,-1.16,
4.68,5.64,-13.09,-1.14,0.27,0.84,-1.28,
4.68,5.64,-13.09,-1.14,0.25,0.85,-1.40,
4.682,5.64,-13.09,-1.14,0.24,0.87,-1.52,
4.683,5.28,-13.27,-1.13,0.24,0.87,-1.52,
4.685,5.28,-13.27,-1.13,0.22,0.88,-1.63,
4.688,5.28,-13.27,-1.13,0.20,0.90,-1.75,
4.688,4.91,-13.49,-1.12,0.20,0.90,-1.75,
4.69,4.91,-13.49,-1.12,0.18,0.91,-1.87,
4.692,4.91,-13.49,-1.12,0.17,0.92,-1.98,
4.692,4.51,-13.72,-1.10,0.17,0.92,-1.98,
4.698,4.51,-13.72,-1.10,0.14,0.92,-2.10,
4.699,4.51,-13.72,-1.10,0.12,0.92,-2.22,
4.699,4.14,-13.97,-1.07,0.12,0.92,-2.22,
4.702,3.80,-14.18,-1.06,0.12,0.92,-2.22,
4.703,3.80,-14.18,-1.06,0.10,0.92,-2.34,
4.703,3.80,-14.18,-1.06,0.07,0.91,-2.45,
4.704,3.80,-14.18,-1.06,0.04,0.90,-2.57,
4.707,3.80,-14.18,-1.06,0.01,0.89,-2.69,
4.707,3.50,-14.32,-1.07,0.01,0.89,-2.69,
4.71,3.50,-14.32,-1.07,-0.02,0.88,-2.80,
4.712,3.50,-14.32,-1.07,-0.06,0.86,-2.92,
4.713,3.26,-14.43,-1.11,-0.06,0.86,-2.92,
4.714,3.26,-14.43,-1.11,-0.10,0.85,-3.03,
4.717,3.26,-14.43,-1.11,-0.14,0.84,-3.15,
4.717,3.07,-14.50,-1.14,-0.14,0.84,-3.15,
4.719,3.07,-14.50,-1.14,-0.19,0.83,-3.27,
4.722,3.07,-14.50,-1.14,-0.24,0.82,-3.38,
4.722,2.97,-14.50,-1.18,-0.24,0.82,-3.38,
4.724,2.97,-14.50,-1.18,-0.30,0.82,-3.50,
4.727,2.97,-14.50,-1.18,-0.37,0.82,-3.61,
4.727,2.84,-14.45,-1.20,-0.37,0.82,-3.61,
4.729,2.84,-14.45,-1.20,-0.44,0.82,-3.73,
4.732,2.84,-14.45,-1.20,-0.50,0.84,-3.84,
4.732,2.67,-14.42,-1.21,-0.50,0.84,-3.84,
4.734,2.67,-14.42,-1.21,-0.58,0.85,-3.96,
4.746,2.67,-14.42,-1.21,-0.66,0.87,-4.07,
4.746,2.44,-14.40,-1.21,-0.66,0.87,-4.07,
4.747,2.44,-14.40,-1.21,-0.74,0.89,-4.18,
4.747,2.44,-14.40,-1.21,-0.82,0.91,-4.30,
4.747,2.14,-14.42,-1.14,-0.82,0.91,-4.30,
4.747,2.14,-14.42,-1.14,-0.90,0.94,-4.42,
4.747,2.14,-14.42,-1.14,-0.99,0.96,-4.53,
4.748,1.78,-14.54,-1.02,-0.99,0.96,-4.53,
4.749,1.78,-14.54,-1.02,-1.07,0.98,-4.65,
4.752,1.78,-14.54,-1.02,-1.15,1.00,-4.77,
4.752,1.40,-14.74,-0.79,-1.15,1.00,-4.77,
4.754,1.40,-14.74,-0.79,-1.22,1.02,-4.89,
4.756,1.40,-14.74,-0.79,-1.29,1.04,-5.02,
4.757,0.90,-15.03,-0.53,-1.29,1.04,-5.02,
4.759,0.90,-15.03,-0.53,-1.35,1.05,-5.15,
4.762,0.90,-15.03,-0.53,-1.41,1.06,-5.29,
4.762,0.36,-15.33,-0.13,-1.41,1.06,-5.29,
4.764,0.36,-15.33,-0.13,-1.45,1.06,-5.43,
4.767,0.36,-15.33,-0.13,-1.49,1.05,-5.58,
4.767,-0.21,-15.61,0.29,-1.49,1.05,-5.58,
4.769,-0.21,-15.61,0.29,-1.51,1.04,-5.73,
4.771,-0.21,-15.61,0.29,-1.53,1.03,-5.88,
4.773,-0.92,-15.80,0.74,-1.53,1.03,-5.88,
4.774,-0.92,-15.80,0.74,-1.54,1.02,-6.03,
4.778,-1.69,-15.88,1.12,-1.54,1.02,-6.03,
4.78,-1.69,-15.88,1.12,-1.53,1.00,-6.18,
4.787,-2.55,-15.78,1.41,-1.53,1.00,-6.18,
4.788,-2.55,-15.78,1.41,-1.52,0.98,-6.33,
4.788,-2.55,-15.78,1.41,-1.50,0.95,-6.47,
4.788,-2.55,-15.78,1.41,-1.47,0.93,-6.61,
4.788,-2.55,-15.78,1.41,-1.44,0.92,-6.74,
4.788,-3.55,-15.51,1.51,-1.44,0.92,-6.74,
4.789,-3.55,-15.51,1.51,-1.40,0.90,-6.86,
4.792,-3.55,-15.51,1.51,-1.36,0.89,-6.96,
4.792,-4.69,-15.11,1.50,-1.36,0.89,-6.96,
4.799,-4.69,-15.11,1.50,-1.31,0.88,-7.04,
4.799,-5.90,-14.60,1.41,-1.31,0.88,-7.04,
4.799,-5.90,-14.60,1.41,-1.26,0.88,-7.11,
4.799,-5.90,-14.60,1.41,-1.21,0.87,-7.16,
4.802,-5.90,-14.60,1.41,-1.17,0.87,-7.19,
4.804,-5.90,-14.60,1.41,-1.13,0.87,-7.20,
4.806,-5.90,-14.60,1.41,-1.09,0.87,-7.19,
4.806,-7.12,-14.05,1.24,-1.09,0.87,-7.19,
4.806,-8.32,-13.54,1.02,-1.09,0.87,-7.19,
4.809,-8.32,-13.54,1.02,-1.06,0.88,-7.16,
4.812,-9.43,-13.06,0.77,-1.06,0.88,-7.16,
4.812,-9.43,-13.06,0.77,-1.03,0.89,-7.12,
4.815,-9.43,-13.06,0.77,-1.01,0.91,-7.05,
4.816,-10.35,-12.60,0.51,-1.01,0.91,-7.05,
4.817,-10.35,-12.60,0.51,-0.99,0.94,-6.98,
4.818,-10.35,-12.60,0.51,-0.98,0.98,-6.89,
4.821,-10.35,-12.60,0.51,-0.98,1.01,-6.80,
4.821,-11.02,-12.17,0.23,-0.98,1.01,-6.80,
4.824,-11.02,-12.17,0.23,-0.98,1.06,-6.70,
4.826,-11.54,-11.81,0.06,-0.98,1.06,-6.70,
4.826,-11.54,-11.81,0.06,-0.99,1.10,-6.59,
4.831,-11.54,-11.81,0.06,-1.00,1.14,-6.49,
4.835,-11.54,-11.81,0.06,-1.02,1.17,-6.39,
4.835,-11.80,-11.50,0.01,-1.02,1.17,-6.39,
4.835,-11.80,-11.50,0.01,-1.05,1.20,-6.29,
4.837,-11.80,-11.50,0.01,-1.08,1.22,-6.20,
4.837,-11.85,-11.18,0.01,-1.08,1.22,-6.20,
4.839,-11.85,-11.18,0.01,-1.11,1.24,-6.12,
4.842,-11.85,-11.18,0.01,-1.15,1.25,-6.05,
4.842,-11.68,-10.78,0.15,-1.15,1.25,-6.05,
