
time,ax,ay,az,wx,wy,wz,
0.001,-0.30,-0.02,0.12,0.00,-0.01,0.01,
0.002,-0.30,-0.02,0.12,0.00,-0.01,0.01,
0.002,-0.32,0.02,0.19,0.00,-0.01,0.01,
0.002,-0.32,0.02,0.19,0.00,-0.01,0.01,
0.003,-0.32,0.02,0.19,0.00,-0.01,0.01,
0.004,-0.29,-0.03,0.26,0.00,-0.01,0.01,
0.005,-0.29,-0.03,0.26,0.01,-0.01,0.01,
0.009,-0.29,-0.03,0.26,0.00,-0.01,0.01,
0.01,-0.23,-0.09,0.22,0.00,-0.01,0.01,
0.01,-0.23,-0.09,0.22,0.01,-0.02,0.01,
0.013,-0.23,-0.09,0.22,0.00,-0.01,0.01,
0.014,-0.18,-0.12,0.10,0.00,-0.01,0.01,
0.015,-0.18,-0.12,0.10,0.00,-0.01,0.01,
0.018,-0.18,-0.12,0.10,0.00,-0.01,0.01,
0.018,-0.17,-0.07,0.05,0.00,-0.01,0.01,
0.02,-0.17,-0.07,0.05,0.00,-0.01,0.01,
0.023,-0.17,-0.07,0.05,0.00,-0.01,0.01,
0.023,-0.24,-0.03,0.08,0.00,-0.01,0.01,
0.025,-0.24,-0.03,0.08,0.00,-0.00,0.01,
0.028,-0.24,-0.03,0.08,0.00,-0.00,0.01,
0.029,-0.31,-0.05,0.11,0.00,-0.00,0.01,
0.032,-0.31,-0.05,0.11,-0.00,-0.00,0.01,
0.033,-0.31,-0.05,0.11,0.00,-0.00,0.02,
0.033,-0.34,-0.09,0.16,0.00,-0.00,0.02,
0.035,-0.34,-0.09,0.16,0.00,-0.01,0.02,
0.037,-0.34,-0.09,0.16,-0.00,-0.01,0.02,
0.038,-0.26,-0.16,0.22,-0.00,-0.01,0.02,
0.042,-0.26,-0.16,0.22,-0.00,-0.01,0.02,
0.042,-0.16,-0.17,0.22,-0.00,-0.01,0.02,
0.043,-0.16,-0.17,0.22,-0.00,-0.01,0.02,
0.045,-0.16,-0.17,0.22,-0.00,-0.01,0.02,
0.048,-0.16,-0.17,0.22,-0.00,-0.00,0.02,
0.048,-0.10,-0.16,0.17,-0.00,-0.00,0.02,
0.05,-0.10,-0.16,0.17,-0.00,-0.00,0.02,
0.052,-0.10,-0.16,0.17,-0.00,0.00,0.02,
0.053,-0.10,-0.09,0.15,-0.00,0.00,0.02,
0.055,-0.10,-0.09,0.15,-0.00,0.01,0.02,
0.057,-0.10,-0.09,0.15,-0.00,0.01,0.02,
0.058,-0.16,-0.07,0.15,-0.00,0.01,0.02,
0.06,-0.16,-0.07,0.15,-0.00,0.01,0.02,
0.07,-0.16,-0.07,0.15,0.00,0.01,0.02,
0.07,-0.17,-0.09,0.14,0.00,0.01,0.02,
0.07,-0.17,-0.09,0.14,0.00,0.01,0.02,
0.071,-0.17,-0.09,0.14,0.00,0.01,0.02,
0.071,-0.12,-0.13,0.15,0.00,0.01,0.02,
0.071,-0.12,-0.13,0.15,0.00,0.00,0.02,
0.073,-0.12,-0.13,0.15,0.00,0.00,0.02,
0.074,-0.07,-0.15,0.12,0.00,0.00,0.02,
0.075,-0.07,-0.15,0.12,-0.00,0.00,0.02,
0.077,-0.07,-0.15,0.12,0.00,0.00,0.02,
0.077,-0.02,-0.19,0.14,0.00,0.00,0.02,
0.08,-0.02,-0.19,0.14,0.00,0.00,0.02,
0.082,-0.02,-0.19,0.14,0.00,0.01,0.02,
0.083,0.04,-0.22,0.20,0.00,0.01,0.02,
0.085,0.04,-0.22,0.20,0.00,0.01,0.02,
0.092,0.04,-0.22,0.20,0.01,0.01,0.02,
0.092,0.05,-0.23,0.27,0.01,0.01,0.02,
0.093,0.05,-0.23,0.27,0.01,0.01,0.01,
0.093,0.05,-0.23,0.27,0.01,0.01,0.01,
0.093,-0.03,-0.22,0.22,0.01,0.01,0.01,
0.095,-0.03,-0.22,0.22,0.01,0.01,0.01,
0.097,-0.03,-0.22,0.22,0.01,0.01,0.01,
0.097,-0.11,-0.25,0.12,0.01,0.01,0.01,
0.099,-0.11,-0.25,0.12,0.01,0.00,0.01,
0.103,-0.11,-0.25,0.12,0.01,-0.00,0.01,
0.103,-0.20,-0.24,0.12,0.01,-0.00,0.01,
0.105,-0.20,-0.24,0.12,0.00,-0.00,0.01,
0.107,-0.20,-0.24,0.12,0.00,-0.00,0.01,
0.107,-0.21,-0.21,0.10,0.00,-0.00,0.01,
0.109,-0.21,-0.21,0.10,-0.00,0.00,0.02,
0.113,-0.20,-0.15,0.11,-0.00,0.00,0.02,
0.113,-0.20,-0.15,0.11,-0.00,-0.00,0.01,
0.114,-0.20,-0.15,0.11,-0.00,-0.00,0.01,
0.117,-0.20,-0.15,0.11,-0.01,-0.00,0.01,
0.117,-0.15,-0.09,0.18,-0.01,-0.00,0.01,
0.119,-0.15,-0.09,0.18,-0.00,-0.01,0.01,
0.123,-0.15,-0.09,0.18,-0.00,-0.01,0.01,
0.123,-0.10,-0.05,0.17,-0.00,-0.01,0.01,
0.125,-0.10,-0.05,0.17,-0.00,-0.02,0.01,
0.127,-0.10,-0.05,0.17,-0.00,-0.01,0.01,
0.127,-0.13,-0.05,0.13,-0.00,-0.01,0.01,
0.13,-0.13,-0.05,0.13,-0.00,-0.01,0.01,
0.132,-0.13,-0.05,0.13,0.00,-0.01,0.01,
0.132,-0.18,-0.08,0.13,0.00,-0.01,0.01,
0.134,-0.18,-0.08,0.13,-0.00,-0.01,0.01,
0.137,-0.18,-0.08,0.13,-0.00,-0.00,0.01,
0.137,-0.22,-0.08,0.12,-0.00,-0.00,0.01,
0.139,-0.22,-0.08,0.12,0.00,-0.00,0.01,
0.143,-0.22,-0.08,0.12,0.00,-0.00,0.01,
0.144,-0.23,-0.10,0.18,0.00,-0.00,0.01,
0.144,-0.23,-0.10,0.18,0.00,-0.00,0.01,
0.154,-0.23,-0.10,0.18,0.00,-0.00,0.01,
0.154,-0.22,-0.13,0.21,0.00,-0.00,0.01,
0.154,-0.22,-0.13,0.21,0.01,-0.01,0.01,
0.155,-0.22,-0.13,0.21,0.01,-0.01,0.01,
0.155,-0.21,-0.18,0.19,0.01,-0.01,0.01,
0.155,-0.21,-0.18,0.19,0.01,-0.00,0.01,
0.157,-0.21,-0.18,0.19,0.01,-0.00,0.02,
0.157,-0.19,-0.15,0.18,0.01,-0.00,0.02,
0.159,-0.19,-0.15,0.18,0.01,0.00,0.02,
0.162,-0.19,-0.15,0.18,0.01,0.00,0.02,
0.163,-0.17,-0.10,0.25,0.01,0.00,0.02,
0.164,-0.17,-0.10,0.25,0.01,0.01,0.02,
0.167,-0.18,-0.06,0.30,0.01,0.01,0.02,
0.167,-0.18,-0.06,0.30,0.01,0.01,0.02,
0.174,-0.20,-0.06,0.26,0.01,0.01,0.02,
0.174,-0.20,-0.06,0.26,0.01,0.01,0.02,
0.174,-0.20,-0.06,0.26,0.01,0.01,0.02,
0.175,-0.20,-0.06,0.26,0.01,0.00,0.02,
0.177,-0.24,-0.12,0.20,0.01,0.00,0.02,
0.177,-0.24,-0.12,0.20,0.02,0.00,0.02,
0.179,-0.24,-0.12,0.20,0.01,-0.00,0.02,
0.181,-0.24,-0.12,0.20,0.01,-0.00,0.02,
0.182,-0.24,-0.16,0.19,0.01,-0.00,0.02,
0.184,-0.24,-0.16,0.19,0.01,-0.01,0.03,
0.186,-0.24,-0.16,0.19,0.01,-0.01,0.03,
0.187,-0.18,-0.16,0.17,0.01,-0.01,0.03,
0.189,-0.18,-0.16,0.17,0.01,-0.01,0.03,
0.191,-0.18,-0.16,0.17,0.01,-0.02,0.03,
0.192,-0.03,-0.15,0.12,0.01,-0.02,0.03,
0.194,-0.03,-0.15,0.12,0.01,-0.02,0.02,
0.197,-0.03,-0.15,0.12,0.01,-0.02,0.02,
0.197,-0.05,-0.12,0.06,0.01,-0.02,0.02,
0.199,-0.05,-0.12,0.06,0.01,-0.01,0.02,
0.201,-0.06,-0.12,-0.01,0.01,-0.01,0.02,
0.202,-0.06,-0.12,-0.01,0.01,-0.01,0.02,
0.203,-0.06,-0.12,-0.01,0.01,-0.01,0.02,
0.207,-0.06,-0.12,-0.01,0.01,-0.01,0.02,
0.207,-0.07,-0.12,-0.03,0.01,-0.01,0.02,
0.208,-0.07,-0.12,-0.03,0.01,-0.01,0.02,
0.211,-0.07,-0.12,-0.03,0.00,-0.01,0.03,
0.211,-0.02,-0.12,0.02,0.00,-0.01,0.03,
0.215,-0.02,-0.12,0.02,0.00,-0.01,0.02,
0.216,-0.02,-0.12,0.02,0.00,-0.00,0.02,
0.216,0.03,-0.14,0.09,0.00,-0.00,0.02,
0.219,0.03,-0.14,0.09,0.00,-0.00,0.02,
0.221,0.03,-0.14,0.09,0.00,0.00,0.01,
0.221,0.01,-0.14,0.10,0.00,0.00,0.01,
0.223,0.01,-0.14,0.10,0.00,0.00,0.01,
0.227,-0.03,-0.15,0.07,0.00,0.00,0.01,
0.227,-0.03,-0.15,0.07,0.00,0.01,0.01,
0.229,-0.03,-0.15,0.07,-0.00,0.01,0.01,
0.232,-0.03,-0.15,0.07,-0.00,0.01,0.01,
0.232,-0.06,-0.15,0.03,-0.00,0.01,0.01,
0.233,-0.06,-0.15,0.03,-0.00,0.01,0.01,
0.236,-0.06,-0.15,0.03,-0.00,0.01,0.01,
0.236,-0.12,-0.18,0.09,-0.00,0.01,0.01,
0.238,-0.12,-0.18,0.09,-0.00,0.01,0.01,
0.241,-0.12,-0.18,0.09,-0.00,0.01,0.01,
0.241,-0.12,-0.14,0.16,-0.00,0.01,0.01,
0.243,-0.12,-0.14,0.16,-0.00,0.01,0.01,
0.254,-0.12,-0.14,0.16,-0.00,0.01,0.00,
0.254,-0.13,-0.08,0.17,-0.00,0.01,0.00,
0.254,-0.13,-0.08,0.17,-0.00,0.01,0.00,
0.255,-0.13,-0.08,0.17,-0.00,0.01,0.00,
0.274,-0.19,-0.03,0.15,-0.00,0.01,0.00,
0.274,-0.19,-0.03,0.15,-0.00,0.01,0.00,
0.275,-0.28,-0.00,0.18,-0.00,0.01,0.00,
0.275,-0.28,-0.00,0.18,-0.00,0.01,0.00,
0.275,-0.28,-0.00,0.18,-0.00,0.01,0.00,
0.275,-0.28,-0.00,0.18,-0.00,0.01,0.00,
0.275,-0.29,0.05,0.14,-0.00,0.01,0.00,
0.276,-0.29,0.05,0.14,-0.00,0.01,0.01,
0.276,-0.29,0.05,0.14,-0.00,0.00,0.01,
0.276,-0.24,0.10,0.19,-0.00,0.00,0.01,
0.276,-0.24,0.10,0.19,0.00,-0.00,0.01,
0.276,-0.24,0.10,0.19,0.00,-0.01,0.01,
0.276,-0.21,0.12,0.16,0.00,-0.01,0.01,
0.276,-0.21,0.12,0.16,0.00,-0.01,0.01,
0.277,-0.21,0.12,0.16,0.00,-0.01,0.01,
0.277,-0.20,0.04,0.09,0.00,-0.01,0.01,
0.285,-0.20,0.04,0.09,0.00,-0.02,0.01,
0.285,-0.16,-0.03,0.09,0.00,-0.02,0.01,
0.285,-0.16,-0.03,0.09,0.00,-0.02,0.01,
0.285,-0.16,-0.03,0.09,0.00,-0.02,0.01,
0.286,-0.16,-0.03,0.09,0.00,-0.02,0.01,
0.286,-0.09,-0.10,0.15,0.00,-0.02,0.01,
0.289,-0.09,-0.10,0.15,0.00,-0.02,0.01,
0.29,-0.09,-0.10,0.15,0.01,-0.01,0.00,
0.29,0.01,-0.12,0.25,0.01,-0.01,0.00,
0.293,0.01,-0.12,0.25,0.01,-0.01,0.00,
0.296,0.06,-0.12,0.26,0.01,-0.01,0.00,
0.297,0.06,-0.12,0.26,0.01,-0.00,-0.00,
0.298,0.06,-0.12,0.26,0.01,0.00,-0.00,
0.3,0.06,-0.12,0.26,0.01,0.00,-0.01,
0.3,0.08,-0.13,0.21,0.01,0.00,-0.01,
0.303,0.08,-0.13,0.21,0.02,0.01,-0.01,
0.305,0.08,-0.13,0.21,0.02,0.01,-0.02,
0.306,0.06,-0.13,0.16,0.02,0.01,-0.02,
0.307,0.06,-0.13,0.16,0.02,0.01,-0.02,
0.31,0.03,-0.11,0.15,0.02,0.01,-0.02,
0.31,0.03,-0.11,0.15,0.02,0.02,-0.02,
0.313,0.03,-0.11,0.15,0.02,0.02,-0.02,
0.315,0.00,-0.10,0.14,0.02,0.02,-0.02,
0.316,0.00,-0.10,0.14,0.02,0.02,-0.02,
0.318,0.00,-0.10,0.14,0.02,0.02,-0.02,
0.32,0.00,-0.10,0.14,0.02,0.02,-0.02,
0.32,-0.03,-0.11,0.15,0.02,0.02,-0.02,
0.322,-0.03,-0.11,0.15,0.02,0.03,-0.02,
0.325,-0.03,-0.11,0.15,0.02,0.02,-0.02,
0.325,-0.06,-0.10,0.12,0.02,0.02,-0.02,
0.327,-0.06,-0.10,0.12,0.03,0.03,-0.03,
0.331,-0.06,-0.10,0.12,0.03,0.03,-0.03,
0.331,-0.11,-0.08,0.07,0.03,0.03,-0.03,
0.332,-0.11,-0.08,0.07,0.02,0.02,-0.03,
0.335,-0.11,-0.08,0.07,0.02,0.02,-0.02,
0.335,-0.16,-0.07,0.07,0.02,0.02,-0.02,
0.337,-0.16,-0.07,0.07,0.02,0.02,-0.02,
0.34,-0.16,-0.07,0.07,0.02,0.02,-0.02,
0.34,-0.19,-0.07,0.08,0.02,0.02,-0.02,
0.342,-0.19,-0.07,0.08,0.02,0.02,-0.02,
0.346,-0.18,-0.06,0.13,0.02,0.02,-0.02,
0.346,-0.18,-0.06,0.13,0.02,0.01,-0.03,
0.353,-0.18,-0.06,0.13,0.02,0.01,-0.02,
0.354,-0.29,0.01,0.13,0.02,0.01,-0.02,
0.354,-0.29,0.01,0.13,0.02,0.01,-0.02,
0.354,-0.29,0.01,0.13,0.02,0.01,-0.02,
0.356,-0.29,0.01,0.13,0.02,0.00,-0.01,
0.357,-0.41,0.06,0.10,0.02,0.00,-0.01,
0.357,-0.41,0.06,0.10,0.02,-0.00,-0.01,
0.36,-0.41,0.06,0.10,0.02,-0.01,-0.00,
0.36,-0.52,0.04,0.08,0.02,-0.01,-0.00,
0.364,-0.52,0.04,0.08,0.02,-0.02,0.01,
0.365,-0.52,0.04,0.08,0.02,-0.03,0.02,
0.365,-0.62,-0.03,0.07,0.02,-0.03,0.02,
0.367,-0.62,-0.03,0.07,0.01,-0.03,0.02,
0.37,-0.62,-0.03,0.07,0.01,-0.04,0.03,
0.371,-0.53,-0.12,0.17,0.01,-0.04,0.03,
0.372,-0.53,-0.12,0.17,0.01,-0.05,0.04,
0.375,-0.53,-0.12,0.17,0.02,-0.05,0.04,
0.375,-0.21,-0.16,0.27,0.02,-0.05,0.04,
0.378,-0.21,-0.16,0.27,0.02,-0.05,0.03,
0.381,0.02,-0.11,0.34,0.02,-0.05,0.03,
0.381,0.02,-0.11,0.34,0.02,-0.06,0.03,
0.382,0.02,-0.11,0.34,0.03,-0.05,0.03,
0.385,0.28,-0.07,0.39,0.03,-0.05,0.03,
0.385,0.28,-0.07,0.39,0.03,-0.05,0.02,
0.387,0.28,-0.07,0.39,0.03,-0.04,0.01,
0.39,0.28,-0.07,0.39,0.04,-0.04,-0.00,
0.39,0.55,0.04,0.44,0.04,-0.04,-0.00,
0.392,0.55,0.04,0.44,0.05,-0.03,-0.02,
0.395,0.55,0.04,0.44,0.05,-0.03,-0.03,
0.395,0.72,0.11,0.30,0.05,-0.03,-0.03,
0.398,0.72,0.11,0.30,0.05,-0.02,-0.05,
0.399,0.72,0.11,0.30,0.05,-0.01,-0.06,
0.4,0.68,0.07,-0.09,0.05,-0.01,-0.06,
0.402,0.68,0.07,-0.09,0.04,-0.00,-0.08,
0.404,0.68,0.07,-0.09,0.03,0.01,-0.09,
0.405,0.48,-0.11,-0.48,0.03,0.01,-0.09,
0.408,0.48,-0.11,-0.48,0.01,0.01,-0.10,
0.409,0.48,-0.11,-0.48,-0.01,0.02,-0.10,
0.41,0.21,-0.32,-0.65,-0.01,0.02,-0.10,
0.412,0.21,-0.32,-0.65,-0.03,0.02,-0.10,
0.415,-0.09,-0.53,-0.68,-0.03,0.02,-0.10,
0.415,-0.09,-0.53,-0.68,-0.05,0.02,-0.10,
0.434,-0.09,-0.53,-0.68,-0.07,0.02,-0.10,
0.435,-0.09,-0.53,-0.68,-0.08,0.02,-0.10,
0.435,-0.29,-0.63,-0.44,-0.08,0.02,-0.10,
0.435,-0.29,-0.63,-0.44,-0.09,0.02,-0.10,
0.435,-0.29,-0.63,-0.44,-0.09,0.01,-0.09,
0.435,-0.40,-0.53,-0.13,-0.09,0.01,-0.09,
0.435,-0.40,-0.53,-0.13,-0.10,0.00,-0.08,
0.435,-0.41,-0.25,0.20,-0.10,0.00,-0.08,
0.435,-0.41,-0.25,0.20,-0.10,-0.00,-0.08,
0.435,-0.41,-0.25,0.20,-0.09,-0.01,-0.07,
0.436,-0.40,0.07,0.61,-0.09,-0.01,-0.07,
0.436,-0.40,0.07,0.61,-0.08,-0.02,-0.07,
0.437,-0.40,0.07,0.61,-0.08,-0.04,-0.06,
0.439,-0.34,0.09,0.19,-0.08,-0.04,-0.06,
0.439,-0.34,0.09,0.19,-0.08,-0.06,-0.06,
0.442,-0.34,0.09,0.19,-0.08,-0.08,-0.06,
0.444,-0.34,0.09,0.19,-0.08,-0.09,-0.06,
0.444,-0.30,0.17,0.27,-0.08,-0.09,-0.06,
0.447,-0.30,0.17,0.27,-0.08,-0.10,-0.06,
0.449,-0.30,0.17,0.27,-0.07,-0.11,-0.05,
0.449,-0.44,0.04,0.15,-0.07,-0.11,-0.05,
0.452,-0.44,0.04,0.15,-0.08,-0.13,-0.05,
0.454,-0.44,0.04,0.15,-0.09,-0.16,-0.04,
0.454,-0.47,-0.06,-0.27,-0.09,-0.16,-0.04,
0.457,-0.47,-0.06,-0.27,-0.09,-0.18,-0.03,
0.459,-0.47,-0.06,-0.27,-0.09,-0.18,-0.03,
0.459,-0.44,0.02,0.18,-0.09,-0.18,-0.03,
0.462,-0.44,0.02,0.18,-0.08,-0.17,-0.02,
0.467,-0.42,0.07,0.63,-0.08,-0.17,-0.02,
0.467,-0.42,0.07,0.63,-0.06,-0.15,-0.02,
0.467,-0.42,0.07,0.63,-0.04,-0.13,-0.01,
0.469,-0.42,0.07,0.63,-0.02,-0.11,-0.00,
0.47,-0.28,-0.02,0.45,-0.02,-0.11,-0.00,
0.474,-0.28,-0.02,0.45,-0.02,-0.09,0.00,
0.474,-0.06,-0.11,0.17,-0.02,-0.09,0.00,
0.474,-0.06,-0.11,0.17,-0.01,-0.08,0.00,
0.477,-0.06,-0.11,0.17,-0.01,-0.08,-0.00,
0.483,0.05,-0.20,0.06,-0.01,-0.08,-0.00,
0.484,0.05,-0.20,0.06,-0.01,-0.07,-0.01,
0.484,0.05,-0.20,0.06,-0.02,-0.07,-0.01,
0.484,-0.09,-0.23,0.10,-0.02,-0.07,-0.01,
0.484,-0.09,-0.23,0.10,-0.02,-0.07,-0.01,
0.487,-0.09,-0.23,0.10,-0.02,-0.07,-0.01,
0.489,-0.24,-0.22,0.28,-0.02,-0.07,-0.01,
0.489,-0.24,-0.22,0.28,-0.02,-0.07,-0.01,
0.491,-0.24,-0.22,0.28,-0.01,-0.07,-0.00,
0.493,-0.24,-0.22,0.28,-0.01,-0.07,0.00,
0.494,-0.40,-0.13,0.35,-0.01,-0.07,0.00,
0.496,-0.40,-0.13,0.35,-0.00,-0.08,0.01,
0.499,-0.40,-0.13,0.35,-0.00,-0.08,0.01,
0.499,-0.38,-0.02,0.26,-0.00,-0.08,0.01,
0.501,-0.38,-0.02,0.26,0.00,-0.07,0.02,
0.504,-0.27,0.05,0.14,0.00,-0.07,0.02,
0.504,-0.27,0.05,0.14,0.00,-0.07,0.02,
0.506,-0.27,0.05,0.14,0.00,-0.07,0.02,
0.509,-0.27,0.05,0.14,0.00,-0.07,0.03,
0.509,-0.22,0.01,0.13,0.00,-0.07,0.03,
0.511,-0.22,0.01,0.13,0.00,-0.07,0.03,
0.514,-0.22,0.01,0.13,0.00,-0.07,0.03,
0.514,-0.27,-0.04,0.20,0.00,-0.07,0.03,
0.516,-0.27,-0.04,0.20,0.00,-0.07,0.03,
0.519,-0.27,-0.04,0.20,0.01,-0.08,0.04,
0.519,-0.24,-0.11,0.20,0.01,-0.08,0.04,
0.521,-0.24,-0.11,0.20,0.01,-0.08,0.04,
0.524,-0.24,-0.11,0.20,0.01,-0.08,0.04,
0.525,-0.21,-0.10,0.24,0.01,-0.08,0.04,
0.526,-0.21,-0.10,0.24,0.01,-0.09,0.04,
0.529,-0.19,-0.07,0.21,0.01,-0.09,0.04,
0.53,-0.19,-0.07,0.21,0.01,-0.09,0.04,
0.532,-0.19,-0.07,0.21,0.02,-0.09,0.04,
0.534,-0.20,-0.02,0.14,0.02,-0.09,0.04,
0.536,-0.20,-0.02,0.14,0.02,-0.09,0.04,
0.537,-0.20,-0.02,0.14,0.02,-0.09,0.05,
0.539,-0.27,-0.02,0.02,0.02,-0.09,0.05,
0.542,-0.27,-0.02,0.02,0.02,-0.09,0.05,
0.542,-0.27,-0.02,0.02,0.02,-0.10,0.05,
0.544,-0.27,-0.02,0.02,0.02,-0.12,0.06,
0.544,-0.32,-0.07,-0.06,0.02,-0.12,0.06,
0.553,-0.32,-0.07,-0.06,0.01,-0.13,0.05,
0.554,-0.42,-0.06,-0.09,0.01,-0.13,0.05,
0.554,-0.42,-0.06,-0.09,0.01,-0.14,0.06,
0.555,-0.42,-0.06,-0.09,0.00,-0.15,0.06,
0.555,-0.34,-0.07,-0.10,0.00,-0.15,0.06,
0.557,-0.34,-0.07,-0.10,0.00,-0.16,0.06,
0.558,-0.34,-0.07,-0.10,-0.00,-0.16,0.06,
0.558,-0.03,-0.13,-0.06,-0.00,-0.16,0.06,
0.559,-0.03,-0.13,-0.06,-0.00,-0.16,0.06,
0.567,-0.03,-0.13,-0.06,-0.01,-0.15,0.06,
0.567,0.24,-0.07,-0.08,-0.01,-0.15,0.06,
0.567,0.24,-0.07,-0.08,-0.01,-0.14,0.05,
0.567,0.24,-0.07,-0.08,-0.01,-0.13,0.05,
0.573,0.24,-0.07,-0.08,-0.01,-0.11,0.04,
0.574,0.24,0.01,-0.11,-0.01,-0.11,0.04,
0.574,0.24,0.01,-0.11,-0.01,-0.10,0.04,
0.574,0.02,0.01,-0.09,-0.01,-0.10,0.04,
0.574,0.02,0.01,-0.09,-0.01,-0.09,0.04,
0.575,0.02,0.01,-0.09,-0.01,-0.08,0.04,
0.578,0.02,0.01,-0.09,-0.01,-0.08,0.04,
0.578,-0.09,-0.05,0.16,-0.01,-0.08,0.04,
0.582,-0.09,-0.05,0.16,-0.01,-0.09,0.04,
0.6,-0.09,-0.05,0.16,-0.01,-0.09,0.04,
0.6,-0.15,-0.16,0.28,-0.01,-0.09,0.04,
0.601,-0.15,-0.16,0.28,-0.01,-0.10,0.04,
0.601,-0.24,-0.22,0.13,-0.01,-0.10,0.04,
0.601,-0.24,-0.22,0.13,-0.00,-0.10,0.04,
0.602,-0.24,-0.22,0.13,-0.00,-0.09,0.05,
0.602,-0.24,-0.22,0.13,-0.01,-0.08,0.05,
0.602,-0.29,-0.25,0.06,-0.01,-0.08,0.05,
0.602,-0.29,-0.25,0.06,-0.01,-0.08,0.05,
0.602,-0.29,-0.25,0.06,-0.01,-0.08,0.05,
0.603,-0.26,-0.21,0.17,-0.01,-0.08,0.05,
0.603,-0.26,-0.21,0.17,-0.01,-0.08,0.06,
0.603,-0.26,-0.21,0.17,-0.01,-0.08,0.06,
0.603,-0.24,-0.23,0.26,-0.01,-0.08,0.06,
0.608,-0.19,-0.31,0.33,-0.01,-0.08,0.06,
0.608,-0.19,-0.31,0.33,-0.01,-0.08,0.06,
0.608,-0.19,-0.31,0.33,-0.01,-0.08,0.07,
0.613,-0.08,-0.38,0.33,-0.01,-0.08,0.07,
0.614,-0.08,-0.38,0.33,-0.00,-0.08,0.07,
0.614,-0.08,-0.38,0.33,-0.00,-0.07,0.07,
0.618,-0.04,-0.35,0.32,-0.00,-0.07,0.07,
0.618,-0.04,-0.35,0.32,-0.00,-0.07,0.07,
0.619,-0.04,-0.35,0.32,-0.00,-0.06,0.07,
0.62,-0.04,-0.35,0.32,0.00,-0.06,0.07,
0.623,-0.04,-0.35,0.32,0.00,-0.05,0.07,
0.623,-0.01,-0.27,0.37,0.00,-0.05,0.07,
0.625,-0.01,-0.27,0.37,0.01,-0.04,0.07,
0.628,-0.01,-0.27,0.37,0.01,-0.04,0.06,
0.628,0.03,-0.23,0.38,0.01,-0.04,0.06,
0.63,0.03,-0.23,0.38,0.01,-0.03,0.06,
0.634,0.03,-0.23,0.38,0.01,-0.03,0.06,
0.634,0.06,-0.24,0.30,0.01,-0.03,0.06,
0.636,0.06,-0.24,0.30,0.01,-0.03,0.06,
0.638,0.06,-0.24,0.30,0.01,-0.03,0.06,
0.638,0.04,-0.25,0.15,0.01,-0.03,0.06,
0.641,0.04,-0.25,0.15,0.02,-0.03,0.05,
0.642,0.04,-0.25,0.15,0.02,-0.03,0.05,
0.642,0.02,-0.22,0.06,0.02,-0.03,0.05,
0.645,0.02,-0.22,0.06,0.02,-0.02,0.05,
0.648,0.02,-0.22,0.06,0.02,-0.02,0.05,
0.651,0.06,-0.21,-0.03,0.02,-0.02,0.05,
0.651,0.06,-0.21,-0.03,0.01,-0.01,0.05,
0.654,0.10,-0.15,-0.08,0.01,-0.01,0.05,
0.655,0.10,-0.15,-0.08,0.01,-0.01,0.04,
0.655,0.10,-0.15,-0.08,0.01,-0.00,0.03,
0.658,0.12,-0.08,-0.09,0.01,-0.00,0.03,
0.658,0.12,-0.08,-0.09,0.01,0.00,0.03,
0.66,0.12,-0.08,-0.09,0.00,0.01,0.03,
0.664,0.08,-0.01,-0.08,0.00,0.01,0.03,
0.665,0.08,-0.01,-0.08,0.00,0.01,0.02,
0.665,0.08,-0.01,-0.08,0.00,0.02,0.02,
0.667,0.08,-0.01,-0.08,-0.00,0.01,0.02,
0.668,0.04,0.02,-0.12,-0.00,0.01,0.02,
0.67,0.04,0.02,-0.12,-0.00,0.02,0.02,
0.672,0.04,0.02,-0.12,-0.01,0.02,0.01,
0.672,0.10,-0.02,-0.16,-0.01,0.02,0.01,
0.675,0.10,-0.02,-0.16,-0.01,0.02,0.01,
0.677,0.10,-0.02,-0.16,-0.01,0.03,0.01,
0.677,0.15,-0.06,-0.07,-0.01,0.03,0.01,
0.681,0.15,-0.06,-0.07,-0.01,0.03,0.00,
0.685,0.17,-0.09,0.04,-0.01,0.03,0.00,
0.687,0.16,-0.17,0.14,-0.01,0.03,0.00,
0.687,0.16,-0.17,0.14,-0.01,0.04,0.00,
0.687,0.16,-0.17,0.14,-0.00,0.04,-0.00,
0.688,0.16,-0.17,0.14,-0.00,0.05,-0.01,
0.69,0.16,-0.17,0.14,-0.00,0.06,-0.01,
0.692,0.16,-0.17,0.14,0.00,0.06,-0.01,
0.692,0.04,-0.21,0.20,0.00,0.06,-0.01,
0.697,-0.08,-0.21,0.25,0.00,0.06,-0.01,
0.698,-0.08,-0.21,0.25,0.00,0.07,-0.01,
0.698,-0.08,-0.21,0.25,0.00,0.07,-0.01,
0.7,-0.08,-0.21,0.25,0.00,0.08,-0.01,
0.702,-0.08,-0.21,0.25,0.01,0.08,-0.01,
0.703,-0.18,-0.16,0.33,0.01,0.08,-0.01,
0.704,-0.18,-0.16,0.33,0.01,0.08,-0.01,
0.707,-0.18,-0.16,0.33,0.01,0.08,-0.01,
0.707,-0.30,-0.09,0.35,0.01,0.08,-0.01,
0.709,-0.30,-0.09,0.35,0.02,0.08,-0.01,
0.712,-0.30,-0.09,0.35,0.02,0.08,-0.01,
0.712,-0.38,-0.03,0.26,0.02,0.08,-0.01,
0.715,-0.38,-0.03,0.26,0.03,0.08,-0.00,
0.718,-0.38,-0.03,0.26,0.03,0.08,-0.00,
0.718,-0.33,-0.02,0.24,0.03,0.08,-0.00,
0.719,-0.33,-0.02,0.24,0.03,0.08,0.00,
0.722,-0.33,-0.02,0.24,0.03,0.08,0.01,
0.722,-0.29,-0.26,0.30,0.03,0.08,0.01,
0.724,-0.29,-0.26,0.30,0.03,0.09,0.02,
0.727,-0.29,-0.26,0.30,0.04,0.10,0.02,
0.728,-0.08,-0.50,0.44,0.04,0.10,0.02,
0.731,-0.08,-0.50,0.44,0.04,0.12,0.02,
0.734,0.30,-0.43,0.59,0.04,0.12,0.02,
0.735,0.30,-0.43,0.59,0.05,0.14,0.01,
0.735,0.30,-0.43,0.59,0.06,0.15,0.00,
0.737,0.30,-0.43,0.59,0.06,0.15,-0.01,
0.737,0.42,-0.25,0.56,0.06,0.15,-0.01,
0.739,0.42,-0.25,0.56,0.07,0.16,-0.02,
0.742,0.42,-0.25,0.56,0.07,0.17,-0.02,
0.742,0.35,-0.09,0.44,0.07,0.17,-0.02,
0.744,0.35,-0.09,0.44,0.08,0.18,-0.03,
0.759,0.11,-0.03,0.31,0.08,0.18,-0.03,
0.778,0.11,-0.03,0.31,0.08,0.18,-0.04,
0.778,0.11,-0.03,0.31,0.08,0.18,-0.04,
0.778,-0.07,0.22,0.20,0.08,0.18,-0.04,
0.778,-0.07,0.22,0.20,0.08,0.17,-0.04,
0.779,-0.07,0.22,0.20,0.08,0.16,-0.05,
0.779,-0.07,0.22,0.20,0.08,0.15,-0.05,
0.779,-0.25,0.37,0.14,0.08,0.15,-0.05,
0.779,-0.25,0.37,0.14,0.08,0.13,-0.04,
0.779,-0.35,0.17,0.19,0.08,0.13,-0.04,
0.779,-0.35,0.17,0.19,0.08,0.13,-0.04,
0.78,-0.35,0.17,0.19,0.08,0.12,-0.03,
0.78,-0.35,0.17,0.19,0.08,0.13,-0.03,
0.78,-0.26,-0.21,0.22,0.08,0.13,-0.03,
0.78,-0.26,-0.21,0.22,0.09,0.14,-0.03,
0.781,-0.26,-0.21,0.22,0.09,0.15,-0.02,
0.781,-0.22,-0.34,0.27,0.09,0.15,-0.02,
0.781,-0.22,-0.34,0.27,0.10,0.16,-0.02,
0.781,-0.22,-0.34,0.27,0.11,0.17,-0.02,
0.781,-0.24,-0.31,0.25,0.11,0.17,-0.02,
0.781,-0.24,-0.31,0.25,0.11,0.17,-0.02,
0.782,-0.24,-0.31,0.25,0.10,0.18,-0.01,
0.782,-0.30,-0.16,0.13,0.10,0.18,-0.01,
0.787,-0.30,-0.16,0.13,0.11,0.17,-0.01,
0.787,-0.30,-0.16,0.13,0.11,0.16,-0.01,
0.787,-0.31,-0.04,0.27,0.11,0.16,-0.01,
0.789,-0.31,-0.04,0.27,0.11,0.15,-0.01,
0.791,-0.31,-0.04,0.27,0.11,0.14,-0.01,
0.791,-0.30,0.07,0.27,0.11,0.14,-0.01,
0.794,-0.30,0.07,0.27,0.11,0.13,-0.01,
0.798,-0.24,0.10,0.26,0.11,0.13,-0.01,
0.798,-0.24,0.10,0.26,0.11,0.13,-0.01,
0.799,-0.24,0.10,0.26,0.11,0.13,-0.01,
0.805,-0.24,0.10,0.26,0.12,0.12,-0.00,
0.805,-0.26,0.02,0.29,0.12,0.12,-0.00,
0.806,-0.26,0.02,0.29,0.12,0.12,-0.00,
0.809,-0.26,0.02,0.29,0.12,0.11,-0.00,
0.81,-0.28,-0.09,0.31,0.12,0.11,-0.00,
0.81,-0.28,-0.09,0.31,0.13,0.11,0.00,
0.813,-0.28,-0.09,0.31,0.13,0.10,0.01,
0.813,-0.41,-0.23,0.29,0.13,0.10,0.01,
0.816,-0.41,-0.23,0.29,0.12,0.10,0.01,
0.818,-0.23,-0.32,0.39,0.12,0.10,0.01,
0.818,-0.23,-0.32,0.39,0.12,0.10,0.01,
0.824,-0.23,-0.32,0.39,0.13,0.09,0.01,
0.825,-0.23,-0.32,0.39,0.13,0.09,-0.00,
0.825,-0.23,-0.32,0.39,0.13,0.08,-0.01,
0.825,0.20,-0.32,0.47,0.13,0.08,-0.01,
0.826,0.20,-0.32,0.47,0.13,0.09,-0.02,
0.826,0.37,-0.27,0.31,0.13,0.09,-0.02,
0.829,0.37,-0.27,0.31,0.13,0.10,-0.02,
0.831,0.23,-0.23,0.13,0.13,0.10,-0.02,
0.832,0.23,-0.23,0.13,0.13,0.11,-0.02,
0.834,0.23,-0.23,0.13,0.13,0.11,-0.02,
0.836,0.23,-0.23,0.13,0.13,0.12,-0.02,
0.836,0.06,-0.24,0.09,0.13,0.12,-0.02,
0.838,0.06,-0.24,0.09,0.14,0.12,-0.02,
0.841,0.06,-0.24,0.09,0.14,0.13,-0.03,
0.841,-0.09,-0.23,-0.03,0.14,0.13,-0.03,
0.843,-0.09,-0.23,-0.03,0.13,0.13,-0.02,
0.846,-0.20,-0.18,-0.16,0.13,0.13,-0.02,
0.846,-0.20,-0.18,-0.16,0.13,0.13,-0.02,
0.853,-0.20,-0.18,-0.16,0.12,0.12,-0.01,
0.854,-0.20,-0.18,-0.16,0.12,0.12,-0.01,
0.855,-0.21,-0.14,-0.15,0.12,0.12,-0.01,
0.855,-0.21,-0.14,-0.15,0.11,0.10,-0.01,
0.858,-0.21,-0.14,-0.15,0.11,0.09,-0.01,
0.859,-0.14,-0.13,-0.13,0.11,0.09,-0.01,
0.859,-0.14,-0.13,-0.13,0.10,0.07,-0.01,
0.865,-0.12,-0.08,-0.20,0.10,0.07,-0.01,
0.874,-0.12,-0.08,-0.20,0.10,0.06,-0.02,
0.874,-0.12,-0.08,-0.20,0.09,0.06,-0.02,
0.875,-0.12,0.04,-0.20,0.09,0.06,-0.02,
0.875,-0.12,0.04,-0.20,0.09,0.05,-0.02,
0.876,-0.12,0.04,-0.20,0.08,0.05,-0.02,
0.876,-0.11,0.24,-0.11,0.08,0.05,-0.02,
0.876,-0.11,0.24,-0.11,0.08,0.04,-0.02,
0.877,-0.11,0.24,-0.11,0.08,0.04,-0.03,
0.877,-0.11,0.24,-0.11,0.08,0.04,-0.03,
0.877,-0.09,0.34,-0.23,0.08,0.04,-0.03,
0.879,-0.09,0.34,-0.23,0.08,0.05,-0.03,
0.881,-0.09,0.34,-0.23,0.08,0.05,-0.03,
0.881,-0.26,0.39,-0.38,0.08,0.05,-0.03,
0.886,-0.26,0.39,-0.38,0.08,0.05,-0.03,
0.886,-0.26,0.39,-0.38,0.07,0.04,-0.03,
0.886,-0.32,0.30,-0.43,0.07,0.04,-0.03,
0.888,-0.32,0.30,-0.43,0.06,0.03,-0.03,
0.89,-0.32,0.30,-0.43,0.05,0.02,-0.03,
0.89,-0.23,0.17,-0.47,0.05,0.02,-0.03,
0.893,-0.23,0.17,-0.47,0.05,0.01,-0.03,
0.895,-0.17,0.06,-0.34,0.05,0.01,-0.03,
0.896,-0.17,0.06,-0.34,0.04,0.02,-0.02,
0.898,-0.17,0.06,-0.34,0.04,0.03,-0.02,
0.9,-0.17,0.06,-0.34,0.04,0.04,-0.02,
0.901,-0.02,-0.25,-0.20,0.04,0.04,-0.02,
0.903,-0.02,-0.25,-0.20,0.03,0.04,-0.02,
0.905,-0.02,-0.25,-0.20,0.03,0.05,-0.03,
0.906,0.34,-1.00,-0.07,0.03,0.05,-0.03,
0.908,0.34,-1.00,-0.07,0.03,0.06,-0.04,
0.91,0.34,-1.00,-0.07,0.03,0.08,-0.05,
0.91,0.46,-1.10,0.19,0.03,0.08,-0.05,
0.927,0.46,-1.10,0.19,0.03,0.08,-0.06,
0.927,0.35,-0.80,0.22,0.03,0.08,-0.06,
0.927,0.35,-0.80,0.22,0.02,0.07,-0.06,
0.927,0.35,-0.80,0.22,0.02,0.06,-0.07,
0.928,0.35,-0.80,0.22,0.02,0.05,-0.07,
0.928,0.27,-0.48,-0.06,0.02,0.05,-0.07,
0.928,0.27,-0.48,-0.06,0.00,0.05,-0.08,
0.929,0.27,-0.48,-0.06,-0.00,0.05,-0.08,
0.929,0.15,-0.22,-0.20,-0.00,0.05,-0.08,
0.929,0.15,-0.22,-0.20,-0.01,0.04,-0.08,
0.931,-0.10,0.00,-0.10,-0.01,0.04,-0.08,
0.932,-0.10,0.00,-0.10,-0.02,0.03,-0.08,
0.933,-0.10,0.00,-0.10,-0.02,0.02,-0.07,
0.935,-0.10,0.00,-0.10,-0.02,0.01,-0.07,
0.935,-0.33,0.10,0.04,-0.02,0.01,-0.07,
0.937,-0.33,0.10,0.04,-0.02,-0.00,-0.06,
0.94,-0.33,0.10,0.04,-0.02,-0.01,-0.05,
0.94,-0.50,0.14,0.04,-0.02,-0.01,-0.05,
0.942,-0.50,0.14,0.04,-0.02,-0.02,-0.04,
0.945,-0.50,0.14,0.04,-0.02,-0.03,-0.04,
0.945,-0.60,0.30,0.01,-0.02,-0.03,-0.04,
0.947,-0.60,0.30,0.01,-0.02,-0.04,-0.03,
0.95,-0.60,0.30,0.01,-0.00,-0.01,-0.02,
0.95,-0.56,0.21,0.43,-0.00,-0.01,-0.02,
0.952,-0.56,0.21,0.43,0.00,0.01,-0.01,
0.955,-0.33,-0.21,0.44,0.00,0.01,-0.01,
0.955,-0.33,-0.21,0.44,0.01,0.02,0.00,
0.957,-0.33,-0.21,0.44,0.01,0.03,0.01,
0.959,-0.33,-0.21,0.44,0.01,0.04,0.01,
0.96,-0.22,-0.29,0.19,0.01,0.04,0.01,
0.962,-0.22,-0.29,0.19,0.00,0.05,0.01,
0.967,-0.22,-0.29,0.19,0.00,0.06,0.01,
0.967,-0.20,-0.35,0.19,0.00,0.06,0.01,
0.968,-0.20,-0.35,0.19,0.00,0.07,0.01,
0.97,-0.20,-0.35,0.19,0.00,0.09,0.01,
0.97,-0.29,-0.24,0.37,0.00,0.09,0.01,
0.975,-0.40,0.02,0.28,0.00,0.09,0.01,
0.976,-0.40,0.02,0.28,0.01,0.09,0.01,
0.976,-0.40,0.02,0.28,0.01,0.08,0.01,
0.977,-0.40,0.02,0.28,0.01,0.07,0.01,
0.982,-0.40,0.02,0.28,0.02,0.05,0.00,
0.983,-0.55,0.50,0.23,0.02,0.05,0.00,
0.983,-0.55,0.50,0.23,0.02,0.05,0.01,
0.989,-0.70,0.67,0.43,0.02,0.05,0.01,
0.99,-0.70,0.67,0.43,0.03,0.05,0.02,
0.99,-0.70,0.67,0.43,0.04,0.05,0.03,
0.99,-0.70,0.67,0.43,0.05,0.07,0.03,
0.99,-0.67,0.47,0.54,0.05,0.07,0.03,
0.992,-0.67,0.47,0.54,0.06,0.09,0.04,
0.995,-0.67,0.47,0.54,0.07,0.10,0.05,
0.995,-0.47,0.10,0.45,0.07,0.10,0.05,
0.997,-0.47,0.10,0.45,0.07,0.10,0.05,
1.001,-0.47,0.10,0.45,0.08,0.10,0.05,
1.001,-0.38,-0.18,0.43,0.08,0.10,0.05,
1.001,-0.38,-0.18,0.43,0.08,0.09,0.05,
1.005,-0.38,-0.18,0.43,0.08,0.09,0.06,
1.006,-0.37,-0.31,0.60,0.08,0.09,0.06,
1.007,-0.37,-0.31,0.60,0.09,0.08,0.06,
1.009,-0.37,-0.31,0.60,0.09,0.07,0.07,
1.01,-0.36,-0.31,0.72,0.09,0.07,0.07,
1.012,-0.36,-0.31,0.72,0.10,0.05,0.07,
1.015,-0.36,-0.31,0.72,0.11,0.06,0.07,
1.015,-0.26,-0.31,0.65,0.11,0.06,0.07,
1.017,-0.26,-0.31,0.65,0.11,0.07,0.08,
1.02,-0.26,-0.31,0.65,0.12,0.07,0.08,
1.02,0.03,-0.21,0.53,0.12,0.07,0.08,
1.022,0.03,-0.21,0.53,0.12,0.07,0.08,
1.024,0.03,-0.21,0.53,0.12,0.09,0.08,
1.024,0.29,-0.29,0.50,0.12,0.09,0.08,
1.026,0.29,-0.29,0.50,0.13,0.10,0.07,
1.029,0.29,-0.29,0.50,0.14,0.10,0.07,
1.029,0.32,-0.38,0.46,0.14,0.10,0.07,
1.032,0.32,-0.38,0.46,0.14,0.10,0.06,
1.035,0.07,-0.32,0.54,0.14,0.10,0.06,
1.035,0.07,-0.32,0.54,0.14,0.12,0.06,
1.037,0.07,-0.32,0.54,0.15,0.14,0.06,
1.039,-0.13,-0.06,0.58,0.15,0.14,0.06,
1.04,-0.13,-0.06,0.58,0.16,0.15,0.05,
1.042,-0.13,-0.06,0.58,0.17,0.15,0.05,
1.044,-0.26,0.22,0.46,0.17,0.15,0.05,
1.044,-0.26,0.22,0.46,0.17,0.14,0.05,
1.067,-0.26,0.22,0.46,0.18,0.13,0.05,
1.068,-0.17,0.10,0.30,0.18,0.13,0.05,
1.068,-0.17,0.10,0.30,0.17,0.12,0.05,
1.068,-0.17,0.10,0.30,0.17,0.12,0.05,
1.068,-0.07,-0.19,0.36,0.17,0.12,0.05,
1.07,-0.07,-0.19,0.36,0.17,0.12,0.05,
1.07,-0.07,-0.19,0.36,0.17,0.14,0.04,
1.071,0.08,-0.18,0.63,0.17,0.14,0.04,
1.071,0.08,-0.18,0.63,0.19,0.16,0.03,
1.071,0.08,-0.18,0.63,0.19,0.19,0.03,
1.071,0.07,-0.03,0.58,0.19,0.19,0.03,
1.072,0.07,-0.03,0.58,0.20,0.21,0.02,
1.072,0.07,-0.03,0.58,0.21,0.20,0.02,
1.072,-0.33,0.16,0.11,0.21,0.20,0.02,
1.073,-0.33,0.16,0.11,0.20,0.19,0.02,
1.073,-0.33,0.16,0.11,0.20,0.19,0.03,
1.074,-0.33,0.16,0.11,0.19,0.18,0.04,
1.074,-0.88,0.35,-0.05,0.19,0.18,0.04,
1.076,-0.88,0.35,-0.05,0.19,0.17,0.05,
1.09,-0.88,0.35,-0.05,0.19,0.15,0.07,
1.091,-1.39,0.41,0.25,0.19,0.15,0.07,
1.091,-1.39,0.41,0.25,0.19,0.12,0.09,
1.091,-1.44,0.28,0.36,0.19,0.12,0.09,
1.091,-1.44,0.28,0.36,0.19,0.08,0.11,
1.092,-1.44,0.28,0.36,0.20,0.06,0.12,
1.092,-1.44,0.28,0.36,0.20,0.03,0.13,
1.092,-1.11,0.08,0.26,0.20,0.03,0.13,
1.092,-1.11,0.08,0.26,0.20,0.00,0.14,
1.094,-1.11,0.08,0.26,0.19,-0.05,0.15,
1.097,-0.92,-0.11,-0.13,0.19,-0.05,0.15,
1.098,-0.92,-0.11,-0.13,0.17,-0.10,0.16,
1.101,-0.92,-0.11,-0.13,0.16,-0.14,0.16,
1.102,-0.85,-0.18,-0.39,0.16,-0.14,0.16,
1.102,-0.85,-0.18,-0.39,0.14,-0.16,0.18,
1.104,-1.05,-0.10,-0.13,0.14,-0.16,0.18,
1.105,-1.05,-0.10,-0.13,0.14,-0.18,0.20,
1.107,-1.05,-0.10,-0.13,0.14,-0.17,0.21,
1.109,-1.05,-0.10,-0.13,0.14,-0.17,0.23,
1.11,-0.83,-0.22,0.17,0.14,-0.17,0.23,
1.111,-0.83,-0.22,0.17,0.14,-0.20,0.24,
1.114,-0.83,-0.22,0.17,0.14,-0.23,0.23,
1.114,-0.28,-0.10,-0.09,0.14,-0.23,0.23,
1.117,-0.28,-0.10,-0.09,0.14,-0.25,0.23,
1.118,0.42,0.03,-0.40,0.14,-0.25,0.23,
1.119,0.42,0.03,-0.40,0.14,-0.26,0.21,
1.121,0.42,0.03,-0.40,0.13,-0.24,0.20,
1.123,0.42,0.03,-0.40,0.14,-0.19,0.19,
1.124,0.83,-0.09,-0.31,0.14,-0.19,0.19,
1.125,0.83,-0.09,-0.31,0.14,-0.12,0.18,
1.128,0.83,-0.09,-0.31,0.15,-0.05,0.17,
1.128,1.18,-0.35,-0.10,0.15,-0.05,0.17,
1.132,1.18,-0.35,-0.10,0.15,0.02,0.16,
1.134,1.19,-0.56,0.05,0.15,0.02,0.16,
1.134,1.19,-0.56,0.05,0.16,0.07,0.14,
1.135,1.19,-0.56,0.05,0.16,0.10,0.12,
1.138,1.19,-0.56,0.05,0.15,0.13,0.11,
1.138,0.74,-0.67,-0.34,0.15,0.13,0.11,
1.141,0.74,-0.67,-0.34,0.15,0.19,0.09,
1.143,0.74,-0.67,-0.34,0.14,0.18,0.09,
1.143,0.22,-0.46,-0.10,0.14,0.18,0.09,
1.145,0.22,-0.46,-0.10,0.13,0.16,0.09,
1.149,-0.46,-0.19,0.29,0.13,0.16,0.09,
1.153,-0.46,-0.19,0.29,0.13,0.15,0.09,
1.154,-0.46,-0.19,0.29,0.13,0.12,0.09,
1.154,-0.46,-0.19,0.29,0.13,0.10,0.09,
1.154,-0.41,0.02,0.29,0.13,0.10,0.09,
1.156,-0.41,0.02,0.29,0.13,0.08,0.09,
1.158,-0.41,0.02,0.29,0.12,0.06,0.10,
1.158,-0.40,0.25,-0.06,0.12,0.06,0.10,
1.16,-0.40,0.25,-0.06,0.12,0.04,0.11,
1.163,-0.26,0.22,0.09,0.12,0.04,0.11,
1.164,-0.26,0.22,0.09,0.11,0.05,0.11,
1.166,-0.26,0.22,0.09,0.11,0.05,0.11,
1.168,-0.44,0.15,0.58,0.11,0.05,0.11,
1.168,-0.44,0.15,0.58,0.12,0.04,0.11,
1.17,-0.44,0.15,0.58,0.12,0.01,0.10,
1.173,-0.44,0.15,0.58,0.12,-0.02,0.10,
1.173,-0.59,-0.04,0.33,0.12,-0.02,0.10,
1.175,-0.59,-0.04,0.33,0.11,-0.06,0.10,
1.178,-0.59,-0.04,0.33,0.10,-0.09,0.11,
1.178,-0.64,-0.13,-0.12,0.10,-0.09,0.11,
1.181,-0.64,-0.13,-0.12,0.08,-0.12,0.11,
1.185,-0.64,-0.13,-0.12,0.07,-0.14,0.12,
1.185,-0.62,-0.06,-0.16,0.07,-0.14,0.12,
1.185,-0.62,-0.06,-0.16,0.06,-0.16,0.13,
1.188,-0.62,-0.06,-0.16,0.06,-0.20,0.13,
1.188,-0.57,0.04,-0.19,0.06,-0.20,0.13,
1.19,-0.57,0.04,-0.19,0.05,-0.23,0.14,
1.193,-0.57,0.04,-0.19,0.04,-0.25,0.14,
1.193,-0.42,-0.07,-0.33,0.04,-0.25,0.14,
1.195,-0.42,-0.07,-0.33,0.04,-0.26,0.14,
1.198,-0.42,-0.07,-0.33,0.03,-0.26,0.14,
1.198,-0.23,-0.26,-0.52,0.03,-0.26,0.14,
1.2,-0.23,-0.26,-0.52,0.02,-0.27,0.14,
1.203,-0.23,-0.26,-0.52,0.00,-0.28,0.14,
1.203,-0.12,-0.23,-0.70,0.00,-0.28,0.14,
1.205,-0.12,-0.23,-0.70,-0.01,-0.28,0.14,
1.207,-0.12,-0.23,-0.70,-0.02,-0.29,0.14,
1.208,0.04,-0.18,-0.74,-0.02,-0.29,0.14,
1.21,0.04,-0.18,-0.74,-0.03,-0.29,0.13,
1.212,0.04,-0.18,-0.74,-0.04,-0.28,0.13,
1.213,0.13,-0.09,-0.58,-0.04,-0.28,0.13,
1.215,0.13,-0.09,-0.58,-0.04,-0.26,0.13,
1.218,0.52,-0.13,-0.35,-0.04,-0.26,0.13,
1.219,0.52,-0.13,-0.35,-0.04,-0.22,0.13,
1.22,0.52,-0.13,-0.35,-0.03,-0.16,0.12,
1.223,0.52,-0.13,-0.35,-0.03,-0.13,0.10,
1.223,0.75,0.10,-0.43,-0.03,-0.13,0.10,
1.225,0.75,0.10,-0.43,-0.04,-0.14,0.09,
1.227,0.75,0.10,-0.43,-0.05,-0.16,0.08,
1.228,0.43,0.33,-0.65,-0.05,-0.16,0.08,
1.23,0.43,0.33,-0.65,-0.06,-0.19,0.07,
1.234,-0.03,0.20,-0.82,-0.06,-0.19,0.07,
1.235,-0.03,0.20,-0.82,-0.08,-0.23,0.06,
1.236,-0.03,0.20,-0.82,-0.09,-0.26,0.06,
1.238,-0.03,0.20,-0.82,-0.10,-0.28,0.06,
1.238,-0.33,0.02,-0.64,-0.10,-0.28,0.06,
1.24,-0.33,0.02,-0.64,-0.11,-0.30,0.06,
1.242,-0.33,0.02,-0.64,-0.11,-0.30,0.06,
1.265,-0.09,-0.17,-0.43,-0.11,-0.30,0.06,
1.265,-0.09,-0.17,-0.43,-0.11,-0.31,0.06,
1.266,0.06,-0.26,-0.42,-0.11,-0.31,0.06,
1.266,0.06,-0.26,-0.42,-0.12,-0.31,0.06,
1.266,0.06,-0.26,-0.42,-0.13,-0.32,0.06,
1.266,0.10,-0.25,-0.49,-0.13,-0.32,0.06,
1.267,0.10,-0.25,-0.49,-0.14,-0.33,0.06,
1.267,0.10,-0.25,-0.49,-0.15,-0.32,0.06,
1.267,0.10,-0.25,-0.49,-0.16,-0.31,0.05,
1.267,-0.06,-0.10,-0.32,-0.16,-0.31,0.05,
1.268,-0.06,-0.10,-0.32,-0.16,-0.29,0.06,
1.268,-0.32,0.06,-0.11,-0.16,-0.29,0.06,
1.268,-0.32,0.06,-0.11,-0.16,-0.28,0.06,
1.268,-0.32,0.06,-0.11,-0.16,-0.26,0.07,
1.269,-0.43,0.21,-0.09,-0.16,-0.26,0.07,
1.269,-0.43,0.21,-0.09,-0.16,-0.26,0.08,
1.277,-0.43,0.21,-0.09,-0.16,-0.26,0.08,
1.278,-0.49,0.32,-0.08,-0.16,-0.26,0.08,
1.278,-0.49,0.32,-0.08,-0.16,-0.27,0.09,
1.278,-0.49,0.32,-0.08,-0.16,-0.29,0.09,
1.278,-0.55,0.40,-0.04,-0.16,-0.29,0.09,
1.279,-0.55,0.40,-0.04,-0.17,-0.30,0.10,
1.294,-0.55,0.40,-0.04,-0.17,-0.31,0.10,
1.295,-0.55,0.40,-0.04,-0.17,-0.32,0.10,
1.295,-0.49,0.49,0.19,-0.17,-0.32,0.10,
1.296,-0.49,0.49,0.19,-0.16,-0.32,0.10,
1.296,-0.49,0.49,0.19,-0.15,-0.32,0.10,
1.298,-0.04,0.27,0.21,-0.15,-0.32,0.10,
1.299,-0.04,0.27,0.21,-0.15,-0.34,0.09,
1.301,-0.04,0.27,0.21,-0.15,-0.34,0.09,
1.301,-0.06,0.12,0.07,-0.15,-0.34,0.09,
1.301,-0.06,0.12,0.07,-0.15,-0.34,0.09,
1.302,-0.14,0.13,0.12,-0.15,-0.34,0.09,
1.302,-0.14,0.13,0.12,-0.14,-0.34,0.09,
1.302,-0.14,0.13,0.12,-0.14,-0.33,0.08,
1.303,-0.14,0.13,0.12,-0.14,-0.31,0.07,
1.303,0.22,0.10,0.13,-0.14,-0.31,0.07,
1.304,0.22,0.10,0.13,-0.15,-0.30,0.06,
1.307,0.22,0.10,0.13,-0.15,-0.29,0.05,
1.307,0.23,0.01,0.21,-0.15,-0.29,0.05,
1.31,0.23,0.01,0.21,-0.15,-0.29,0.05,
1.312,0.23,0.01,0.21,-0.15,-0.29,0.04,
1.312,0.02,-0.26,0.28,-0.15,-0.29,0.04,
1.315,0.02,-0.26,0.28,-0.16,-0.30,0.04,
1.317,0.02,-0.26,0.28,-0.16,-0.29,0.04,
1.317,-0.25,-0.44,0.07,-0.16,-0.29,0.04,
1.319,-0.25,-0.44,0.07,-0.17,-0.28,0.03,
1.322,-0.25,-0.44,0.07,-0.18,-0.25,0.04,
1.322,-0.62,-0.37,-0.00,-0.18,-0.25,0.04,
1.324,-0.62,-0.37,-0.00,-0.18,-0.24,0.04,
1.327,-0.57,-0.15,0.15,-0.18,-0.24,0.04,
1.331,-0.57,-0.15,0.15,-0.19,-0.24,0.04,
1.332,-0.57,-0.15,0.15,-0.18,-0.25,0.05,
1.332,-0.29,0.07,0.26,-0.18,-0.25,0.05,
1.332,-0.29,0.07,0.26,-0.18,-0.27,0.05,
1.334,-0.29,0.07,0.26,-0.17,-0.29,0.05,
1.337,-0.29,0.07,0.26,-0.17,-0.30,0.05,
1.337,0.15,0.24,-0.29,-0.17,-0.30,0.05,
1.339,0.15,0.24,-0.29,-0.18,-0.30,0.05,
1.342,0.15,0.24,-0.29,-0.19,-0.29,0.05,
1.342,0.28,0.03,-0.87,-0.19,-0.29,0.05,
1.344,0.28,0.03,-0.87,-0.20,-0.27,0.05,
1.346,0.28,0.03,-0.87,-0.21,-0.26,0.06,
1.347,0.10,-0.12,-0.93,-0.21,-0.26,0.06,
1.35,0.10,-0.12,-0.93,-0.22,-0.23,0.06,
1.353,0.12,-0.34,-1.18,-0.22,-0.23,0.06,
1.354,0.12,-0.34,-1.18,-0.23,-0.19,0.06,
1.357,0.12,-0.34,-1.18,-0.25,-0.18,0.05,
1.357,0.12,-0.34,-1.18,-0.26,-0.20,0.04,
1.358,0.22,-0.34,-0.41,-0.26,-0.20,0.04,
1.359,0.22,-0.34,-0.41,-0.27,-0.23,0.03,
1.361,0.22,-0.34,-0.41,-0.27,-0.25,0.03,
1.362,-0.23,0.11,-0.31,-0.27,-0.25,0.03,
1.364,-0.23,0.11,-0.31,-0.28,-0.24,0.04,
1.366,-0.23,0.11,-0.31,-0.28,-0.25,0.05,
1.367,-0.51,0.20,-0.11,-0.28,-0.25,0.05,
1.368,-0.51,0.20,-0.11,-0.27,-0.30,0.06,
1.371,-0.51,0.20,-0.11,-0.26,-0.31,0.06,
1.371,-0.77,0.07,0.61,-0.26,-0.31,0.06,
1.374,-0.77,0.07,0.61,-0.25,-0.30,0.07,
1.376,-0.77,0.07,0.61,-0.25,-0.28,0.08,
1.376,-1.08,-0.03,-0.20,-0.25,-0.28,0.08,
1.378,-1.08,-0.03,-0.20,-0.28,-0.27,0.10,
1.381,-1.08,-0.03,-0.20,-0.32,-0.27,0.13,
1.382,-1.56,0.44,-1.46,-0.32,-0.27,0.13,
1.384,-1.56,0.44,-1.46,-0.36,-0.28,0.16,
1.387,-1.56,0.44,-1.46,-0.37,-0.28,0.18,
1.387,-1.20,1.07,-0.24,-0.37,-0.28,0.18,
1.388,-1.20,1.07,-0.24,-0.35,-0.28,0.19,
1.391,-1.20,1.07,-0.24,-0.32,-0.30,0.20,
1.391,-1.46,2.58,0.58,-0.32,-0.30,0.20,
1.393,-1.46,2.58,0.58,-0.30,-0.33,0.22,
1.396,-1.46,2.58,0.58,-0.29,-0.39,0.19,
1.396,-0.33,2.78,-0.92,-0.29,-0.39,0.19,
1.399,-0.33,2.78,-0.92,-0.30,-0.48,0.14,
1.401,-0.33,2.78,-0.92,-0.30,-0.61,0.09,
1.401,0.94,1.21,-0.16,-0.30,-0.61,0.09,
1.404,0.94,1.21,-0.16,-0.32,-0.70,0.06,
1.406,0.94,1.21,-0.16,-0.32,-0.73,0.03,
1.406,1.63,-0.39,0.07,-0.32,-0.73,0.03,
1.426,1.63,-0.39,0.07,-0.34,-0.68,0.02,
1.427,1.78,-1.41,-1.05,-0.34,-0.68,0.02,
1.427,1.78,-1.41,-1.05,-0.35,-0.57,0.02,
1.428,1.78,-1.41,-1.05,-0.36,-0.43,0.01,
1.428,1.78,-1.41,-1.05,-0.36,-0.32,-0.00,
1.428,1.54,-2.14,-0.94,-0.36,-0.32,-0.00,
1.429,1.54,-2.14,-0.94,-0.36,-0.23,-0.02,
1.429,1.54,-2.14,-0.94,-0.36,-0.17,-0.03,
1.43,1.02,-2.19,-0.73,-0.36,-0.17,-0.03,
1.43,1.02,-2.19,-0.73,-0.37,-0.13,-0.03,
1.43,1.02,-2.19,-0.73,-0.38,-0.09,-0.02,
1.431,0.37,-1.06,-1.31,-0.38,-0.09,-0.02,
1.431,0.37,-1.06,-1.31,-0.39,-0.06,-0.01,
1.432,0.51,0.53,-1.16,-0.39,-0.06,-0.01,
1.432,0.51,0.53,-1.16,-0.40,-0.04,-0.00,
1.434,0.51,0.53,-1.16,-0.40,-0.02,0.00,
1.436,0.51,0.53,-1.16,-0.38,0.01,0.01,
1.437,0.47,1.33,-0.56,-0.38,0.01,0.01,
1.438,0.47,1.33,-0.56,-0.38,0.03,0.00,
1.44,0.47,1.33,-0.56,-0.37,0.02,0.00,
1.441,0.66,0.83,-0.27,-0.37,0.02,0.00,
1.444,0.66,0.83,-0.27,-0.38,-0.02,-0.01,
1.447,0.66,0.83,-0.27,-0.38,-0.11,-0.03,
1.447,0.77,-0.18,0.36,-0.38,-0.11,-0.03,
1.45,0.77,-0.18,0.36,-0.37,-0.19,-0.05,
1.451,0.77,-0.18,0.36,-0.37,-0.20,-0.04,
1.451,-0.61,-0.77,0.27,-0.37,-0.20,-0.04,
1.453,-0.61,-0.77,0.27,-0.38,-0.17,-0.02,
1.455,-0.61,-0.77,0.27,-0.37,-0.13,0.01,
1.456,-1.32,-1.51,0.72,-0.37,-0.13,0.01,
1.458,-1.32,-1.51,0.72,-0.37,-0.12,0.03,
1.46,-1.32,-1.51,0.72,-0.37,-0.13,0.04,
1.461,-1.24,-1.49,1.02,-0.37,-0.13,0.04,
1.463,-1.24,-1.49,1.02,-0.37,-0.16,0.04,
1.47,-0.95,-0.82,1.22,-0.37,-0.16,0.04,
1.471,-0.95,-0.82,1.22,-0.37,-0.23,0.05,
1.471,-0.95,-0.82,1.22,-0.37,-0.30,0.05,
1.471,-0.95,-0.82,1.22,-0.37,-0.34,0.05,
1.472,-0.79,0.08,1.15,-0.37,-0.34,0.05,
1.474,-0.79,0.08,1.15,-0.37,-0.39,0.05,
1.478,0.23,-0.49,1.34,-0.37,-0.39,0.05,
1.478,0.23,-0.49,1.34,-0.37,-0.44,0.03,
1.478,0.23,-0.49,1.34,-0.36,-0.45,0.02,
1.48,-0.19,0.22,0.09,-0.36,-0.45,0.02,
1.481,-0.19,0.22,0.09,-0.36,-0.38,0.03,
1.483,-0.19,0.22,0.09,-0.36,-0.25,0.07,
1.485,-0.90,1.01,-0.01,-0.36,-0.25,0.07,
1.486,-0.90,1.01,-0.01,-0.36,-0.14,0.12,
1.487,-0.90,1.01,-0.01,-0.35,-0.13,0.13,
1.49,-0.90,1.01,-0.01,-0.33,-0.17,0.12,
1.49,0.31,-0.17,1.31,-0.33,-0.17,0.12,
1.492,0.31,-0.17,1.31,-0.32,-0.25,0.08,
1.495,0.31,-0.17,1.31,-0.31,-0.29,0.05,
1.495,0.85,-1.08,0.88,-0.31,-0.29,0.05,
1.498,0.85,-1.08,0.88,-0.32,-0.31,0.03,
1.501,0.55,-0.75,0.04,-0.32,-0.31,0.03,
1.501,0.55,-0.75,0.04,-0.33,-0.28,0.03,
1.502,0.55,-0.75,0.04,-0.34,-0.22,0.04,
1.506,0.55,-0.75,0.04,-0.34,-0.15,0.05,
1.506,0.12,-0.03,0.19,-0.34,-0.15,0.05,
1.508,0.12,-0.03,0.19,-0.33,-0.10,0.06,
1.511,-0.18,0.02,0.65,-0.33,-0.10,0.06,
1.511,-0.18,0.02,0.65,-0.31,-0.08,0.06,
1.513,-0.18,0.02,0.65,-0.31,-0.08,0.07,
1.516,-0.49,-0.07,0.20,-0.31,-0.08,0.07,
1.516,-0.49,-0.07,0.20,-0.31,-0.08,0.08,
1.518,-0.49,-0.07,0.20,-0.32,-0.10,0.09,
1.52,-0.11,-0.57,-0.11,-0.32,-0.10,0.09,
1.521,-0.11,-0.57,-0.11,-0.33,-0.11,0.09,
1.522,-0.11,-0.57,-0.11,-0.33,-0.13,0.08,
1.525,-0.11,-0.57,-0.11,-0.33,-0.16,0.07,
1.525,0.27,-0.90,0.94,-0.33,-0.16,0.07,
1.527,0.27,-0.90,0.94,-0.32,-0.17,0.06,
1.53,0.27,-0.90,0.94,-0.31,-0.13,0.06,
1.53,0.09,-0.74,0.67,-0.31,-0.13,0.06,
1.534,0.09,-0.74,0.67,-0.29,-0.11,0.05,
1.535,-0.19,-0.15,0.79,-0.29,-0.11,0.05,
1.535,-0.19,-0.15,0.79,-0.28,-0.10,0.06,
1.537,-0.19,-0.15,0.79,-0.27,-0.11,0.06,
1.54,-0.19,-0.15,0.79,-0.26,-0.13,0.05,
1.54,-0.31,-0.12,0.63,-0.26,-0.13,0.05,
1.542,-0.31,-0.12,0.63,-0.27,-0.16,0.05,
1.545,-0.22,-0.24,-0.01,-0.27,-0.16,0.05,
1.545,-0.22,-0.24,-0.01,-0.28,-0.18,0.05,
1.547,-0.22,-0.24,-0.01,-0.29,-0.18,0.04,
1.553,-0.22,-0.24,-0.01,-0.30,-0.18,0.05,
1.553,-0.05,0.02,0.04,-0.30,-0.18,0.05,
1.554,-0.05,0.02,0.04,-0.30,-0.15,0.06,
1.557,-0.04,0.66,0.71,-0.30,-0.15,0.06,
1.558,-0.04,0.66,0.71,-0.28,-0.12,0.06,
1.558,-0.04,0.66,0.71,-0.26,-0.10,0.06,
1.56,0.17,0.36,0.55,-0.26,-0.10,0.06,
1.56,0.17,0.36,0.55,-0.24,-0.07,0.05,
1.562,0.17,0.36,0.55,-0.23,-0.05,0.04,
1.567,0.17,0.36,0.55,-0.24,-0.04,0.04,
1.568,-0.12,-0.06,-0.09,-0.24,-0.04,0.04,
1.568,-0.12,-0.06,-0.09,-0.24,-0.04,0.04,
1.57,-0.29,-0.31,-0.10,-0.24,-0.04,0.04,
1.57,-0.29,-0.31,-0.10,-0.25,-0.04,0.05,
1.572,-0.29,-0.31,-0.10,-0.26,-0.06,0.05,
1.593,-0.42,0.06,0.40,-0.26,-0.06,0.05,
1.593,-0.42,0.06,0.40,-0.25,-0.07,0.05,
1.593,-0.42,0.06,0.40,-0.24,-0.06,0.05,
1.593,0.33,0.26,0.33,-0.24,-0.06,0.05,
1.593,0.33,0.26,0.33,-0.23,-0.04,0.04,
1.594,0.33,0.26,0.33,-0.22,-0.01,0.03,
1.594,0.81,0.40,0.13,-0.22,-0.01,0.03,
1.594,0.81,0.40,0.13,-0.22,0.02,0.02,
1.594,0.81,0.40,0.13,-0.21,0.05,0.01,
1.594,0.54,0.46,0.58,-0.21,0.05,0.01,
1.594,0.54,0.46,0.58,-0.20,0.07,-0.00,
1.595,0.54,0.46,0.58,-0.19,0.08,-0.02,
1.595,-0.04,0.28,0.42,-0.19,0.08,-0.02,
1.595,-0.04,0.28,0.42,-0.19,0.08,-0.02,
1.597,-0.04,0.28,0.42,-0.19,0.09,-0.03,
1.6,-0.62,-0.11,0.00,-0.19,0.09,-0.03,
1.601,-0.62,-0.11,0.00,-0.20,0.09,-0.02,
1.602,-0.62,-0.11,0.00,-0.20,0.09,-0.01,
1.605,-0.72,-0.45,0.27,-0.20,0.09,-0.01,
1.605,-0.72,-0.45,0.27,-0.20,0.09,-0.00,
1.607,-0.72,-0.45,0.27,-0.19,0.09,0.00,
1.609,-0.72,-0.45,0.27,-0.18,0.10,0.01,
1.609,-0.41,-0.62,0.75,-0.18,0.10,0.01,
1.611,-0.41,-0.62,0.75,-0.17,0.12,0.01,
1.614,-0.26,-0.74,0.89,-0.17,0.12,0.01,
1.614,-0.26,-0.74,0.89,-0.16,0.12,0.02,
1.617,-0.26,-0.74,0.89,-0.15,0.11,0.03,
1.619,-0.20,-0.88,0.75,-0.15,0.11,0.03,
1.62,-0.20,-0.88,0.75,-0.15,0.10,0.04,
1.621,-0.20,-0.88,0.75,-0.15,0.09,0.04,
1.624,-0.20,-0.88,0.75,-0.15,0.08,0.05,
1.624,-0.22,-0.87,0.87,-0.15,0.08,0.05,
1.626,-0.22,-0.87,0.87,-0.15,0.06,0.05,
1.629,-0.22,-0.87,0.87,-0.14,0.05,0.05,
1.629,-0.13,-0.89,1.06,-0.14,0.05,0.05,
1.632,-0.13,-0.89,1.06,-0.14,0.04,0.05,
1.634,-0.13,-0.89,1.06,-0.13,0.03,0.05,
1.634,-0.21,-0.90,1.06,-0.13,0.03,0.05,
1.637,-0.21,-0.90,1.06,-0.13,0.02,0.05,
1.639,-0.21,-0.90,1.06,-0.12,0.01,0.05,
1.639,-0.35,-0.88,1.02,-0.12,0.01,0.05,
1.641,-0.35,-0.88,1.02,-0.11,-0.01,0.06,
1.644,-0.35,-0.88,1.02,-0.11,-0.02,0.06,
1.644,-0.40,-0.90,1.00,-0.11,-0.02,0.06,
1.646,-0.40,-0.90,1.00,-0.10,-0.04,0.06,
1.653,-0.40,-0.90,1.00,-0.10,-0.05,0.06,
1.654,-0.40,-0.90,0.86,-0.10,-0.05,0.06,
1.654,-0.40,-0.90,0.86,-0.10,-0.05,0.06,
1.655,-0.40,-0.90,0.86,-0.10,-0.06,0.07,
1.655,-0.42,-0.86,0.68,-0.10,-0.06,0.07,
1.656,-0.42,-0.86,0.68,-0.10,-0.06,0.07,
1.659,-0.42,-0.86,0.68,-0.11,-0.06,0.07,
1.659,-0.37,-0.85,0.61,-0.11,-0.06,0.07,
1.661,-0.37,-0.85,0.61,-0.11,-0.07,0.07,
1.664,-0.30,-0.83,0.66,-0.11,-0.07,0.07,
1.664,-0.30,-0.83,0.66,-0.11,-0.08,0.07,
1.666,-0.30,-0.83,0.66,-0.11,-0.09,0.07,
1.669,-0.24,-0.75,0.66,-0.11,-0.09,0.07,
1.669,-0.24,-0.75,0.66,-0.10,-0.10,0.07,
1.671,-0.24,-0.75,0.66,-0.10,-0.10,0.07,
1.674,-0.24,-0.75,0.66,-0.10,-0.09,0.07,
1.675,-0.12,-0.63,0.50,-0.10,-0.09,0.07,
1.676,-0.12,-0.63,0.50,-0.10,-0.09,0.07,
1.678,-0.12,-0.63,0.50,-0.10,-0.08,0.06,
1.679,0.09,-0.44,0.30,-0.10,-0.08,0.06,
1.681,0.09,-0.44,0.30,-0.09,-0.08,0.06,
1.684,0.09,-0.44,0.30,-0.09,-0.07,0.05,
1.685,0.37,-0.27,0.17,-0.09,-0.07,0.05,
1.686,0.37,-0.27,0.17,-0.09,-0.06,0.05,
1.688,0.61,-0.13,0.13,-0.09,-0.06,0.05,
1.689,0.61,-0.13,0.13,-0.09,-0.05,0.04,
1.691,0.61,-0.13,0.13,-0.08,-0.04,0.03,
1.693,0.61,-0.13,0.13,-0.08,-0.02,0.02,
1.693,0.69,-0.03,0.10,-0.08,-0.02,0.02,
1.695,0.69,-0.03,0.10,-0.07,-0.00,0.01,
1.698,0.69,-0.00,-0.03,-0.07,-0.00,0.01,
1.699,0.69,-0.00,-0.03,-0.07,0.02,0.00,
1.701,0.69,-0.00,-0.03,-0.06,0.04,-0.00,
1.703,0.69,-0.00,-0.03,-0.06,0.05,-0.02,
1.703,0.64,0.03,-0.14,-0.06,0.05,-0.02,
1.705,0.64,0.03,-0.14,-0.06,0.06,-0.02,
1.708,0.64,0.03,-0.14,-0.06,0.07,-0.04,
1.708,0.57,0.06,-0.20,-0.06,0.07,-0.04,
1.71,0.57,0.06,-0.20,-0.06,0.07,-0.04,
1.713,0.57,0.06,-0.20,-0.06,0.07,-0.05,
1.714,0.48,0.09,-0.21,-0.06,0.07,-0.05,
1.716,0.48,0.09,-0.21,-0.06,0.06,-0.06,
1.718,0.25,0.16,-0.22,-0.06,0.06,-0.06,
1.719,0.25,0.16,-0.22,-0.06,0.05,-0.07,
1.721,0.25,0.16,-0.22,-0.05,0.04,-0.07,
1.723,0.25,0.16,-0.22,-0.05,0.03,-0.07,
1.723,0.00,0.20,-0.25,-0.05,0.03,-0.07,
1.725,0.00,0.20,-0.25,-0.05,0.02,-0.07,
1.728,0.00,0.20,-0.25,-0.05,0.01,-0.07,
1.728,-0.18,0.22,-0.25,-0.05,0.01,-0.07,
1.73,-0.18,0.22,-0.25,-0.05,0.01,-0.07,
1.736,-0.18,0.22,-0.25,-0.05,-0.00,-0.07,
1.736,-0.25,0.17,-0.10,-0.05,-0.00,-0.07,
1.736,-0.25,0.17,-0.10,-0.04,-0.01,-0.07,
1.738,-0.25,0.17,-0.10,-0.04,-0.01,-0.07,
1.759,-0.23,0.11,0.06,-0.04,-0.01,-0.07,
1.759,-0.23,0.11,0.06,-0.04,-0.01,-0.07,
1.759,-0.23,0.11,0.06,-0.04,-0.01,-0.06,
1.759,-0.15,0.03,0.19,-0.04,-0.01,-0.06,
1.759,-0.15,0.03,0.19,-0.03,-0.01,-0.07,
1.759,-0.15,0.03,0.19,-0.03,-0.00,-0.07,
1.76,-0.13,-0.04,0.34,-0.03,-0.00,-0.07,
1.76,-0.13,-0.04,0.34,-0.03,0.01,-0.07,
1.76,-0.25,-0.09,0.48,-0.03,0.01,-0.07,
1.76,-0.25,-0.09,0.48,-0.02,0.02,-0.07,
1.76,-0.25,-0.09,0.48,-0.02,0.03,-0.07,
1.76,-0.33,-0.11,0.60,-0.02,0.03,-0.07,
1.761,-0.33,-0.11,0.60,-0.01,0.04,-0.07,
1.761,-0.33,-0.11,0.60,-0.01,0.05,-0.07,
1.765,-0.33,-0.11,0.60,-0.01,0.06,-0.07,
1.766,-0.29,-0.13,0.64,-0.01,0.06,-0.07,
1.768,-0.29,-0.13,0.64,-0.00,0.07,-0.07,
1.768,-0.29,-0.13,0.64,-0.00,0.08,-0.07,
1.77,-0.29,-0.13,0.64,0.00,0.08,-0.07,
1.773,-0.29,-0.13,0.64,0.01,0.08,-0.07,
1.776,-0.24,-0.16,0.71,0.01,0.08,-0.07,
1.776,-0.20,-0.19,0.69,0.01,0.08,-0.07,
1.776,-0.20,-0.19,0.69,0.01,0.09,-0.07,
1.778,-0.20,-0.19,0.69,0.02,0.09,-0.07,
1.778,-0.25,-0.20,0.63,0.02,0.09,-0.07,
1.78,-0.25,-0.20,0.63,0.02,0.10,-0.08,
1.784,-0.24,-0.19,0.43,0.02,0.10,-0.08,
1.784,-0.24,-0.19,0.43,0.03,0.11,-0.07,
1.785,-0.24,-0.19,0.43,0.03,0.13,-0.07,
1.787,-0.24,-0.19,0.43,0.03,0.14,-0.07,
1.788,-0.16,-0.16,0.21,0.03,0.14,-0.07,
1.79,-0.16,-0.16,0.21,0.03,0.15,-0.07,
1.792,-0.16,-0.16,0.21,0.03,0.16,-0.07,
1.792,-0.04,-0.14,0.16,0.03,0.16,-0.07,
1.795,-0.04,-0.14,0.16,0.03,0.16,-0.07,
1.797,-0.04,-0.14,0.16,0.04,0.17,-0.08,
1.797,0.04,-0.12,0.24,0.04,0.17,-0.08,
1.801,0.04,-0.12,0.24,0.04,0.18,-0.08,
1.802,0.04,-0.12,0.24,0.05,0.18,-0.08,
1.803,0.05,-0.09,0.21,0.05,0.18,-0.08,
1.805,0.05,-0.09,0.21,0.05,0.19,-0.08,
1.807,0.05,-0.09,0.21,0.06,0.19,-0.08,
1.807,0.05,-0.09,0.13,0.06,0.19,-0.08,
1.809,0.05,-0.09,0.13,0.07,0.20,-0.08,
1.812,0.05,-0.09,0.13,0.07,0.20,-0.08,
1.812,0.02,-0.12,0.07,0.07,0.20,-0.08,
1.815,0.02,-0.12,0.07,0.07,0.20,-0.09,
1.817,0.02,-0.12,0.07,0.07,0.21,-0.09,
1.817,-0.07,-0.13,0.07,0.07,0.21,-0.09,
1.819,-0.07,-0.13,0.07,0.07,0.21,-0.09,
1.822,-0.07,-0.13,0.07,0.07,0.21,-0.09,
1.822,-0.15,-0.15,0.19,0.07,0.21,-0.09,
1.824,-0.15,-0.15,0.19,0.08,0.21,-0.09,
1.827,-0.15,-0.15,0.19,0.08,0.21,-0.09,
1.827,-0.15,-0.19,0.32,0.08,0.21,-0.09,
1.83,-0.15,-0.19,0.32,0.08,0.20,-0.08,
1.832,-0.15,-0.19,0.32,0.08,0.20,-0.08,
1.833,-0.07,-0.27,0.48,0.08,0.20,-0.08,
1.835,-0.07,-0.27,0.48,0.09,0.19,-0.08,
1.838,-0.07,-0.27,0.48,0.09,0.19,-0.08,
1.839,-0.06,-0.29,0.60,0.09,0.19,-0.08,
1.841,-0.06,-0.29,0.60,0.09,0.18,-0.08,
1.843,-0.15,-0.31,0.69,0.09,0.18,-0.08,
1.843,-0.15,-0.31,0.69,0.10,0.18,-0.08,
1.845,-0.15,-0.31,0.69,0.10,0.18,-0.08,
1.847,-0.15,-0.31,0.69,0.10,0.17,-0.08,
1.847,-0.30,-0.30,0.71,0.10,0.17,-0.08,
1.851,-0.30,-0.30,0.71,0.10,0.16,-0.08,
1.853,-0.30,-0.30,0.71,0.11,0.15,-0.08,
1.854,-0.39,-0.26,0.70,0.11,0.15,-0.08,
1.854,-0.39,-0.26,0.70,0.11,0.14,-0.07,
1.857,-0.39,-0.26,0.70,0.11,0.12,-0.07,
1.857,-0.40,-0.24,0.69,0.11,0.12,-0.07,
1.86,-0.40,-0.24,0.69,0.11,0.11,-0.07,
1.863,-0.40,-0.24,0.69,0.12,0.10,-0.07,
1.863,-0.36,-0.23,0.67,0.12,0.10,-0.07,
1.864,-0.36,-0.23,0.67,0.12,0.10,-0.07,
1.867,-0.36,-0.23,0.67,0.12,0.09,-0.07,
1.868,-0.35,-0.20,0.61,0.12,0.09,-0.07,
1.869,-0.35,-0.20,0.61,0.12,0.10,-0.07,
1.872,-0.35,-0.20,0.61,0.11,0.10,-0.07,
1.872,-0.39,-0.18,0.45,0.11,0.10,-0.07,
1.874,-0.39,-0.18,0.45,0.11,0.10,-0.07,
1.878,-0.39,-0.18,0.45,0.11,0.10,-0.07,
1.878,-0.28,-0.13,0.33,0.11,0.10,-0.07,
1.879,-0.28,-0.13,0.33,0.11,0.10,-0.07,
1.882,-0.10,-0.12,0.15,0.11,0.10,-0.07,
1.883,-0.10,-0.12,0.15,0.11,0.09,-0.07,
1.884,-0.10,-0.12,0.15,0.10,0.09,-0.07,
1.886,-0.10,-0.12,0.15,0.10,0.09,-0.07,
1.887,-0.02,-0.10,-0.03,0.10,0.09,-0.07,
1.889,-0.02,-0.10,-0.03,0.10,0.10,-0.07,
1.892,-0.02,-0.10,-0.03,0.10,0.11,-0.08,
1.892,0.02,-0.07,-0.13,0.10,0.11,-0.08,
1.894,0.02,-0.07,-0.13,0.10,0.12,-0.08,
1.897,0.08,0.00,-0.26,0.10,0.12,-0.08,
1.897,0.08,0.00,-0.26,0.10,0.13,-0.08,
1.899,0.08,0.00,-0.26,0.10,0.14,-0.09,
1.901,0.08,0.00,-0.37,0.10,0.14,-0.09,
1.902,0.08,0.00,-0.37,0.09,0.15,-0.09,
1.919,0.08,0.00,-0.37,0.09,0.16,-0.09,
1.92,0.09,-0.02,-0.37,0.09,0.16,-0.09,
1.92,0.09,-0.02,-0.37,0.09,0.17,-0.09,
1.92,0.09,-0.02,-0.37,0.09,0.18,-0.09,
1.921,0.09,-0.02,-0.37,0.09,0.19,-0.09,
1.921,0.05,-0.00,-0.30,0.09,0.19,-0.09,
1.921,0.05,-0.00,-0.30,0.09,0.19,-0.09,
1.921,-0.05,0.03,-0.28,0.09,0.19,-0.09,
1.922,-0.05,0.03,-0.28,0.09,0.20,-0.09,
1.922,-0.05,0.03,-0.28,0.09,0.21,-0.09,
1.922,-0.05,0.03,-0.28,0.08,0.21,-0.09,
1.923,-0.11,0.05,-0.24,0.08,0.21,-0.09,
1.924,-0.11,0.05,-0.24,0.08,0.21,-0.09,
1.926,-0.19,0.06,-0.18,0.08,0.21,-0.09,
1.927,-0.19,0.06,-0.18,0.08,0.21,-0.09,
1.929,-0.19,0.06,-0.18,0.08,0.21,-0.08,
1.931,-0.19,0.06,-0.18,0.08,0.20,-0.08,
1.932,-0.17,0.05,-0.06,0.08,0.20,-0.08,
1.934,-0.17,0.05,-0.06,0.08,0.20,-0.08,
1.936,-0.17,0.05,-0.06,0.08,0.19,-0.08,
1.936,-0.17,0.01,0.02,0.08,0.19,-0.08,
1.938,-0.17,0.01,0.02,0.08,0.20,-0.08,
1.941,-0.17,0.01,0.02,0.08,0.20,-0.08,
1.941,-0.23,-0.03,0.05,0.08,0.20,-0.08,
1.943,-0.23,-0.03,0.05,0.08,0.20,-0.08,
1.946,-0.23,-0.03,0.05,0.08,0.20,-0.08,
1.946,-0.27,-0.05,0.14,0.08,0.20,-0.08,
1.952,-0.27,-0.05,0.14,0.08,0.20,-0.08,
1.952,-0.27,-0.05,0.14,0.08,0.19,-0.07,
1.952,-0.31,-0.07,0.24,0.08,0.19,-0.07,
1.953,-0.31,-0.07,0.24,0.08,0.19,-0.07,
1.956,-0.31,-0.08,0.24,0.08,0.19,-0.07,
1.957,-0.31,-0.08,0.24,0.08,0.19,-0.07,
1.96,-0.31,-0.08,0.24,0.09,0.19,-0.07,
1.961,-0.31,-0.08,0.24,0.08,0.19,-0.07,
1.962,-0.27,-0.07,0.24,0.08,0.19,-0.07,
1.964,-0.27,-0.07,0.24,0.08,0.19,-0.08,
1.966,-0.27,-0.07,0.24,0.08,0.19,-0.08,
1.966,-0.25,-0.11,0.33,0.08,0.19,-0.08,
1.968,-0.25,-0.11,0.33,0.08,0.19,-0.08,
1.971,-0.25,-0.11,0.33,0.08,0.18,-0.08,
1.971,-0.23,-0.15,0.46,0.08,0.18,-0.08,
1.973,-0.23,-0.15,0.46,0.08,0.18,-0.08,
1.977,-0.23,-0.15,0.46,0.08,0.18,-0.09,
1.977,-0.23,-0.21,0.50,0.08,0.18,-0.09,
1.979,-0.23,-0.21,0.50,0.08,0.18,-0.08,
1.981,-0.23,-0.21,0.50,0.08,0.18,-0.08,
1.982,-0.14,-0.30,0.44,0.08,0.18,-0.08,
1.984,-0.14,-0.30,0.44,0.08,0.18,-0.08,
1.986,-0.14,-0.30,0.44,0.08,0.19,-0.08,
1.987,-0.04,-0.37,0.39,0.08,0.19,-0.08,
1.988,-0.04,-0.37,0.39,0.08,0.19,-0.08,
1.992,-0.04,-0.37,0.39,0.08,0.20,-0.09,
1.992,0.02,-0.39,0.32,0.08,0.20,-0.09,
1.993,0.02,-0.39,0.32,0.08,0.20,-0.09,
1.996,0.02,-0.39,0.32,0.09,0.21,-0.09,
1.996,0.05,-0.38,0.32,0.09,0.21,-0.09,
1.998,0.05,-0.38,0.32,0.09,0.22,-0.09,
2.001,0.05,-0.38,0.32,0.09,0.23,-0.09,
2.002,0.06,-0.40,0.35,0.09,0.23,-0.09,
2.003,0.06,-0.40,0.35,0.09,0.23,-0.09,
2.006,0.06,-0.40,0.35,0.10,0.23,-0.09,
2.006,0.06,-0.37,0.38,0.10,0.23,-0.09,
2.008,0.06,-0.37,0.38,0.10,0.24,-0.09,
2.011,0.06,-0.37,0.38,0.10,0.24,-0.09,
2.011,0.08,-0.36,0.46,0.10,0.24,-0.09,
2.013,0.08,-0.36,0.46,0.11,0.24,-0.10,
2.016,0.06,-0.33,0.50,0.11,0.24,-0.10,
2.017,0.06,-0.33,0.50,0.11,0.24,-0.10,
2.019,0.06,-0.33,0.50,0.11,0.24,-0.10,
2.021,0.06,-0.33,0.50,0.12,0.25,-0.10,
2.021,-0.05,-0.27,0.53,0.12,0.25,-0.10,
2.023,-0.05,-0.27,0.53,0.12,0.25,-0.11,
2.026,-0.05,-0.27,0.53,0.13,0.26,-0.11,
2.026,-0.17,-0.21,0.58,0.13,0.26,-0.11,
2.028,-0.17,-0.21,0.58,0.13,0.26,-0.11,
2.03,-0.17,-0.21,0.58,0.13,0.26,-0.11,
2.031,-0.26,-0.13,0.58,0.13,0.26,-0.11,
2.034,-0.26,-0.13,0.58,0.14,0.26,-0.11,
2.036,-0.26,-0.13,0.58,0.14,0.26,-0.11,
2.038,-0.37,-0.07,0.56,0.14,0.26,-0.11,
2.039,-0.37,-0.07,0.56,0.14,0.26,-0.11,
2.041,-0.37,-0.07,0.56,0.15,0.26,-0.11,
2.041,-0.41,-0.00,0.59,0.15,0.26,-0.11,
2.043,-0.41,-0.00,0.59,0.15,0.26,-0.11,
2.045,-0.41,-0.00,0.59,0.15,0.25,-0.11,
2.046,-0.38,0.04,0.57,0.15,0.25,-0.11,
2.048,-0.38,0.04,0.57,0.16,0.25,-0.11,
2.051,-0.38,0.04,0.57,0.16,0.24,-0.11,
2.051,-0.30,0.07,0.48,0.16,0.24,-0.11,
2.053,-0.30,0.07,0.48,0.16,0.23,-0.11,
2.056,-0.30,0.07,0.48,0.17,0.23,-0.10,
2.056,-0.22,0.07,0.40,0.17,0.23,-0.10,
2.058,-0.22,0.07,0.40,0.18,0.23,-0.11,
2.061,-0.22,0.07,0.40,0.18,0.23,-0.11,
2.061,-0.12,0.05,0.28,0.18,0.23,-0.11,
2.063,-0.12,0.05,0.28,0.19,0.23,-0.11,
2.07,-0.12,0.05,0.28,0.19,0.23,-0.11,
2.072,-0.00,0.02,0.16,0.19,0.23,-0.11,
2.072,-0.00,0.02,0.16,0.19,0.24,-0.11,
2.104,-0.00,0.02,0.16,0.20,0.24,-0.12,
2.104,0.11,-0.04,0.08,0.20,0.24,-0.12,
2.104,0.11,-0.04,0.08,0.20,0.25,-0.12,
2.105,0.11,-0.04,0.08,0.20,0.26,-0.13,
2.105,0.19,-0.12,0.09,0.20,0.26,-0.13,
2.105,0.19,-0.12,0.09,0.20,0.26,-0.13,
2.106,0.19,-0.12,0.09,0.21,0.27,-0.14,
2.106,0.17,-0.21,0.23,0.21,0.27,-0.14,
2.106,0.17,-0.21,0.23,0.21,0.28,-0.14,
2.107,0.17,-0.21,0.23,0.22,0.28,-0.15,
2.107,0.11,-0.28,0.37,0.22,0.28,-0.15,
2.107,0.11,-0.28,0.37,0.22,0.29,-0.15,
2.108,0.11,-0.28,0.37,0.23,0.30,-0.15,
2.108,-0.00,-0.30,0.43,0.23,0.30,-0.15,
2.108,-0.00,-0.30,0.43,0.23,0.30,-0.15,
2.109,-0.00,-0.30,0.43,0.23,0.30,-0.15,
2.109,-0.12,-0.26,0.38,0.23,0.30,-0.15,
2.109,-0.12,-0.26,0.38,0.23,0.29,-0.15,
2.11,-0.12,-0.26,0.38,0.23,0.29,-0.15,
2.11,-0.25,-0.18,0.33,0.23,0.29,-0.15,
2.11,-0.25,-0.18,0.33,0.24,0.28,-0.15,
2.111,-0.25,-0.18,0.33,0.24,0.27,-0.15,
2.111,-0.35,-0.15,0.37,0.24,0.27,-0.15,
2.111,-0.35,-0.15,0.37,0.24,0.25,-0.15,
2.112,-0.35,-0.15,0.37,0.24,0.24,-0.14,
2.112,-0.48,-0.14,0.40,0.24,0.24,-0.14,
2.112,-0.48,-0.14,0.40,0.24,0.22,-0.14,
2.118,-0.48,-0.14,0.40,0.24,0.21,-0.13,
2.119,-0.51,-0.18,0.33,0.24,0.21,-0.13,
2.119,-0.51,-0.18,0.33,0.24,0.20,-0.13,
2.123,-0.51,-0.18,0.33,0.24,0.19,-0.13,
2.123,-0.44,-0.21,0.27,0.24,0.19,-0.13,
2.124,-0.44,-0.21,0.27,0.24,0.18,-0.12,
2.124,-0.44,-0.21,0.27,0.24,0.18,-0.12,
2.125,-0.31,-0.22,0.27,0.24,0.18,-0.12,
2.128,-0.31,-0.22,0.27,0.24,0.17,-0.12,
2.13,-0.31,-0.22,0.27,0.24,0.16,-0.12,
2.131,-0.08,-0.21,0.31,0.24,0.16,-0.12,
2.133,-0.08,-0.21,0.31,0.24,0.16,-0.12,
2.137,-0.08,-0.21,0.31,0.24,0.16,-0.13,
2.137,0.14,-0.18,0.27,0.24,0.16,-0.13,
2.137,0.14,-0.18,0.27,0.24,0.16,-0.13,
2.14,0.14,-0.18,0.27,0.25,0.16,-0.14,
2.14,0.27,-0.21,0.17,0.25,0.16,-0.14,
2.142,0.27,-0.21,0.17,0.25,0.17,-0.14,
2.144,0.27,-0.21,0.17,0.25,0.18,-0.14,
2.144,0.27,-0.26,0.11,0.25,0.18,-0.14,
2.147,0.27,-0.26,0.11,0.26,0.19,-0.15,
2.153,0.28,-0.32,0.06,0.26,0.19,-0.15,
2.155,0.28,-0.32,0.06,0.26,0.20,-0.15,
2.155,0.28,-0.32,0.06,0.26,0.22,-0.16,
2.158,0.22,-0.37,0.14,0.26,0.22,-0.16,
2.158,0.22,-0.37,0.14,0.26,0.23,-0.16,
2.159,0.22,-0.37,0.14,0.25,0.25,-0.16,
2.159,0.22,-0.37,0.14,0.25,0.26,-0.17,
2.16,0.16,-0.38,0.29,0.25,0.26,-0.17,
2.162,0.16,-0.38,0.29,0.25,0.27,-0.17,
2.166,-0.35,-1.05,0.42,0.25,0.27,-0.17,
2.166,-0.35,-1.05,0.42,0.25,0.28,-0.17,
2.169,-0.35,-1.05,0.42,0.25,0.28,-0.12,
2.17,-0.35,-1.05,0.42,0.24,0.27,-0.08,
2.17,-1.13,-1.84,0.37,0.24,0.27,-0.08,
2.173,-1.13,-1.84,0.37,0.24,0.27,-0.08,
2.175,-1.13,-1.84,0.37,0.25,0.26,-0.12,
2.175,-0.25,-0.67,0.59,0.25,0.26,-0.12,
2.177,-0.25,-0.67,0.59,0.27,0.22,-0.15,
2.179,-0.25,-0.67,0.59,0.27,0.16,-0.17,
2.179,-0.30,0.49,0.55,0.27,0.16,-0.17,
2.181,-0.30,0.49,0.55,0.28,0.12,-0.16,
2.185,-0.46,0.84,0.12,0.28,0.12,-0.16,
2.186,-0.46,0.84,0.12,0.29,0.09,-0.15,
2.186,-0.46,0.84,0.12,0.29,0.11,-0.14,
2.189,-0.46,0.84,0.12,0.30,0.15,-0.14,
2.189,-0.25,0.84,-0.01,0.30,0.15,-0.14,
2.191,-0.25,0.84,-0.01,0.31,0.18,-0.14,
2.194,-0.25,0.84,-0.01,0.31,0.19,-0.15,
2.194,0.10,0.99,0.02,0.31,0.19,-0.15,
2.196,0.10,0.99,0.02,0.31,0.18,-0.16,
2.2,-0.27,0.59,0.04,0.31,0.18,-0.16,
2.2,-0.27,0.59,0.04,0.31,0.17,-0.15,
2.202,-0.27,0.59,0.04,0.31,0.19,-0.14,
2.204,-0.27,0.59,0.04,0.31,0.20,-0.14,
2.205,-0.09,-0.21,0.04,0.31,0.20,-0.14,
2.206,-0.09,-0.21,0.04,0.31,0.19,-0.16,
2.209,-0.09,-0.21,0.04,0.31,0.19,-0.17,
2.209,0.10,-0.43,-0.29,0.31,0.19,-0.17,
2.211,0.10,-0.43,-0.29,0.29,0.17,-0.17,
2.214,0.10,-0.43,-0.29,0.28,0.16,-0.17,
2.214,-0.05,-0.25,-0.54,0.28,0.16,-0.17,
2.216,-0.05,-0.25,-0.54,0.26,0.16,-0.18,
2.219,-0.05,-0.25,-0.54,0.25,0.16,-0.17,
2.219,-0.30,-0.15,-0.71,0.25,0.16,-0.17,
2.222,-0.30,-0.15,-0.71,0.24,0.16,-0.17,
2.224,-0.30,-0.15,-0.71,0.23,0.15,-0.17,
2.224,-0.13,-0.04,-0.36,0.23,0.15,-0.17,
2.226,-0.13,-0.04,-0.36,0.23,0.13,-0.17,
2.229,-0.13,-0.04,-0.36,0.23,0.11,-0.17,
2.229,-0.10,0.02,-0.24,0.23,0.11,-0.17,
2.231,-0.10,0.02,-0.24,0.22,0.10,-0.17,
2.235,-0.10,0.02,-0.24,0.22,0.10,-0.17,
2.274,0.03,-0.00,-0.51,0.22,0.10,-0.17,
2.274,0.03,-0.00,-0.51,0.21,0.10,-0.18,
2.275,0.05,-0.10,-0.60,0.21,0.10,-0.18,
2.275,0.05,-0.10,-0.60,0.20,0.10,-0.18,
2.275,0.05,-0.10,-0.60,0.20,0.11,-0.18,
2.275,0.05,-0.10,-0.60,0.19,0.11,-0.18,
2.276,0.09,-0.15,-0.31,0.19,0.11,-0.18,
2.276,0.09,-0.15,-0.31,0.19,0.13,-0.18,
2.276,0.15,-0.17,0.07,0.19,0.13,-0.18,
2.276,0.15,-0.17,0.07,0.19,0.16,-0.18,
2.277,0.15,-0.17,0.07,0.20,0.18,-0.18,
2.277,0.15,-0.15,0.25,0.20,0.18,-0.18,
2.277,0.15,-0.15,0.25,0.21,0.21,-0.19,
2.277,0.15,-0.15,0.25,0.22,0.23,-0.19,
2.278,0.15,-0.15,0.25,0.24,0.24,-0.18,
2.278,-0.04,-0.25,0.22,0.24,0.24,-0.18,
2.278,-0.04,-0.25,0.22,0.24,0.25,-0.18,
2.278,-0.04,-0.25,0.22,0.24,0.26,-0.17,
2.279,-0.38,-0.30,0.11,0.24,0.26,-0.17,
2.279,-0.38,-0.30,0.11,0.23,0.25,-0.16,
2.279,-0.49,-0.29,0.09,0.23,0.25,-0.16,
2.279,-0.49,-0.29,0.09,0.23,0.24,-0.15,
2.28,-0.49,-0.29,0.09,0.22,0.22,-0.14,
2.28,-0.47,-0.24,0.20,0.22,0.22,-0.14,
2.28,-0.47,-0.24,0.20,0.22,0.21,-0.13,
2.28,-0.47,-0.24,0.20,0.22,0.19,-0.13,
2.281,-0.47,-0.24,0.20,0.22,0.16,-0.12,
2.281,-0.41,-0.12,0.46,0.22,0.16,-0.12,
2.281,-0.41,-0.12,0.46,0.21,0.14,-0.13,
2.288,-0.41,-0.12,0.46,0.22,0.14,-0.14,
2.289,0.01,0.09,0.32,0.22,0.14,-0.14,
2.29,0.01,0.09,0.32,0.22,0.13,-0.15,
2.29,0.01,0.09,0.32,0.22,0.13,-0.15,
2.29,-0.34,0.15,0.18,0.22,0.13,-0.15,
2.291,-0.34,0.15,0.18,0.21,0.15,-0.14,
2.294,-0.34,0.15,0.18,0.21,0.17,-0.14,
2.294,-0.62,0.07,0.11,0.21,0.17,-0.14,
2.296,-0.62,0.07,0.11,0.21,0.17,-0.14,
2.298,-0.62,0.07,0.11,0.21,0.16,-0.14,
2.299,-0.34,0.20,0.17,0.21,0.16,-0.14,
2.301,-0.34,0.20,0.17,0.21,0.15,-0.14,
2.304,-0.34,0.20,0.17,0.21,0.15,-0.15,
2.304,-0.35,0.28,0.27,0.21,0.15,-0.15,
2.305,-0.35,0.28,0.27,0.21,0.15,-0.15,
2.308,-0.35,0.28,0.27,0.21,0.15,-0.14,
2.309,-0.34,0.23,0.52,0.21,0.15,-0.14,
2.31,-0.34,0.23,0.52,0.22,0.15,-0.15,
2.314,-0.34,0.23,0.52,0.23,0.12,-0.17,
2.314,-0.45,-1.36,0.77,0.23,0.12,-0.17,
2.316,-0.45,-1.36,0.77,0.23,0.07,-0.19,
2.318,-0.44,-0.60,0.31,0.23,0.07,-0.19,
2.319,-0.44,-0.60,0.31,0.23,0.04,-0.19,
2.32,-0.44,-0.60,0.31,0.22,0.08,-0.15,
2.323,-0.22,1.48,-0.44,0.22,0.08,-0.15,
2.323,-0.22,1.48,-0.44,0.22,0.12,-0.10,
2.325,-0.22,1.48,-0.44,0.21,0.15,-0.10,
2.329,-0.03,0.51,-0.32,0.21,0.15,-0.10,
2.329,-0.03,0.51,-0.32,0.21,0.17,-0.12,
2.331,-0.03,0.51,-0.32,0.21,0.17,-0.13,
2.334,-0.03,0.51,-0.32,0.21,0.17,-0.13,
2.335,-0.83,-0.16,-0.27,0.21,0.17,-0.13,
2.336,-0.83,-0.16,-0.27,0.21,0.19,-0.12,
2.338,-0.83,-0.16,-0.27,0.21,0.18,-0.10,
2.338,-0.73,-0.25,-0.19,0.21,0.18,-0.10,
2.34,-0.73,-0.25,-0.19,0.20,0.13,-0.09,
2.343,-0.73,-0.25,-0.19,0.20,0.07,-0.10,
2.343,0.00,-0.05,0.26,0.20,0.07,-0.10,
2.345,0.00,-0.05,0.26,0.20,0.02,-0.10,
2.348,0.00,-0.05,0.26,0.21,-0.00,-0.11,
2.348,0.19,-0.08,0.40,0.21,-0.00,-0.11,
2.351,0.19,-0.08,0.40,0.22,-0.00,-0.12,
2.353,0.19,-0.08,0.40,0.22,0.02,-0.12,
2.353,0.12,-0.23,0.33,0.22,0.02,-0.12,
2.355,0.12,-0.23,0.33,0.22,0.05,-0.11,
2.358,0.12,-0.23,0.33,0.23,0.07,-0.11,
2.358,0.21,-0.12,0.33,0.23,0.07,-0.11,
2.36,0.21,-0.12,0.33,0.24,0.10,-0.11,
2.363,0.21,-0.12,0.33,0.24,0.12,-0.12,
2.363,0.37,0.02,0.50,0.24,0.12,-0.12,
2.365,0.37,0.02,0.50,0.25,0.16,-0.13,
2.371,0.37,0.02,0.50,0.26,0.19,-0.13,
2.371,0.26,-0.01,0.47,0.26,0.19,-0.13,
2.374,0.26,-0.01,0.47,0.27,0.20,-0.14,
2.378,-0.10,-0.05,0.40,0.27,0.20,-0.14,
2.378,-0.38,-0.20,0.33,0.27,0.20,-0.14,
2.383,-0.38,-0.20,0.33,0.28,0.21,-0.14,
2.383,-0.38,-0.20,0.33,0.28,0.21,-0.14,
2.384,-0.38,-0.20,0.33,0.28,0.21,-0.14,
2.384,-0.38,-0.20,0.33,0.28,0.22,-0.13,
2.385,-0.38,-0.20,0.33,0.29,0.22,-0.12,
2.385,-0.68,-0.42,0.26,0.29,0.22,-0.12,
2.386,-0.68,-0.42,0.26,0.29,0.24,-0.11,
2.388,-0.68,-0.42,0.26,0.29,0.26,-0.11,
2.389,-0.52,-0.51,0.47,0.29,0.26,-0.11,
2.392,-0.52,-0.51,0.47,0.29,0.26,-0.10,
2.393,-0.43,-0.51,0.66,0.29,0.26,-0.10,
2.393,-0.43,-0.51,0.66,0.30,0.25,-0.09,
2.395,-0.43,-0.51,0.66,0.30,0.23,-0.09,
2.397,-0.43,-0.51,0.66,0.30,0.18,-0.07,
2.398,-0.87,-0.88,0.67,0.30,0.18,-0.07,
2.417,-0.87,-0.88,0.67,0.29,0.12,-0.05,
2.418,-0.18,-1.18,0.22,0.29,0.12,-0.05,
2.418,-0.18,-1.18,0.22,0.29,0.11,-0.05,
2.418,-0.18,-1.18,0.22,0.29,0.14,-0.07,
2.419,-0.49,-0.24,0.05,0.29,0.14,-0.07,
2.419,-0.49,-0.24,0.05,0.28,0.12,-0.08,
2.419,-0.49,-0.24,0.05,0.27,0.05,-0.06,
2.42,-0.49,-0.24,0.05,0.26,0.04,-0.04,
2.42,-1.08,0.22,-0.51,0.26,0.04,-0.04,
2.42,-1.08,0.22,-0.51,0.26,0.12,-0.04,
2.421,-1.08,0.22,-0.51,0.27,0.22,-0.04,
2.421,-0.20,0.33,0.87,0.27,0.22,-0.04,
2.421,-0.20,0.33,0.87,0.31,0.23,-0.03,
2.424,-0.20,0.33,0.87,0.36,0.19,-0.01,
2.425,-0.30,0.69,1.87,0.36,0.19,-0.01,
2.425,-0.30,0.69,1.87,0.38,0.15,-0.02,
2.427,-0.30,0.69,1.87,0.39,0.15,-0.02,
2.427,-0.09,0.05,0.31,0.39,0.15,-0.02,
2.429,-0.09,0.05,0.31,0.39,0.16,-0.03,
2.432,-0.09,0.05,0.31,0.37,0.18,-0.04,
2.432,0.34,-0.45,-0.28,0.37,0.18,-0.04,
2.435,0.34,-0.45,-0.28,0.36,0.20,-0.04,
2.437,0.45,-0.53,0.27,0.36,0.20,-0.04,
2.439,0.45,-0.53,0.27,0.36,0.21,-0.04,
2.44,0.45,-0.53,0.27,0.36,0.23,-0.05,
2.442,0.29,-0.40,0.72,0.36,0.23,-0.05,
2.443,0.29,-0.40,0.72,0.37,0.25,-0.05,
2.444,0.29,-0.40,0.72,0.39,0.27,-0.05,
2.447,0.29,-0.40,0.72,0.40,0.28,-0.05,
2.447,0.21,-0.33,0.74,0.40,0.28,-0.05,
2.462,0.21,-0.33,0.74,0.41,0.29,-0.05,
2.463,0.26,-0.25,0.60,0.41,0.29,-0.05,
2.463,0.26,-0.25,0.60,0.42,0.30,-0.06,
2.463,0.26,-0.25,0.60,0.42,0.32,-0.06,
2.464,0.26,-0.25,0.60,0.43,0.34,-0.07,
2.464,0.26,-0.12,0.61,0.43,0.34,-0.07,
2.464,0.26,-0.12,0.61,0.43,0.38,-0.08,
2.465,0.26,-0.12,0.61,0.44,0.42,-0.09,
2.465,0.31,-0.14,0.72,0.44,0.42,-0.09,
2.465,0.31,-0.14,0.72,0.45,0.48,-0.09,
2.47,0.31,-0.14,0.72,0.48,0.59,-0.10,
2.471,0.48,-0.16,1.08,0.48,0.59,-0.10,
2.471,0.48,-0.16,1.08,0.50,0.66,-0.11,
2.472,0.48,-0.16,1.08,0.50,0.66,-0.11,
2.472,-0.01,0.05,0.69,0.50,0.66,-0.11,
2.474,-0.01,0.05,0.69,0.50,0.62,-0.10,
2.476,-0.15,-0.27,0.74,0.50,0.62,-0.10,
2.477,-0.15,-0.27,0.74,0.50,0.61,-0.11,
2.479,-0.15,-0.27,0.74,0.51,0.63,-0.12,
2.481,-0.15,-0.27,0.74,0.53,0.65,-0.12,
2.482,-0.26,-0.53,1.00,0.53,0.65,-0.12,
2.486,-0.26,-0.53,1.00,0.54,0.67,-0.12,
2.488,-0.26,-0.53,1.00,0.55,0.67,-0.11,
2.488,-0.28,-0.59,0.85,0.55,0.67,-0.11,
2.489,-0.28,-0.59,0.85,0.55,0.65,-0.10,
2.492,-0.28,-0.59,0.85,0.54,0.62,-0.10,
2.492,-0.21,-0.56,0.48,0.54,0.62,-0.10,
2.495,-0.21,-0.56,0.48,0.53,0.60,-0.10,
2.497,-0.21,-0.56,0.48,0.52,0.58,-0.11,
2.497,-0.33,-0.29,0.30,0.52,0.58,-0.11,
2.499,-0.33,-0.29,0.30,0.52,0.57,-0.11,
2.502,-0.91,0.03,0.30,0.52,0.57,-0.11,
2.502,-0.91,0.03,0.30,0.52,0.56,-0.10,
2.504,-0.91,0.03,0.30,0.52,0.56,-0.09,
2.507,-0.91,0.03,0.30,0.52,0.55,-0.07,
2.507,-1.59,0.29,0.14,0.52,0.55,-0.07,
2.509,-1.59,0.29,0.14,0.52,0.53,-0.04,
2.511,-1.59,0.29,0.14,0.51,0.47,-0.01,
2.511,-2.15,0.49,0.18,0.51,0.47,-0.01,
2.514,-2.15,0.49,0.18,0.51,0.40,0.02,
2.517,-2.17,0.58,-0.10,0.51,0.40,0.02,
2.517,-2.17,0.58,-0.10,0.50,0.33,0.05,
2.52,-2.17,0.58,-0.10,0.49,0.27,0.08,
2.521,-2.17,0.58,-0.10,0.48,0.22,0.10,
2.521,-1.86,0.59,-0.34,0.48,0.22,0.10,
2.523,-1.86,0.59,-0.34,0.47,0.17,0.12,
2.526,-1.86,0.59,-0.34,0.47,0.14,0.14,
2.526,-1.28,0.50,-0.36,0.47,0.14,0.14,
2.529,-1.28,0.50,-0.36,0.46,0.12,0.15,
2.531,-1.28,0.50,-0.36,0.46,0.11,0.15,
2.531,-0.62,0.32,-0.18,0.46,0.11,0.15,
2.534,-0.62,0.32,-0.18,0.46,0.10,0.15,
2.536,-0.62,0.32,-0.18,0.46,0.11,0.15,
2.536,-0.12,0.13,-0.12,0.46,0.11,0.15,
2.538,-0.12,0.13,-0.12,0.46,0.12,0.15,
2.541,-0.12,0.13,-0.12,0.46,0.14,0.16,
2.541,0.08,-0.02,-0.15,0.46,0.14,0.16,
2.543,0.08,-0.02,-0.15,0.46,0.15,0.16,
2.546,0.08,-0.02,-0.15,0.46,0.16,0.15,
2.546,0.19,-0.14,-0.12,0.46,0.16,0.15,
2.549,0.19,-0.14,-0.12,0.45,0.17,0.15,
2.553,0.30,-0.25,-0.02,0.45,0.17,0.15,
2.553,0.30,-0.25,-0.02,0.45,0.18,0.15,
2.561,0.30,-0.25,-0.02,0.45,0.20,0.14,
2.562,0.30,-0.25,-0.02,0.45,0.21,0.13,
2.562,0.34,-0.25,0.07,0.45,0.21,0.13,
2.563,0.34,-0.25,0.07,0.45,0.23,0.13,
2.563,0.34,-0.25,0.07,0.45,0.24,0.13,
2.563,0.25,-0.26,0.10,0.45,0.24,0.13,
2.564,0.25,-0.26,0.10,0.45,0.26,0.12,
2.586,0.25,-0.26,0.10,0.44,0.27,0.11,
2.586,0.11,-0.32,0.14,0.44,0.27,0.11,
2.587,0.11,-0.32,0.14,0.44,0.27,0.11,
2.587,-0.33,-0.10,0.19,0.44,0.27,0.11,
2.587,-0.33,-0.10,0.19,0.44,0.26,0.11,
2.587,-0.33,-0.10,0.19,0.44,0.26,0.12,
2.587,-0.33,-0.10,0.19,0.44,0.28,0.13,
2.588,-0.62,0.19,-0.07,0.44,0.28,0.13,
2.588,-0.62,0.19,-0.07,0.43,0.31,0.14,
2.588,-0.62,0.19,-0.07,0.42,0.33,0.14,
2.588,-0.50,0.13,-0.27,0.42,0.33,0.14,
2.589,-0.50,0.13,-0.27,0.41,0.33,0.15,
2.589,-0.50,0.13,-0.27,0.40,0.33,0.16,
2.589,-0.58,0.05,-0.27,0.40,0.33,0.16,
2.589,-0.58,0.05,-0.27,0.39,0.32,0.17,
2.591,-0.58,0.05,-0.27,0.38,0.31,0.18,
2.592,-0.68,-0.04,-0.37,0.38,0.31,0.18,
2.593,-0.68,-0.04,-0.37,0.37,0.30,0.18,
2.596,-0.68,-0.04,-0.37,0.36,0.27,0.20,
2.597,-0.94,-0.02,-0.46,0.36,0.27,0.20,
2.599,-0.94,-0.02,-0.46,0.34,0.25,0.21,
2.601,-1.09,0.02,-0.54,0.34,0.25,0.21,
2.602,-1.09,0.02,-0.54,0.33,0.23,0.23,
2.608,-0.98,0.17,-0.75,0.33,0.23,0.23,
2.608,-0.98,0.17,-0.75,0.32,0.21,0.24,
2.608,-0.98,0.17,-0.75,0.31,0.21,0.26,
2.608,-0.98,0.17,-0.75,0.29,0.20,0.27,
2.61,-0.90,0.35,-0.82,0.29,0.20,0.27,
2.611,-0.90,0.35,-0.82,0.28,0.19,0.29,
2.613,-0.90,0.35,-0.82,0.27,0.17,0.31,
2.615,-0.90,0.35,-0.82,0.26,0.16,0.33,
2.616,-0.76,0.41,-0.78,0.26,0.16,0.33,
2.618,-0.76,0.41,-0.78,0.24,0.13,0.34,
2.62,-0.76,0.41,-0.78,0.23,0.11,0.36,
2.621,-0.67,0.33,-0.70,0.23,0.11,0.36,
2.623,-0.67,0.33,-0.70,0.22,0.10,0.37,
2.625,-0.67,0.33,-0.70,0.21,0.09,0.39,
2.625,-0.48,0.12,-0.41,0.21,0.09,0.39,
2.628,-0.48,0.12,-0.41,0.21,0.09,0.40,
2.63,-0.48,0.12,-0.41,0.20,0.09,0.40,
2.63,-0.23,-0.07,-0.12,0.20,0.09,0.40,
2.633,-0.23,-0.07,-0.12,0.20,0.09,0.41,
2.636,-0.23,-0.07,-0.12,0.20,0.10,0.41,
2.637,-0.02,-0.15,-0.06,0.20,0.10,0.41,
2.638,-0.02,-0.15,-0.06,0.19,0.12,0.42,
2.641,-0.02,-0.15,-0.06,0.19,0.14,0.42,
2.641,0.13,-0.19,-0.14,0.19,0.14,0.42,
2.642,0.13,-0.19,-0.14,0.18,0.17,0.42,
2.645,0.13,-0.19,-0.14,0.18,0.19,0.42,
2.646,0.17,-0.10,-0.18,0.18,0.19,0.42,
2.65,0.17,-0.10,-0.18,0.17,0.21,0.42,
2.656,0.17,-0.10,-0.18,0.16,0.23,0.43,
2.656,0.09,0.00,-0.16,0.16,0.23,0.43,
2.657,0.09,0.00,-0.16,0.16,0.26,0.43,
2.657,0.09,-0.05,0.02,0.16,0.26,0.43,
2.657,0.09,-0.05,0.02,0.15,0.29,0.44,
2.658,0.09,-0.05,0.02,0.15,0.32,0.45,
2.66,0.09,-0.05,0.02,0.15,0.34,0.46,
2.66,0.05,-0.10,0.22,0.15,0.34,0.46,
2.662,0.05,-0.10,0.22,0.15,0.35,0.46,
2.667,0.05,-0.10,0.22,0.14,0.33,0.47,
2.668,-0.16,-0.04,0.25,0.14,0.33,0.47,
2.668,-0.16,-0.04,0.25,0.13,0.30,0.48,
2.671,-0.16,-0.04,0.25,0.12,0.28,0.49,
2.672,-0.34,-0.12,0.18,0.12,0.28,0.49,
2.672,-0.34,-0.12,0.18,0.11,0.27,0.50,
2.675,-0.41,-0.25,0.30,0.11,0.27,0.50,
2.675,-0.41,-0.25,0.30,0.11,0.29,0.51,
2.677,-0.41,-0.25,0.30,0.10,0.32,0.53,
2.679,-0.41,-0.25,0.30,0.10,0.35,0.55,
2.68,-0.30,-0.38,0.41,0.10,0.35,0.55,
2.682,-0.30,-0.38,0.41,0.11,0.39,0.56,
2.685,-0.30,-0.38,0.41,0.11,0.43,0.58,
2.685,-0.17,-0.43,0.38,0.11,0.43,0.58,
2.69,-0.17,-0.43,0.38,0.10,0.47,0.60,
2.69,-0.17,-0.43,0.38,0.11,0.50,0.61,
2.69,-0.08,-0.46,0.37,0.11,0.50,0.61,
2.692,-0.08,-0.46,0.37,0.11,0.54,0.61,
2.695,-0.08,-0.46,0.37,0.11,0.56,0.62,
2.695,-0.20,-0.44,0.27,0.11,0.56,0.62,
2.697,-0.20,-0.44,0.27,0.10,0.56,0.62,
2.7,-0.20,-0.44,0.27,0.10,0.56,0.62,
2.7,-0.57,-0.34,0.06,0.10,0.56,0.62,
2.702,-0.57,-0.34,0.06,0.10,0.54,0.62,
2.705,-0.57,-0.34,0.06,0.09,0.52,0.62,
2.705,-0.89,-0.18,-0.19,0.09,0.52,0.62,
2.707,-0.89,-0.18,-0.19,0.08,0.49,0.63,
2.71,-0.89,-0.18,-0.19,0.07,0.45,0.64,
2.711,-1.32,0.16,-0.37,0.07,0.45,0.64,
2.713,-1.32,0.16,-0.37,0.06,0.42,0.65,
2.715,-1.32,0.16,-0.37,0.06,0.39,0.67,
2.715,-1.58,0.52,-0.38,0.06,0.39,0.67,
2.718,-1.58,0.52,-0.38,0.06,0.37,0.69,
2.719,-1.58,0.52,-0.38,0.06,0.36,0.72,
2.72,-1.55,0.71,-0.44,0.06,0.36,0.72,
2.722,-1.55,0.71,-0.44,0.07,0.36,0.74,
2.724,-1.55,0.71,-0.44,0.08,0.36,0.77,
2.725,-1.54,0.70,-0.59,0.08,0.36,0.77,
2.727,-1.54,0.70,-0.59,0.08,0.36,0.80,
2.729,-1.54,0.70,-0.59,0.08,0.37,0.82,
2.743,-1.38,0.66,-0.71,0.08,0.37,0.82,
2.743,-1.38,0.66,-0.71,0.08,0.38,0.84,
2.744,-1.01,0.53,-0.72,0.08,0.38,0.84,
2.744,-1.01,0.53,-0.72,0.07,0.39,0.85,
2.744,-1.01,0.53,-0.72,0.06,0.41,0.85,
2.744,-1.01,0.53,-0.72,0.05,0.42,0.85,
2.745,-0.73,0.47,-0.56,0.05,0.42,0.85,
2.745,-0.73,0.47,-0.56,0.05,0.45,0.85,
2.745,-0.73,0.47,-0.56,0.04,0.49,0.85,
2.745,-0.54,0.39,-0.21,0.04,0.49,0.85,
2.746,-0.54,0.39,-0.21,0.04,0.53,0.85,
2.749,-0.54,0.39,-0.21,0.04,0.57,0.85,
2.75,-0.51,0.26,0.12,0.04,0.57,0.85,
2.752,-0.51,0.26,0.12,0.04,0.61,0.86,
2.754,-0.51,0.26,0.12,0.04,0.66,0.86,
2.754,-0.61,0.18,0.33,0.04,0.66,0.86,
2.756,-0.61,0.18,0.33,0.04,0.70,0.86,
2.759,-0.61,0.18,0.33,0.04,0.73,0.86,
2.759,-0.86,0.08,0.38,0.04,0.73,0.86,
2.761,-0.86,0.08,0.38,0.04,0.76,0.86,
2.764,-0.86,0.08,0.38,0.04,0.77,0.86,
2.764,-1.15,0.10,0.35,0.04,0.77,0.86,
2.766,-1.15,0.10,0.35,0.04,0.77,0.87,
2.77,-1.15,0.10,0.35,0.03,0.77,0.86,
2.771,-1.24,0.43,0.30,0.03,0.77,0.86,
2.772,-1.24,0.43,0.30,0.03,0.73,0.86,
2.774,-1.82,1.01,0.15,0.03,0.73,0.86,
2.775,-1.82,1.01,0.15,0.02,0.66,0.87,
2.776,-1.82,1.01,0.15,0.01,0.61,0.89,
2.779,-1.82,1.01,0.15,0.01,0.61,0.93,
2.779,-2.66,0.72,0.22,0.01,0.61,0.93,
2.781,-2.66,0.72,0.22,0.02,0.63,0.97,
2.784,-2.66,0.72,0.22,0.03,0.66,1.02,
2.785,-2.77,0.07,0.59,0.03,0.66,1.02,
2.788,-2.77,0.07,0.59,0.05,0.69,1.05,
2.789,-2.77,0.07,0.59,0.06,0.70,1.09,
2.789,-2.61,-0.65,0.68,0.06,0.70,1.09,
2.791,-2.61,-0.65,0.68,0.06,0.69,1.12,
2.794,-2.61,-0.65,0.68,0.07,0.66,1.14,
2.794,-2.39,-0.90,0.41,0.07,0.66,1.14,
2.796,-2.39,-0.90,0.41,0.07,0.62,1.15,
2.8,-2.39,-0.90,0.41,0.06,0.58,1.16,
2.8,-2.22,-0.75,-0.15,0.06,0.58,1.16,
2.801,-2.22,-0.75,-0.15,0.05,0.53,1.16,
2.806,-2.22,-0.75,-0.15,0.04,0.48,1.17,
2.806,-2.45,-0.44,-0.58,0.04,0.48,1.17,
2.806,-2.45,-0.44,-0.58,0.04,0.41,1.18,
2.81,-2.63,0.01,-0.36,0.04,0.41,1.18,
2.81,-2.63,0.01,-0.36,0.04,0.32,1.20,
2.812,-2.63,0.01,-0.36,0.04,0.24,1.22,
2.815,-2.63,0.01,-0.36,0.05,0.17,1.24,
2.815,-2.75,0.28,-0.28,0.05,0.17,1.24,
2.816,-2.75,0.28,-0.28,0.06,0.12,1.26,
2.819,-2.58,0.48,-0.51,0.06,0.12,1.26,
2.82,-2.58,0.48,-0.51,0.06,0.08,1.28,
2.821,-2.58,0.48,-0.51,0.06,0.05,1.30,
2.824,-2.26,0.53,-0.88,0.06,0.05,1.30,
2.824,-2.26,0.53,-0.88,0.05,0.03,1.32,
2.826,-2.26,0.53,-0.88,0.05,0.02,1.34,
2.829,-2.26,0.53,-0.88,0.05,0.03,1.36,
2.829,-1.83,0.48,-0.96,0.05,0.03,1.36,
2.831,-1.83,0.48,-0.96,0.05,0.04,1.37,
2.834,-1.83,0.48,-0.96,0.04,0.05,1.38,
2.834,-1.26,0.37,-0.88,0.04,0.05,1.38,
2.837,-1.26,0.37,-0.88,0.04,0.07,1.40,
2.838,-1.26,0.37,-0.88,0.05,0.10,1.41,
2.839,-0.79,0.20,-0.82,0.05,0.10,1.41,
2.841,-0.79,0.20,-0.82,0.05,0.14,1.43,
2.843,-0.79,0.20,-0.82,0.06,0.19,1.44,
2.843,-0.46,-0.09,-0.72,0.06,0.19,1.44,
2.846,-0.46,-0.09,-0.72,0.09,0.26,1.45,
2.848,-0.46,-0.09,-0.72,0.13,0.33,1.45,
2.848,-0.11,-0.48,-0.84,0.13,0.33,1.45,
2.851,-0.11,-0.48,-0.84,0.15,0.41,1.44,
2.854,-0.11,-0.48,-0.84,0.17,0.50,1.44,
2.854,0.01,-0.69,-1.21,0.17,0.50,1.44,
2.856,0.01,-0.69,-1.21,0.21,0.61,1.43,
2.858,0.01,-0.69,-1.21,0.28,0.73,1.42,
2.859,0.11,-1.12,-1.80,0.28,0.73,1.42,
2.861,0.11,-1.12,-1.80,0.30,0.86,1.40,
2.864,0.11,-1.12,-1.80,0.27,0.99,1.39,
2.864,0.12,-0.95,-2.62,0.27,0.99,1.39,
2.866,0.12,-0.95,-2.62,0.24,1.12,1.40,
2.87,0.12,-0.95,-2.62,0.21,1.24,1.41,
2.871,0.13,-0.87,-2.45,0.21,1.24,1.41,
2.872,0.13,-0.87,-2.45,0.19,1.37,1.41,
2.878,0.14,-0.70,-2.07,0.19,1.37,1.41,
2.879,0.03,-0.43,-1.24,0.19,1.37,1.41,
2.879,0.03,-0.43,-1.24,0.16,1.49,1.40,
2.88,0.03,-0.43,-1.24,0.13,1.60,1.40,
2.88,0.03,-0.43,-1.24,0.10,1.68,1.40,
2.88,0.03,-0.43,-1.24,0.08,1.73,1.41,
2.883,0.03,-0.43,-1.24,0.08,1.75,1.42,
2.884,-0.17,-0.32,-0.19,0.08,1.75,1.42,
2.888,-0.17,-0.32,-0.19,0.09,1.74,1.43,
2.889,-0.17,-0.32,-0.19,0.09,1.71,1.44,
2.89,-0.43,-0.22,0.35,0.09,1.71,1.44,
2.894,-0.43,-0.22,0.35,0.09,1.67,1.47,
2.894,-0.43,-0.22,0.35,0.08,1.61,1.49,
2.894,-0.77,-0.10,0.65,0.08,1.61,1.49,
2.909,-0.77,-0.10,0.65,0.07,1.55,1.52,
2.91,-0.77,-0.10,0.65,0.05,1.47,1.55,
2.91,-1.23,-0.01,1.03,0.05,1.47,1.55,
2.91,-1.23,-0.01,1.03,0.03,1.39,1.59,
2.91,-1.23,-0.01,1.03,0.02,1.29,1.63,
2.91,-1.51,0.03,1.50,0.02,1.29,1.63,
2.911,-1.51,0.03,1.50,0.01,1.19,1.67,
2.911,-1.41,-0.05,1.94,0.01,1.19,1.67,
2.911,-1.41,-0.05,1.94,-0.00,1.09,1.70,
2.911,-1.41,-0.05,1.94,-0.01,0.98,1.74,
2.913,-1.41,-0.05,1.94,-0.03,0.88,1.77,
2.914,-1.18,-0.21,2.16,-0.03,0.88,1.77,
2.917,-1.18,-0.21,2.16,-0.04,0.78,1.79,
2.919,-1.18,-0.21,2.16,-0.05,0.69,1.82,
2.919,-1.00,-0.40,2.22,-0.05,0.69,1.82,
2.922,-1.00,-0.40,2.22,-0.06,0.61,1.83,
2.924,-1.04,-0.57,2.17,-0.06,0.61,1.83,
2.925,-1.04,-0.57,2.17,-0.07,0.55,1.85,
2.926,-1.04,-0.57,2.17,-0.08,0.51,1.86,
2.928,-1.10,-0.82,2.21,-0.08,0.51,1.86,
2.928,-1.10,-0.82,2.21,-0.09,0.48,1.87,
2.93,-1.10,-0.82,2.21,-0.09,0.45,1.89,
2.933,-1.16,-1.16,2.24,-0.09,0.45,1.89,
2.933,-1.16,-1.16,2.24,-0.08,0.40,1.91,
2.936,-1.16,-1.16,2.24,-0.07,0.36,1.92,
2.939,-1.10,-1.53,1.91,-0.07,0.36,1.92,
2.939,-1.10,-1.53,1.91,-0.07,0.31,1.94,
2.94,-1.10,-1.53,1.91,-0.07,0.26,1.95,
2.943,-1.10,-1.53,1.91,-0.08,0.21,1.96,
2.943,-1.11,-1.84,1.37,-0.08,0.21,1.96,
2.946,-1.11,-1.84,1.37,-0.09,0.17,1.97,
2.948,-1.11,-1.84,1.37,-0.10,0.11,1.99,
2.949,-1.11,-2.10,1.03,-0.10,0.11,1.99,
2.951,-1.11,-2.10,1.03,-0.12,0.06,2.01,
2.954,-1.11,-2.10,1.03,-0.13,-0.01,2.02,
2.955,-0.99,-2.41,0.82,-0.13,-0.01,2.02,
2.958,-0.99,-2.41,0.82,-0.14,-0.07,2.03,
2.959,-0.99,-2.41,0.82,-0.16,-0.14,2.04,
2.959,-0.68,-2.71,0.76,-0.16,-0.14,2.04,
2.963,-0.68,-2.71,0.76,-0.18,-0.19,2.05,
2.963,-0.68,-2.71,0.76,-0.19,-0.25,2.06,
2.964,-0.17,-3.00,0.86,-0.19,-0.25,2.06,
2.965,-0.17,-3.00,0.86,-0.21,-0.30,2.06,
2.972,0.53,-3.10,0.87,-0.21,-0.30,2.06,
2.973,0.53,-3.10,0.87,-0.22,-0.33,2.05,
2.973,0.53,-3.10,0.87,-0.23,-0.35,2.03,
2.974,0.53,-3.10,0.87,-0.25,-0.37,2.02,
2.975,1.20,-2.77,0.82,-0.25,-0.37,2.02,
2.975,1.20,-2.77,0.82,-0.27,-0.38,2.00,
2.977,1.20,-2.77,0.82,-0.28,-0.39,1.98,
2.978,1.74,-2.06,0.59,-0.28,-0.39,1.98,
2.98,1.74,-2.06,0.59,-0.30,-0.39,1.95,
2.982,1.74,-2.06,0.59,-0.31,-0.38,1.93,
2.982,1.96,-0.97,0.26,-0.31,-0.38,1.93,
2.984,1.96,-0.97,0.26,-0.31,-0.37,1.90,
2.988,1.96,-0.97,0.26,-0.31,-0.34,1.87,
2.989,1.70,0.21,-0.08,-0.31,-0.34,1.87,
2.989,1.70,0.21,-0.08,-0.31,-0.30,1.85,
2.992,1.70,0.21,-0.08,-0.30,-0.23,1.82,
2.992,0.82,1.23,-0.61,-0.30,-0.23,1.82,
2.994,0.82,1.23,-0.61,-0.30,-0.14,1.80,
2.997,0.82,1.23,-0.61,-0.29,-0.04,1.76,
2.997,-0.26,1.89,-1.53,-0.29,-0.04,1.76,
2.999,-0.26,1.89,-1.53,-0.29,0.05,1.74,
3.003,-1.18,2.13,-2.29,-0.29,0.05,1.74,
3.003,-1.18,2.13,-2.29,-0.30,0.13,1.71,
3.004,-1.18,2.13,-2.29,-0.31,0.18,1.70,
3.007,-1.18,2.13,-2.29,-0.32,0.21,1.69,
3.008,-1.64,2.08,-2.63,-0.32,0.21,1.69,
3.01,-1.64,2.08,-2.63,-0.34,0.20,1.70,
3.012,-1.64,2.08,-2.63,-0.36,0.16,1.70,
3.013,-1.42,1.66,-2.38,-0.36,0.16,1.70,
3.014,-1.42,1.66,-2.38,-0.38,0.11,1.70,
3.019,-1.42,1.66,-2.38,-0.40,0.04,1.70,
3.02,-0.63,0.80,-1.70,-0.40,0.04,1.70,
3.02,-0.63,0.80,-1.70,-0.42,-0.02,1.69,
3.024,-0.63,0.80,-1.70,-0.43,-0.09,1.66,
3.025,0.46,-0.25,-0.66,-0.43,-0.09,1.66,
3.026,0.46,-0.25,-0.66,-0.44,-0.16,1.63,
3.027,0.46,-0.25,-0.66,-0.44,-0.22,1.60,
3.027,1.47,-1.20,0.46,-0.44,-0.22,1.60,
3.029,1.47,-1.20,0.46,-0.44,-0.26,1.57,
3.032,1.47,-1.20,0.46,-0.45,-0.29,1.54,
3.033,2.36,-1.84,1.29,-0.45,-0.29,1.54,
3.036,2.36,-1.84,1.29,-0.45,-0.31,1.51,
3.038,2.36,-1.84,1.29,-0.44,-0.31,1.48,
3.039,3.03,-2.07,1.95,-0.44,-0.31,1.48,
3.04,3.03,-2.07,1.95,-0.43,-0.31,1.44,
3.043,3.03,-2.07,1.95,-0.42,-0.29,1.40,
3.044,3.15,-1.83,2.32,-0.42,-0.29,1.40,
3.045,3.15,-1.83,2.32,-0.40,-0.25,1.36,
3.047,3.15,-1.83,2.32,-0.37,-0.20,1.32,
3.047,2.53,-1.41,1.99,-0.37,-0.20,1.32,
3.05,2.53,-1.41,1.99,-0.35,-0.13,1.27,
3.056,2.53,-1.41,1.99,-0.33,-0.06,1.23,
3.057,1.43,-1.30,1.30,-0.33,-0.06,1.23,
3.057,1.43,-1.30,1.30,-0.31,0.01,1.20,
3.058,1.43,-1.30,1.30,-0.29,0.07,1.17,
3.058,0.63,-1.67,0.89,-0.29,0.07,1.17,
3.059,0.63,-1.67,0.89,-0.27,0.10,1.16,
3.09,0.63,-1.67,0.89,-0.26,0.08,1.15,
3.09,0.43,-2.03,0.78,-0.26,0.08,1.15,
3.091,0.43,-2.03,0.78,-0.24,0.03,1.14,
3.091,0.78,-2.36,0.87,-0.24,0.03,1.14,
3.092,0.78,-2.36,0.87,-0.24,-0.04,1.13,
3.092,0.78,-2.36,0.87,-0.23,-0.12,1.12,
3.092,0.78,-2.36,0.87,-0.23,-0.20,1.10,
3.093,1.41,-2.42,1.32,-0.23,-0.20,1.10,
3.093,1.41,-2.42,1.32,-0.23,-0.28,1.07,
3.093,1.41,-2.42,1.32,-0.23,-0.34,1.04,
3.094,1.97,-2.08,2.09,-0.23,-0.34,1.04,
3.094,1.97,-2.08,2.09,-0.23,-0.39,1.01,
3.094,2.33,-1.06,2.87,-0.23,-0.39,1.01,
3.094,2.33,-1.06,2.87,-0.21,-0.43,0.98,
3.095,2.33,-1.06,2.87,-0.20,-0.45,0.95,
3.095,2.42,0.47,2.90,-0.20,-0.45,0.95,
3.095,2.42,0.47,2.90,-0.17,-0.45,0.91,
3.095,2.42,0.47,2.90,-0.15,-0.44,0.87,
3.096,2.03,2.03,2.20,-0.15,-0.44,0.87,
3.096,2.03,2.03,2.20,-0.12,-0.42,0.82,
3.096,2.03,2.03,2.20,-0.09,-0.39,0.77,
3.097,2.03,2.03,2.20,-0.07,-0.37,0.73,
3.099,1.33,2.92,1.27,-0.07,-0.37,0.73,
3.099,1.33,2.92,1.27,-0.05,-0.38,0.69,
3.103,1.33,2.92,1.27,-0.04,-0.40,0.66,
3.104,0.77,3.00,0.35,-0.04,-0.40,0.66,
3.104,0.77,3.00,0.35,-0.03,-0.43,0.64,
3.106,0.77,3.00,0.35,-0.02,-0.45,0.61,
3.107,0.46,2.62,-0.16,-0.02,-0.45,0.61,
3.109,0.46,2.62,-0.16,-0.02,-0.47,0.60,
3.112,0.46,2.62,-0.16,-0.01,-0.48,0.58,
3.112,0.24,1.95,0.03,-0.01,-0.48,0.58,
3.113,0.24,1.95,0.03,0.00,-0.47,0.57,
3.116,0.24,1.95,0.03,0.02,-0.46,0.55,
3.116,0.27,1.06,0.41,0.02,-0.46,0.55,
3.119,0.27,1.06,0.41,0.04,-0.43,0.52,
3.121,0.27,1.06,0.41,0.06,-0.42,0.49,
3.122,0.82,0.06,0.91,0.06,-0.42,0.49,
3.123,0.82,0.06,0.91,0.07,-0.43,0.46,
3.126,0.82,0.06,0.91,0.09,-0.44,0.43,
3.126,1.60,-0.92,1.12,0.09,-0.44,0.43,
3.128,1.60,-0.92,1.12,0.11,-0.45,0.40,
3.131,1.99,-1.48,1.05,0.11,-0.45,0.40,
3.131,1.99,-1.48,1.05,0.13,-0.44,0.36,
3.133,1.99,-1.48,1.05,0.16,-0.42,0.33,
3.137,1.78,-1.76,0.87,0.16,-0.42,0.33,
3.138,1.78,-1.76,0.87,0.18,-0.39,0.29,
3.138,1.78,-1.76,0.87,0.20,-0.37,0.27,
3.141,1.78,-1.76,0.87,0.22,-0.35,0.25,
3.141,1.32,-1.81,0.71,0.22,-0.35,0.25,
3.143,1.32,-1.81,0.71,0.24,-0.33,0.24,
3.146,1.32,-1.81,0.71,0.26,-0.33,0.22,
3.146,0.89,-1.51,0.68,0.26,-0.33,0.22,
3.148,0.89,-1.51,0.68,0.28,-0.33,0.20,
3.154,0.53,-0.91,0.75,0.28,-0.33,0.20,
3.157,0.53,-0.91,0.75,0.29,-0.34,0.19,
3.157,0.53,-0.91,0.75,0.30,-0.34,0.18,
3.157,0.53,-0.91,0.75,0.31,-0.35,0.17,
3.161,0.23,-0.14,0.66,0.31,-0.35,0.17,
3.162,0.16,0.43,0.50,0.31,-0.35,0.17,
3.162,0.16,0.43,0.50,0.31,-0.36,0.16,
3.162,0.16,0.43,0.50,0.32,-0.36,0.15,
3.163,0.16,0.43,0.50,0.32,-0.37,0.14,
3.166,0.16,0.78,0.27,0.32,-0.37,0.14,
3.166,0.16,0.78,0.27,0.32,-0.37,0.13,
3.168,0.16,0.78,0.27,0.32,-0.36,0.13,
3.172,0.16,0.78,0.27,0.32,-0.36,0.12,
3.172,0.18,0.98,0.27,0.32,-0.36,0.12,
3.173,0.18,0.98,0.27,0.33,-0.35,0.11,
3.176,0.18,0.98,0.27,0.33,-0.33,0.10,
3.176,0.32,0.93,0.21,0.33,-0.33,0.10,
3.178,0.32,0.93,0.21,0.34,-0.32,0.09,
3.18,0.32,0.93,0.21,0.33,-0.31,0.07,
3.181,0.46,0.74,0.01,0.33,-0.31,0.07,
3.183,0.46,0.74,0.01,0.33,-0.29,0.06,
3.186,0.64,0.56,-0.02,0.33,-0.29,0.06,
3.187,0.64,0.56,-0.02,0.33,-0.28,0.05,
3.188,0.64,0.56,-0.02,0.33,-0.26,0.04,
3.19,0.74,0.38,0.18,0.33,-0.26,0.04,
3.191,0.74,0.38,0.18,0.33,-0.25,0.02,
3.193,0.74,0.38,0.18,0.34,-0.23,0.01,
3.195,0.64,0.15,0.33,0.34,-0.23,0.01,
3.195,0.64,0.15,0.33,0.34,-0.21,-0.00,
3.198,0.64,0.15,0.33,0.35,-0.18,-0.02,
3.2,0.43,-0.06,0.24,0.35,-0.18,-0.02,
3.201,0.43,-0.06,0.24,0.35,-0.16,-0.03,
3.204,0.43,-0.06,0.24,0.36,-0.13,-0.03,
3.205,0.45,-0.59,0.22,0.36,-0.13,-0.03,
3.206,0.45,-0.59,0.22,0.36,-0.11,-0.05,
3.208,0.45,-0.59,0.22,0.37,-0.10,-0.06,
3.21,0.23,-0.56,0.23,0.37,-0.10,-0.06,
3.21,0.23,-0.56,0.23,0.37,-0.09,-0.07,
3.213,0.23,-0.56,0.23,0.38,-0.08,-0.07,
3.215,-0.14,0.06,-0.29,0.38,-0.08,-0.07,
3.216,-0.14,0.06,-0.29,0.38,-0.05,-0.08,
3.218,-0.14,0.06,-0.29,0.38,-0.02,-0.08,
3.221,-0.29,0.69,-0.40,0.38,-0.02,-0.08,
3.221,-0.29,0.69,-0.40,0.38,0.00,-0.07,
3.223,-0.29,0.69,-0.40,0.38,0.02,-0.06,
3.225,-0.04,1.11,0.07,0.38,0.02,-0.06,
3.243,-0.04,1.11,0.07,0.38,0.04,-0.05,
3.243,-0.04,1.11,0.07,0.39,0.05,-0.05,
3.244,0.26,1.34,0.44,0.39,0.05,-0.05,
3.244,0.26,1.34,0.44,0.40,0.07,-0.06,
3.244,0.26,1.34,0.44,0.40,0.09,-0.06,
3.244,0.38,1.38,0.39,0.40,0.09,-0.06,
3.245,0.38,1.38,0.39,0.41,0.12,-0.07,
3.245,0.38,1.38,0.39,0.41,0.14,-0.09,
3.245,0.38,1.38,0.39,0.42,0.15,-0.10,
3.245,0.26,1.10,0.44,0.42,0.15,-0.10,
3.246,0.26,1.10,0.44,0.42,0.17,-0.11,
3.246,0.26,1.10,0.44,0.42,0.18,-0.12,
3.246,-0.01,0.79,0.45,0.42,0.18,-0.12,
3.247,-0.01,0.79,0.45,0.42,0.19,-0.12,
3.25,-0.01,0.79,0.45,0.42,0.19,-0.13,
3.25,-0.10,0.58,0.34,0.42,0.19,-0.13,
3.254,-0.10,0.58,0.34,0.42,0.19,-0.13,
3.255,-0.10,0.58,0.34,0.42,0.20,-0.13,
3.255,-0.16,0.57,0.07,0.42,0.20,-0.13,
3.257,-0.16,0.57,0.07,0.41,0.20,-0.14,
3.26,-0.16,0.57,0.07,0.41,0.20,-0.15,
3.26,-0.24,0.64,-0.13,0.41,0.20,-0.15,
3.262,-0.24,0.64,-0.13,0.41,0.20,-0.15,
3.265,-0.24,0.64,-0.13,0.40,0.19,-0.15,
3.265,-0.32,0.69,-0.25,0.40,0.19,-0.15,
3.267,-0.32,0.69,-0.25,0.40,0.19,-0.14,
3.274,-0.19,0.62,-0.27,0.40,0.19,-0.14,
3.274,-0.19,0.62,-0.27,0.40,0.20,-0.14,
3.275,-0.19,0.62,-0.27,0.39,0.20,-0.14,
3.275,-0.19,0.62,-0.27,0.39,0.22,-0.14,
3.276,0.12,0.48,-0.38,0.39,0.22,-0.14,
3.277,0.12,0.48,-0.38,0.39,0.24,-0.14,
3.282,0.38,0.40,-0.62,0.39,0.24,-0.14,
3.283,0.38,0.40,-0.62,0.38,0.27,-0.15,
3.283,0.38,0.40,-0.62,0.37,0.30,-0.16,
3.293,0.51,0.35,-0.73,0.37,0.30,-0.16,
3.294,0.51,0.35,-0.73,0.37,0.33,-0.17,
3.294,0.51,0.35,-0.73,0.37,0.37,-0.18,
3.294,0.51,0.35,-0.73,0.37,0.40,-0.20,
3.295,0.51,0.28,-0.86,0.37,0.40,-0.20,
3.295,0.51,0.28,-0.86,0.37,0.43,-0.20,
3.295,0.49,0.10,-0.80,0.37,0.43,-0.20,
3.296,0.49,0.10,-0.80,0.36,0.46,-0.21,
3.297,0.49,0.10,-0.80,0.36,0.48,-0.22,
3.3,0.47,-0.05,-0.52,0.36,0.48,-0.22,
3.3,0.47,-0.05,-0.52,0.36,0.49,-0.24,
3.303,0.47,-0.05,-0.52,0.36,0.50,-0.25,
3.306,0.47,-0.05,-0.52,0.35,0.50,-0.26,
3.306,0.25,-0.24,-0.35,0.35,0.50,-0.26,
3.307,0.25,-0.24,-0.35,0.35,0.50,-0.27,
3.309,0.25,-0.24,-0.35,0.35,0.50,-0.28,
3.31,-0.13,-0.43,-0.41,0.35,0.50,-0.28,
3.312,-0.13,-0.43,-0.41,0.35,0.50,-0.28,
3.314,-0.13,-0.43,-0.41,0.34,0.50,-0.27,
3.314,-0.43,-0.60,-0.44,0.34,0.50,-0.27,
3.317,-0.43,-0.60,-0.44,0.34,0.50,-0.26,
3.32,-0.43,-0.60,-0.44,0.34,0.49,-0.26,
3.32,-0.57,-0.74,-0.41,0.34,0.49,-0.26,
3.322,-0.57,-0.74,-0.41,0.34,0.48,-0.25,
3.324,-0.57,-0.74,-0.41,0.34,0.48,-0.24,
3.325,-0.59,-0.89,-0.65,0.34,0.48,-0.24,
3.327,-0.59,-0.89,-0.65,0.34,0.48,-0.23,
3.329,-0.59,-0.89,-0.65,0.33,0.48,-0.23,
3.329,-0.63,-0.94,-0.85,0.33,0.48,-0.23,
3.331,-0.63,-0.94,-0.85,0.32,0.48,-0.22,
3.336,-0.63,-0.94,-0.85,0.31,0.48,-0.22,
3.336,-0.67,-0.75,-0.68,0.31,0.48,-0.22,
3.337,-0.67,-0.75,-0.68,0.30,0.47,-0.21,
3.339,-0.67,-0.75,-0.68,0.28,0.47,-0.20,
3.34,-0.68,-0.41,-0.40,0.28,0.47,-0.20,
3.341,-0.68,-0.41,-0.40,0.27,0.46,-0.20,
3.344,-0.64,0.03,-0.42,0.27,0.46,-0.20,
3.344,-0.64,0.03,-0.42,0.25,0.46,-0.20,
3.346,-0.64,0.03,-0.42,0.24,0.45,-0.19,
3.349,-0.64,0.03,-0.42,0.23,0.45,-0.19,
3.349,-0.55,0.41,-0.58,0.23,0.45,-0.19,
3.352,-0.55,0.41,-0.58,0.21,0.45,-0.18,
3.355,-0.55,0.41,-0.58,0.20,0.45,-0.18,
3.355,-0.43,0.53,-0.72,0.20,0.45,-0.18,
3.357,-0.43,0.53,-0.72,0.20,0.45,-0.18,
3.359,-0.43,0.53,-0.72,0.20,0.47,-0.18,
3.36,-0.18,0.42,-1.08,0.20,0.47,-0.18,
3.361,-0.18,0.42,-1.08,0.19,0.49,-0.18,
3.364,-0.18,0.42,-1.08,0.19,0.56,-0.19,
3.365,1.68,0.50,-1.43,0.19,0.56,-0.19,
3.367,1.68,0.50,-1.43,0.19,0.62,-0.21,
3.374,1.68,0.50,-1.43,0.19,0.66,-0.24,
3.374,1.38,0.44,-1.38,0.19,0.66,-0.24,
3.374,1.38,0.44,-1.38,0.19,0.73,-0.25,
3.375,1.38,0.44,-1.38,0.17,0.82,-0.24,
3.375,-0.18,0.67,-1.83,0.17,0.82,-0.24,
3.38,-0.18,0.67,-1.83,0.16,0.91,-0.21,
3.384,-1.27,0.65,-0.58,0.16,0.91,-0.21,
3.384,-1.27,0.65,-0.58,0.15,0.96,-0.19,
3.385,-1.27,0.65,-0.58,0.14,1.00,-0.17,
3.385,-1.27,0.65,-0.58,0.13,1.04,-0.15,
3.403,-1.96,0.80,-0.67,0.13,1.04,-0.15,
3.403,-1.96,0.80,-0.67,0.11,1.09,-0.12,
3.404,-1.80,1.29,-0.86,0.11,1.09,-0.12,
3.404,-0.57,1.67,-0.16,0.11,1.09,-0.12,
3.422,-0.57,1.67,-0.16,0.10,1.15,-0.09,
3.422,-0.57,1.67,-0.16,0.08,1.16,-0.09,
3.422,-0.57,1.67,-0.16,0.09,1.07,-0.11,
3.423,-0.57,1.67,-0.16,0.07,0.91,-0.13,
3.423,-0.57,1.67,-0.16,0.06,0.70,-0.16,
3.424,-0.37,0.56,0.10,0.06,0.70,-0.16,
3.424,-0.37,0.56,0.10,0.03,0.43,-0.19,
3.424,-0.37,0.56,0.10,0.02,0.11,-0.22,
3.425,-0.83,-1.81,1.33,0.02,0.11,-0.22,
3.425,-0.83,-1.81,1.33,0.02,-0.12,-0.20,
3.426,-0.83,-1.81,1.33,0.02,0.10,-0.07,
3.426,-5.32,0.03,-2.08,0.02,0.10,-0.07,
3.426,-5.32,0.03,-2.08,-0.01,0.41,0.05,
3.427,-5.32,0.03,-2.08,-0.02,0.50,0.09,
3.427,-2.63,0.98,-0.47,-0.02,0.50,0.09,
3.428,-2.63,0.98,-0.47,-0.01,0.56,0.12,
3.428,-2.63,0.98,-0.47,-0.01,0.60,0.14,
3.428,-1.59,1.08,0.25,-0.01,0.60,0.14,
3.429,-1.59,1.08,0.25,-0.01,0.60,0.13,
3.429,-1.59,1.08,0.25,0.00,0.60,0.09,
3.43,0.85,0.15,0.82,0.00,0.60,0.09,
3.43,0.85,0.15,0.82,0.03,0.57,0.06,
3.43,0.85,0.15,0.82,0.04,0.45,0.04,
3.431,0.41,-1.49,2.38,0.04,0.45,0.04,
3.431,0.41,-1.49,2.38,0.03,0.23,0.03,
3.434,0.41,-1.49,2.38,-0.00,0.12,0.01,
3.435,-0.04,-1.01,0.51,-0.00,0.12,0.01,
3.436,-0.04,-1.01,0.51,-0.03,0.15,-0.01,
3.445,-0.04,-1.01,0.51,-0.03,0.10,-0.02,
3.445,-1.22,-0.77,1.82,-0.03,0.10,-0.02,
3.445,-1.22,-0.77,1.82,-0.06,-0.01,-0.03,
3.446,-1.22,-0.77,1.82,-0.09,-0.03,0.01,
3.446,-2.73,0.34,1.20,-0.09,-0.03,0.01,
3.447,-2.73,0.34,1.20,-0.09,-0.01,0.07,
3.448,-2.73,0.34,1.20,-0.08,-0.08,0.13,
3.448,-2.02,-1.15,3.53,-0.08,-0.08,0.13,
3.45,-2.02,-1.15,3.53,-0.07,-0.33,0.07,
3.459,-0.24,1.34,-1.83,-0.07,-0.33,0.07,
3.46,-0.24,1.34,-1.83,-0.15,-0.42,0.02,
3.46,-0.24,1.34,-1.83,-0.23,-0.25,0.03,
3.46,-0.24,1.34,-1.83,-0.29,-0.09,0.07,
3.46,-1.16,4.61,-3.29,-0.29,-0.09,0.07,
3.461,-1.16,4.61,-3.29,-0.29,0.01,0.11,
3.463,-1.16,4.61,-3.29,-0.19,0.02,0.16,
3.463,-1.16,4.36,3.08,-0.19,0.02,0.16,
3.465,-1.16,4.36,3.08,-0.12,0.11,0.21,
3.468,-0.65,1.69,0.70,-0.12,0.11,0.21,
3.469,-0.65,1.69,0.70,-0.06,0.19,0.23,
3.471,-0.65,1.69,0.70,-0.07,0.25,0.23,
3.473,-0.54,0.01,-1.81,-0.07,0.25,0.23,
3.473,-0.54,0.01,-1.81,-0.11,0.30,0.22,
3.475,-0.54,0.01,-1.81,-0.15,0.28,0.23,
3.479,-1.45,-0.44,0.11,-0.15,0.28,0.23,
3.479,-1.45,-0.44,0.11,-0.18,0.21,0.24,
3.481,-1.45,-0.44,0.11,-0.20,0.18,0.26,
3.484,-1.45,-0.44,0.11,-0.19,0.19,0.29,
3.484,-2.19,-0.23,-0.64,-0.19,0.19,0.29,
3.486,-2.19,-0.23,-0.64,-0.20,0.19,0.31,
3.488,-2.19,-0.23,-0.64,-0.22,0.13,0.31,
3.489,-1.69,-0.16,-1.31,-0.22,0.13,0.31,
3.491,-1.69,-0.16,-1.31,-0.27,0.07,0.30,
3.493,-1.69,-0.16,-1.31,-0.34,0.08,0.32,
3.493,-2.18,0.81,-3.41,-0.34,0.08,0.32,
3.495,-2.18,0.81,-3.41,-0.39,0.13,0.37,
3.498,-2.18,0.81,-3.41,-0.41,0.18,0.43,
3.498,-2.95,2.01,-2.13,-0.41,0.18,0.43,
3.5,-2.95,2.01,-2.13,-0.40,0.23,0.50,
3.504,-3.08,2.65,-1.54,-0.40,0.23,0.50,
3.505,-3.08,2.65,-1.54,-0.38,0.29,0.56,
3.506,-3.08,2.65,-1.54,-0.37,0.36,0.62,
3.507,-3.08,2.65,-1.54,-0.38,0.42,0.67,
3.508,-3.05,2.49,-2.97,-0.38,0.42,0.67,
3.51,-3.05,2.49,-2.97,-0.41,0.44,0.71,
3.513,-3.05,2.49,-2.97,-0.44,0.44,0.76,
3.513,-3.19,2.03,-3.00,-0.44,0.44,0.76,
3.515,-3.19,2.03,-3.00,-0.47,0.41,0.80,
3.518,-3.19,2.03,-3.00,-0.49,0.38,0.85,
3.518,-3.41,1.57,-1.63,-0.49,0.38,0.85,
3.52,-3.41,1.57,-1.63,-0.50,0.35,0.89,
3.523,-3.41,1.57,-1.63,-0.51,0.34,0.93,
3.523,-3.41,1.01,-1.33,-0.51,0.34,0.93,
3.525,-3.41,1.01,-1.33,-0.53,0.34,0.97,
3.527,-3.41,1.01,-1.33,-0.55,0.35,1.01,
3.528,-3.27,1.06,-1.34,-0.55,0.35,1.01,
3.53,-3.27,1.06,-1.34,-0.57,0.34,1.04,
3.533,-3.27,1.06,-1.34,-0.59,0.33,1.08,
3.533,-3.10,1.57,-0.16,-0.59,0.33,1.08,
3.536,-3.10,1.57,-0.16,-0.61,0.31,1.11,
3.538,-3.10,1.57,-0.16,-0.62,0.29,1.14,
3.539,-2.99,1.88,0.50,-0.62,0.29,1.14,
3.54,-2.99,1.88,0.50,-0.63,0.26,1.17,
3.543,-2.99,1.88,0.50,-0.64,0.24,1.20,
3.543,-2.94,2.03,-0.07,-0.64,0.24,1.20,
3.555,-2.74,2.05,-0.79,-0.64,0.24,1.20,
3.556,-2.74,2.05,-0.79,-0.66,0.23,1.23,
3.556,-2.74,2.05,-0.79,-0.67,0.23,1.25,
3.556,-2.74,2.05,-0.79,-0.69,0.22,1.25,
3.556,-2.74,2.05,-0.79,-0.70,0.21,1.26,
3.556,-2.55,2.16,-0.25,-0.70,0.21,1.26,
3.556,-2.55,2.16,-0.25,-0.71,0.19,1.27,
3.576,-2.55,2.16,-0.25,-0.73,0.17,1.27,
3.576,-2.25,2.34,0.30,-0.73,0.17,1.27,
3.576,-2.25,2.34,0.30,-0.75,0.14,1.27,
3.576,-1.94,2.69,0.14,-0.75,0.14,1.27,
3.576,-1.94,2.69,0.14,-0.78,0.11,1.26,
3.577,-1.93,3.20,0.37,-0.78,0.11,1.26,
3.577,-1.93,3.20,0.37,-0.81,0.08,1.26,
3.577,-1.93,3.20,0.37,-0.83,0.04,1.26,
3.578,-1.93,3.20,0.37,-0.85,0.01,1.27,
3.578,-1.89,3.57,0.24,-0.85,0.01,1.27,
3.578,-1.89,3.57,0.24,-0.86,-0.00,1.27,
3.578,-1.89,3.57,0.24,-0.86,0.00,1.28,
3.579,-1.89,3.57,0.24,-0.87,0.02,1.28,
3.579,-1.44,3.86,-0.37,-0.87,0.02,1.28,
3.59,-1.44,3.86,-0.37,-0.88,0.05,1.27,
3.59,-1.44,3.86,-0.37,-0.89,0.08,1.26,
3.59,-0.78,4.26,-0.49,-0.89,0.08,1.26,
3.591,-0.78,4.26,-0.49,-0.90,0.10,1.23,
3.591,-0.78,4.26,-0.49,-0.91,0.14,1.21,
3.591,-0.22,4.68,-0.39,-0.91,0.14,1.21,
3.591,-0.22,4.68,-0.39,-0.93,0.18,1.18,
3.594,-0.22,4.68,-0.39,-0.94,0.23,1.14,
3.594,-0.04,5.06,-0.72,-0.94,0.23,1.14,
3.595,-0.04,5.06,-0.72,-0.96,0.30,1.11,
3.597,-0.04,5.06,-0.72,-0.97,0.37,1.09,
3.597,-0.14,5.21,-0.73,-0.97,0.37,1.09,
3.599,-0.14,5.21,-0.73,-0.97,0.45,1.06,
3.602,-0.14,5.21,-0.73,-0.98,0.53,1.02,
3.602,-0.41,5.23,-0.73,-0.98,0.53,1.02,
3.605,-0.41,5.23,-0.73,-0.98,0.62,0.99,
3.607,-0.41,5.23,-0.73,-0.99,0.70,0.96,
3.607,-1.07,4.98,-1.09,-0.99,0.70,0.96,
3.609,-1.07,4.98,-1.09,-1.00,0.78,0.94,
3.612,-1.07,4.98,-1.09,-1.01,0.84,0.92,
3.612,-1.94,4.65,-1.56,-1.01,0.84,0.92,
3.614,-1.94,4.65,-1.56,-1.02,0.89,0.89,
3.617,-2.79,4.64,-1.53,-1.02,0.89,0.89,
3.617,-2.79,4.64,-1.53,-1.02,0.92,0.87,
3.62,-2.79,4.64,-1.53,-1.02,0.93,0.84,
3.622,-2.79,4.64,-1.53,-1.01,0.91,0.82,
3.622,-3.67,5.01,-0.81,-1.01,0.91,0.82,
3.624,-3.67,5.01,-0.81,-1.01,0.88,0.80,
3.627,-3.67,5.01,-0.81,-1.02,0.84,0.79,
3.628,-4.50,5.54,0.66,-1.02,0.84,0.79,
3.63,-4.50,5.54,0.66,-1.04,0.79,0.78,
3.632,-4.50,5.54,0.66,-1.07,0.75,0.77,
3.633,-5.34,5.75,1.52,-1.07,0.75,0.77,
3.635,-5.34,5.75,1.52,-1.10,0.73,0.75,
3.639,-5.34,5.75,1.52,-1.14,0.74,0.74,
3.639,-6.38,5.83,-0.26,-1.14,0.74,0.74,
3.64,-6.38,5.83,-0.26,-1.18,0.75,0.72,
3.641,-7.42,5.92,-2.25,-1.18,0.75,0.72,
3.642,-7.42,5.92,-2.25,-1.22,0.76,0.71,
3.644,-7.42,5.92,-2.25,-1.26,0.74,0.70,
3.646,-7.42,5.92,-2.25,-1.28,0.71,0.69,
3.647,-8.19,6.16,-3.74,-1.28,0.71,0.69,
3.649,-8.19,6.16,-3.74,-1.31,0.66,0.70,
3.651,-8.19,6.16,-3.74,-1.33,0.62,0.71,
3.652,-8.76,6.72,-5.49,-1.33,0.62,0.71,
3.658,-8.76,6.72,-5.49,-1.35,0.58,0.73,
3.658,-8.76,6.72,-5.49,-1.37,0.53,0.77,
3.659,-9.20,7.56,-6.63,-1.37,0.53,0.77,
3.659,-9.20,7.56,-6.63,-1.39,0.48,0.82,
3.664,-9.57,8.45,-6.97,-1.39,0.48,0.82,
3.665,-9.57,8.45,-6.97,-1.40,0.43,0.88,
3.665,-9.57,8.45,-6.97,-1.40,0.39,0.95,
3.667,-9.57,8.45,-6.97,-1.39,0.35,1.04,
3.679,-9.75,9.09,-6.08,-1.39,0.35,1.04,
3.68,-9.75,9.09,-6.08,-1.38,0.31,1.14,
3.68,-8.99,8.96,-4.72,-1.38,0.31,1.14,
3.681,-8.99,8.96,-4.72,-1.36,0.27,1.22,
3.681,-8.99,8.96,-4.72,-1.34,0.21,1.30,
3.681,-8.99,8.96,-4.72,-1.33,0.14,1.35,
3.681,-7.79,8.11,-4.44,-1.33,0.14,1.35,
3.682,-7.79,8.11,-4.44,-1.32,0.07,1.40,
3.682,-7.07,6.96,-5.08,-1.32,0.07,1.40,
3.682,-7.07,6.96,-5.08,-1.32,0.01,1.43,
3.684,-7.07,6.96,-5.08,-1.32,-0.04,1.46,
3.686,-7.07,6.96,-5.08,-1.32,-0.09,1.50,
3.687,-6.98,5.99,-5.48,-1.32,-0.09,1.50,
3.691,-6.98,5.99,-5.48,-1.31,-0.13,1.56,
3.691,-6.98,5.99,-5.48,-1.30,-0.17,1.63,
3.692,-6.84,5.42,-5.24,-1.30,-0.17,1.63,
3.694,-6.84,5.42,-5.24,-1.29,-0.20,1.71,
3.696,-6.36,5.18,-4.98,-1.29,-0.20,1.71,
3.696,-6.36,5.18,-4.98,-1.26,-0.21,1.79,
3.698,-6.36,5.18,-4.98,-1.23,-0.20,1.87,
3.701,-6.36,5.18,-4.98,-1.20,-0.17,1.96,
3.701,-5.48,5.47,-4.74,-1.20,-0.17,1.96,
3.704,-5.48,5.47,-4.74,-1.19,-0.12,2.03,
3.706,-5.48,5.47,-4.74,-1.19,-0.07,2.10,
3.706,-4.39,6.12,-4.47,-1.19,-0.07,2.10,
3.711,-4.39,6.12,-4.47,-1.19,-0.03,2.16,
3.711,-3.46,7.04,-3.92,-1.19,-0.03,2.16,
3.711,-3.46,7.04,-3.92,-1.20,-0.01,2.24,
3.714,-3.46,7.04,-3.92,-1.21,-0.02,2.32,
3.716,-2.57,8.36,-2.76,-1.21,-0.02,2.32,
3.716,-2.57,8.36,-2.76,-1.23,-0.05,2.44,
3.719,-2.57,8.36,-2.76,-1.19,-0.10,2.57,
3.722,-2.57,8.36,-2.76,-1.14,-0.16,2.71,
3.755,-1.41,9.33,-1.50,-1.14,-0.16,2.71,
3.755,-1.41,9.33,-1.50,-1.08,-0.23,2.83,
3.755,-0.36,9.40,-1.66,-1.08,-0.23,2.83,
3.756,-0.36,9.40,-1.66,-1.01,-0.30,2.91,
3.756,-0.36,9.40,-1.66,-0.96,-0.35,2.94,
3.756,-0.36,9.40,-1.66,-0.94,-0.37,2.96,
3.756,-0.68,8.79,-3.95,-0.94,-0.37,2.96,
3.757,-0.68,8.79,-3.95,-0.94,-0.37,2.98,
3.757,-0.68,8.79,-3.95,-0.97,-0.35,3.03,
3.757,-1.94,8.63,-6.51,-0.97,-0.35,3.03,
3.757,-1.94,8.63,-6.51,-1.03,-0.30,3.13,
3.758,-1.94,8.63,-6.51,-1.11,-0.24,3.26,
3.758,-2.49,9.08,-6.81,-1.11,-0.24,3.26,
3.758,-2.49,9.08,-6.81,-1.19,-0.14,3.41,
3.759,-1.62,9.01,-4.85,-1.19,-0.14,3.41,
3.759,-1.62,9.01,-4.85,-1.29,0.04,3.58,
3.759,-1.62,9.01,-4.85,-1.32,0.31,3.78,
3.759,-1.62,9.01,-4.85,-1.30,0.60,3.99,
3.759,1.20,7.70,-0.92,-1.30,0.60,3.99,
3.76,1.20,7.70,-0.92,-1.25,0.84,4.19,
3.76,1.20,7.70,-0.92,-1.17,0.99,4.35,
3.76,4.51,8.23,2.45,-1.17,0.99,4.35,
3.76,4.51,8.23,2.45,-1.08,1.11,4.45,
3.761,4.51,8.23,2.45,-1.02,1.26,4.48,
3.761,6.12,8.30,0.62,-1.02,1.26,4.48,
3.763,6.12,8.30,0.62,-1.00,1.48,4.41,
3.766,6.12,8.30,0.62,-1.03,1.78,4.26,
3.767,6.71,8.04,-4.07,-1.03,1.78,4.26,
3.769,6.71,8.04,-4.07,-1.11,2.12,4.08,
3.777,5.87,10.53,-6.93,-1.11,2.12,4.08,
3.778,5.87,10.53,-6.93,-1.20,2.45,3.89,
3.778,5.87,10.53,-6.93,-1.33,2.74,3.72,
3.778,5.87,10.53,-6.93,-1.46,2.97,3.58,
3.784,4.09,13.28,-7.00,-1.46,2.97,3.58,
3.784,2.80,15.06,-5.15,-1.46,2.97,3.58,
3.785,2.80,15.06,-5.15,-1.59,3.14,3.45,
3.785,2.80,15.06,-5.15,-1.70,3.27,3.33,
3.785,2.80,15.06,-5.15,-1.77,3.39,3.20,
3.789,2.80,15.06,-5.15,-1.81,3.50,3.08,
3.789,1.38,15.30,-2.67,-1.81,3.50,3.08,
3.789,1.38,15.30,-2.67,-1.83,3.61,2.96,
3.791,1.38,15.30,-2.67,-1.83,3.72,2.87,
3.792,-0.56,13.67,-0.95,-1.83,3.72,2.87,
3.793,-0.56,13.67,-0.95,-1.81,3.80,2.81,
3.795,-0.56,13.67,-0.95,-1.79,3.87,2.75,
3.795,-1.78,11.41,0.16,-1.79,3.87,2.75,
3.797,-1.78,11.41,0.16,-1.76,3.92,2.70,
3.8,-2.57,9.59,0.71,-1.76,3.92,2.70,
3.8,-2.57,9.59,0.71,-1.73,3.95,2.66,
3.804,-2.57,9.59,0.71,-1.69,3.94,2.62,
3.806,-2.57,9.59,0.71,-1.66,3.91,2.59,
3.806,-3.63,7.78,0.92,-1.66,3.91,2.59,
3.807,-3.63,7.78,0.92,-1.64,3.85,2.57,
3.811,-3.63,7.78,0.92,-1.61,3.74,2.56,
3.811,-4.70,6.27,1.16,-1.61,3.74,2.56,
3.812,-4.70,6.27,1.16,-1.59,3.61,2.55,
3.815,-4.70,6.27,1.16,-1.57,3.44,2.54,
3.815,-5.37,5.51,1.31,-1.57,3.44,2.54,
3.817,-5.37,5.51,1.31,-1.55,3.26,2.53,
3.82,-5.37,5.51,1.31,-1.53,3.05,2.51,
3.821,-5.46,5.35,1.39,-1.53,3.05,2.51,
3.822,-5.46,5.35,1.39,-1.51,2.83,2.49,
3.825,-5.46,5.35,1.39,-1.48,2.60,2.47,
3.825,-5.22,5.54,1.44,-1.48,2.60,2.47,
3.827,-5.22,5.54,1.44,-1.46,2.37,2.44,
3.83,-5.22,5.54,1.44,-1.43,2.14,2.41,
3.83,-5.06,5.54,1.29,-1.43,2.14,2.41,
3.832,-5.06,5.54,1.29,-1.40,1.93,2.37,
3.835,-4.84,5.00,0.98,-1.40,1.93,2.37,
3.835,-4.84,5.00,0.98,-1.37,1.73,2.33,
3.839,-4.84,5.00,0.98,-1.34,1.54,2.28,
3.841,-4.84,5.00,0.98,-1.31,1.37,2.23,
3.841,-4.66,4.21,0.85,-1.31,1.37,2.23,
3.843,-4.66,4.21,0.85,-1.27,1.22,2.18,
3.846,-4.50,3.38,0.91,-1.27,1.22,2.18,
3.846,-4.50,3.38,0.91,-1.23,1.08,2.12,
3.847,-4.50,3.38,0.91,-1.19,0.95,2.07,
3.85,-4.50,3.38,0.91,-1.14,0.83,2.01,
3.85,-4.46,2.53,1.05,-1.14,0.83,2.01,
3.865,-4.46,2.53,1.05,-1.09,0.72,1.96,
3.866,-4.46,2.53,1.05,-1.04,0.62,1.91,
3.866,-4.45,1.68,1.19,-1.04,0.62,1.91,
3.867,-4.45,1.68,1.19,-0.99,0.53,1.85,
3.867,-4.22,0.85,1.23,-0.99,0.53,1.85,
3.868,-4.22,0.85,1.23,-0.93,0.44,1.80,
3.869,-4.22,0.85,1.23,-0.88,0.35,1.73,
3.87,-4.00,0.16,1.20,-0.88,0.35,1.73,
3.877,-4.00,0.16,1.20,-0.83,0.27,1.66,
3.877,-4.00,0.16,1.20,-0.77,0.19,1.59,
3.877,-4.00,0.16,1.20,-0.71,0.11,1.51,
3.878,-3.84,-0.38,1.22,-0.71,0.11,1.51,
3.878,-3.84,-0.38,1.22,-0.65,0.03,1.43,
3.879,-3.84,-0.38,1.22,-0.59,-0.05,1.34,
3.879,-3.87,-0.79,1.26,-0.59,-0.05,1.34,
3.879,-3.87,-0.79,1.26,-0.54,-0.13,1.27,
3.88,-3.87,-0.79,1.26,-0.48,-0.21,1.19,
3.88,-3.97,-1.12,1.22,-0.48,-0.21,1.19,
3.882,-3.97,-1.12,1.22,-0.42,-0.28,1.11,
3.886,-3.97,-1.12,1.22,-0.36,-0.35,1.03,
3.886,-4.06,-1.48,1.14,-0.36,-0.35,1.03,
3.901,-4.06,-1.48,1.14,-0.29,-0.42,0.95,
3.901,-4.06,-1.48,1.14,-0.23,-0.48,0.87,
3.901,-4.11,-1.78,1.09,-0.23,-0.48,0.87,
3.901,-4.11,-1.78,1.09,-0.18,-0.55,0.80,
3.902,-4.16,-2.10,1.04,-0.18,-0.55,0.80,
3.902,-4.16,-2.10,1.04,-0.12,-0.62,0.72,
3.902,-4.16,-2.10,1.04,-0.06,-0.69,0.65,
3.902,-3.85,-2.46,0.93,-0.06,-0.69,0.65,
3.903,-3.85,-2.46,0.93,-0.01,-0.75,0.57,
3.903,-3.85,-2.46,0.93,0.03,-0.81,0.48,
3.908,-3.48,-2.77,0.86,0.03,-0.81,0.48,
3.91,-3.17,-2.93,0.94,0.03,-0.81,0.48,
3.91,-3.17,-2.93,0.94,0.07,-0.86,0.39,
3.911,-3.17,-2.93,0.94,0.12,-0.91,0.29,
3.911,-3.17,-2.93,0.94,0.15,-0.96,0.20,
3.914,-2.83,-3.06,0.99,0.15,-0.96,0.20,
3.915,-2.83,-3.06,0.99,0.19,-1.01,0.10,
3.915,-2.83,-3.06,0.99,0.22,-1.06,0.00,
3.917,-2.83,-3.06,0.99,0.26,-1.09,-0.09,
3.919,-2.50,-3.11,1.01,0.26,-1.09,-0.09,
3.921,-2.50,-3.11,1.01,0.29,-1.13,-0.19,
3.922,-2.50,-3.11,1.01,0.33,-1.15,-0.29,
3.924,-2.50,-3.11,1.01,0.37,-1.18,-0.39,
3.924,-2.33,-3.16,0.94,0.37,-1.18,-0.39,
3.926,-2.33,-3.16,0.94,0.41,-1.21,-0.49,
3.929,-2.33,-3.16,0.94,0.45,-1.24,-0.59,
3.929,-2.39,-3.21,0.83,0.45,-1.24,-0.59,
3.932,-2.39,-3.21,0.83,0.49,-1.27,-0.68,
3.936,-2.57,-3.28,0.66,0.49,-1.27,-0.68,
3.936,-2.57,-3.28,0.66,0.53,-1.31,-0.77,
3.937,-2.57,-3.28,0.66,0.57,-1.33,-0.87,
3.94,-2.57,-3.28,0.66,0.61,-1.35,-0.96,
3.94,-2.77,-3.40,0.29,0.61,-1.35,-0.96,
3.942,-2.77,-3.40,0.29,0.65,-1.36,-1.06,
3.944,-2.77,-3.40,0.29,0.68,-1.36,-1.15,
3.944,-2.88,-3.61,-0.16,0.68,-1.36,-1.15,
3.946,-2.88,-3.61,-0.16,0.71,-1.36,-1.25,
3.952,-2.88,-3.61,-0.16,0.74,-1.35,-1.34,
3.953,-2.88,-3.61,-0.16,0.76,-1.33,-1.43,
3.953,-2.97,-3.83,-0.51,0.76,-1.33,-1.43,
3.963,-3.04,-4.02,-0.76,0.76,-1.33,-1.43,
3.964,-3.04,-4.02,-0.76,0.78,-1.31,-1.53,
3.964,-3.04,-4.02,-0.76,0.80,-1.29,-1.62,
3.965,-3.01,-4.25,-0.97,0.80,-1.29,-1.62,
3.965,-3.01,-4.25,-0.97,0.83,-1.26,-1.70,
3.965,-3.01,-4.25,-0.97,0.85,-1.23,-1.79,
3.965,-2.82,-4.56,-1.16,0.85,-1.23,-1.79,
3.97,-2.52,-4.87,-1.28,0.85,-1.23,-1.79,
3.97,-2.52,-4.87,-1.28,0.87,-1.19,-1.88,
3.971,-2.52,-4.87,-1.28,0.89,-1.15,-1.96,
3.971,-2.52,-4.87,-1.28,0.92,-1.11,-2.05,
3.971,-2.52,-4.87,-1.28,0.95,-1.08,-2.14,
3.978,-2.52,-4.87,-1.28,0.97,-1.04,-2.23,
3.978,-2.20,-5.17,-1.40,0.97,-1.04,-2.23,
3.979,-2.20,-5.17,-1.40,1.00,-1.01,-2.32,
3.979,-2.20,-5.17,-1.40,1.02,-0.98,-2.41,
3.979,-1.81,-5.38,-1.59,1.02,-0.98,-2.41,
3.981,-1.81,-5.38,-1.59,1.05,-0.94,-2.50,
3.983,-1.81,-5.38,-1.59,1.07,-0.90,-2.60,
3.984,-1.59,-5.50,-1.83,1.07,-0.90,-2.60,
3.988,-1.59,-5.50,-1.83,1.09,-0.85,-2.69,
3.989,-1.58,-5.59,-2.02,1.09,-0.85,-2.69,
3.989,-1.58,-5.59,-2.02,1.11,-0.80,-2.79,
3.991,-1.58,-5.59,-2.02,1.13,-0.74,-2.88,
3.994,-1.77,-5.64,-2.12,1.13,-0.74,-2.88,
3.995,-1.77,-5.64,-2.12,1.15,-0.69,-2.97,
3.997,-1.77,-5.64,-2.12,1.17,-0.63,-3.07,
3.998,-1.77,-5.64,-2.12,1.19,-0.57,-3.16,
3.998,-2.18,-5.67,-2.17,1.19,-0.57,-3.16,
4.001,-2.18,-5.67,-2.17,1.20,-0.51,-3.24,
4.005,-2.67,-5.71,-2.10,1.20,-0.51,-3.24,
4.005,-2.67,-5.71,-2.10,1.22,-0.45,-3.32,
4.006,-2.67,-5.71,-2.10,1.24,-0.39,-3.40,
4.009,-2.67,-5.71,-2.10,1.27,-0.34,-3.47,
4.009,-3.16,-5.74,-1.89,1.27,-0.34,-3.47,
4.011,-3.16,-5.74,-1.89,1.29,-0.31,-3.53,
4.013,-3.16,-5.74,-1.89,1.31,-0.28,-3.59,
4.014,-3.49,-5.82,-1.66,1.31,-0.28,-3.59,
4.016,-3.49,-5.82,-1.66,1.34,-0.26,-3.65,
4.018,-3.49,-5.82,-1.66,1.36,-0.26,-3.69,
4.019,-3.69,-5.87,-1.30,1.36,-0.26,-3.69,
4.021,-3.69,-5.87,-1.30,1.38,-0.27,-3.74,
4.023,-3.69,-5.87,-1.30,1.41,-0.29,-3.77,
4.024,-3.67,-6.03,-0.86,1.41,-0.29,-3.77,
4.026,-3.67,-6.03,-0.86,1.44,-0.31,-3.81,
4.028,-3.67,-6.03,-0.86,1.47,-0.32,-3.83,
4.028,-3.48,-6.28,-0.53,1.47,-0.32,-3.83,
4.031,-3.48,-6.28,-0.53,1.50,-0.32,-3.86,
4.033,-3.48,-6.28,-0.53,1.54,-0.33,-3.89,
4.034,-3.02,-6.63,-0.43,1.54,-0.33,-3.89,
4.036,-3.02,-6.63,-0.43,1.57,-0.32,-3.93,
4.039,-3.02,-6.63,-0.43,1.60,-0.31,-3.97,
4.04,-2.46,-6.97,-0.52,1.60,-0.31,-3.97,
4.041,-2.46,-6.97,-0.52,1.63,-0.30,-4.03,
4.043,-2.00,-7.21,-0.72,1.63,-0.30,-4.03,
4.044,-2.00,-7.21,-0.72,1.66,-0.27,-4.09,
4.046,-2.00,-7.21,-0.72,1.68,-0.23,-4.16,
4.048,-2.00,-7.21,-0.72,1.70,-0.18,-4.23,
4.048,-1.89,-7.20,-0.89,1.70,-0.18,-4.23,
4.05,-1.89,-7.20,-0.89,1.73,-0.13,-4.31,
4.073,-1.89,-7.20,-0.89,1.75,-0.07,-4.38,
4.074,-2.17,-7.02,-1.01,1.75,-0.07,-4.38,
4.074,-2.17,-7.02,-1.01,1.77,-0.02,-4.46,
4.074,-2.65,-6.80,-0.97,1.77,-0.02,-4.46,
4.074,-2.65,-6.80,-0.97,1.78,0.04,-4.52,
4.075,-2.65,-6.80,-0.97,1.81,0.09,-4.58,
4.075,-2.65,-6.80,-0.97,1.83,0.12,-4.63,
4.075,-3.22,-6.65,-0.88,1.83,0.12,-4.63,
4.076,-3.22,-6.65,-0.88,1.84,0.15,-4.67,
4.076,-3.22,-6.65,-0.88,1.86,0.16,-4.70,
4.076,-3.71,-6.64,-0.73,1.86,0.16,-4.70,
4.076,-3.71,-6.64,-0.73,1.87,0.16,-4.73,
4.077,-3.71,-6.64,-0.73,1.89,0.15,-4.74,
4.077,-4.03,-6.79,-0.56,1.89,0.15,-4.74,
4.077,-4.03,-6.79,-0.56,1.90,0.12,-4.76,
4.085,-4.03,-6.79,-0.56,1.91,0.09,-4.76,
4.085,-3.93,-7.03,-0.31,1.91,0.09,-4.76,
4.086,-3.93,-7.03,-0.31,1.92,0.06,-4.77,
4.086,-3.70,-7.21,0.02,1.92,0.06,-4.77,
4.087,-3.70,-7.21,0.02,1.93,0.02,-4.77,
4.087,-3.70,-7.21,0.02,1.94,-0.02,-4.77,
4.097,-3.70,-7.21,0.02,1.95,-0.06,-4.78,
4.098,-3.07,-7.33,0.27,1.95,-0.06,-4.78,
4.098,-3.07,-7.33,0.27,1.97,-0.09,-4.78,
4.099,-3.07,-7.33,0.27,1.98,-0.12,-4.79,
4.099,-2.29,-7.34,0.41,1.98,-0.12,-4.79,
4.099,-2.29,-7.34,0.41,1.99,-0.14,-4.81,
4.1,-2.29,-7.34,0.41,2.01,-0.15,-4.83,
4.1,-1.61,-7.22,0.48,2.01,-0.15,-4.83,
4.1,-1.61,-7.22,0.48,2.02,-0.16,-4.84,
4.103,-1.08,-6.98,0.55,2.02,-0.16,-4.84,
4.104,-1.08,-6.98,0.55,2.04,-0.17,-4.86,
4.106,-1.08,-6.98,0.55,2.06,-0.17,-4.87,
4.109,-1.08,-6.98,0.55,2.08,-0.18,-4.89,
4.109,-0.52,-6.37,0.66,2.08,-0.18,-4.89,
4.11,-0.52,-6.37,0.66,2.11,-0.19,-4.90,
4.113,-0.56,-6.70,0.44,2.11,-0.19,-4.90,
4.114,-0.56,-6.70,0.44,2.13,-0.18,-4.91,
4.114,-0.56,-6.70,0.44,2.14,-0.15,-4.91,
4.117,-0.56,-6.70,0.44,2.15,-0.11,-4.90,
4.117,-0.86,-7.10,-0.00,2.15,-0.11,-4.90,
4.12,-0.86,-7.10,-0.00,2.16,-0.09,-4.88,
4.122,-0.86,-7.10,-0.00,2.16,-0.08,-4.87,
4.123,-0.39,-6.90,0.03,2.16,-0.08,-4.87,
4.124,-0.39,-6.90,0.03,2.17,-0.08,-4.86,
4.127,-0.39,-6.90,0.03,2.19,-0.07,-4.86,
4.127,0.35,-6.53,0.21,2.19,-0.07,-4.86,
4.129,0.35,-6.53,0.21,2.21,-0.04,-4.86,
4.133,0.35,-6.53,0.21,2.22,-0.01,-4.85,
4.133,1.04,-6.15,0.24,2.22,-0.01,-4.85,
4.135,1.04,-6.15,0.24,2.25,0.03,-4.84,
4.137,1.04,-6.15,0.24,2.27,0.07,-4.81,
4.137,0.54,-5.86,0.12,2.27,0.07,-4.81,
4.14,0.54,-5.86,0.12,2.29,0.10,-4.77,
4.143,1.42,-5.29,0.34,2.29,0.10,-4.77,
4.143,1.42,-5.29,0.34,2.31,0.12,-4.74,
4.144,1.42,-5.29,0.34,2.32,0.13,-4.73,
4.147,1.42,-5.29,0.34,2.34,0.13,-4.71,
4.147,2.28,-4.82,0.46,2.34,0.13,-4.71,
4.149,2.28,-4.82,0.46,2.36,0.15,-4.69,
4.152,2.28,-4.82,0.46,2.37,0.18,-4.66,
4.152,2.62,-4.62,0.47,2.37,0.18,-4.66,
4.162,2.62,-4.62,0.47,2.38,0.21,-4.62,
4.163,2.98,-4.62,0.70,2.38,0.21,-4.62,
4.163,2.98,-4.62,0.70,2.39,0.25,-4.58,
4.163,2.98,-4.62,0.70,2.40,0.28,-4.55,
4.164,2.98,-4.62,0.70,2.40,0.30,-4.51,
4.164,3.08,-4.64,1.19,2.40,0.30,-4.51,
4.164,3.08,-4.64,1.19,2.42,0.31,-4.47,
4.167,3.21,-4.49,1.69,2.42,0.31,-4.47,
4.168,3.21,-4.49,1.69,2.43,0.32,-4.42,
4.18,3.23,-4.41,2.19,2.43,0.32,-4.42,
4.18,3.23,-4.41,2.19,2.44,0.32,-4.38,
4.18,3.23,-4.41,2.19,2.45,0.30,-4.33,
4.181,3.23,-4.41,2.19,2.46,0.25,-4.25,
4.181,2.73,-4.84,2.66,2.46,0.25,-4.25,
4.181,2.73,-4.84,2.66,2.47,0.19,-4.16,
4.182,2.73,-4.84,2.66,2.48,0.14,-4.09,
4.182,3.78,-4.03,3.11,2.48,0.14,-4.09,
4.182,3.78,-4.03,3.11,2.49,0.09,-4.04,
4.184,3.78,-4.03,3.11,2.51,0.04,-4.00,
4.187,4.51,-3.23,3.26,2.51,0.04,-4.00,
4.188,4.51,-3.23,3.26,2.52,-0.02,-3.95,
4.192,4.51,-3.23,3.26,2.53,-0.06,-3.89,
4.192,5.25,-2.86,3.14,2.53,-0.06,-3.89,
4.193,5.25,-2.86,3.14,2.53,-0.10,-3.82,
4.194,5.25,-2.86,3.14,2.52,-0.11,-3.76,
4.197,5.25,-2.86,3.14,2.51,-0.11,-3.70,
4.197,5.91,-2.61,2.99,2.51,-0.11,-3.70,
4.199,5.91,-2.61,2.99,2.49,-0.10,-3.64,
4.202,5.91,-2.61,2.99,2.46,-0.07,-3.57,
4.202,6.50,-2.32,3.02,2.46,-0.07,-3.57,
4.204,6.50,-2.32,3.02,2.44,-0.03,-3.50,
4.207,6.50,-2.32,3.02,2.41,0.01,-3.43,
4.207,7.10,-1.84,3.17,2.41,0.01,-3.43,
4.209,7.10,-1.84,3.17,2.38,0.05,-3.37,
4.211,7.10,-1.84,3.17,2.34,0.08,-3.30,
4.212,7.58,-1.11,3.44,2.34,0.08,-3.30,
4.214,7.58,-1.11,3.44,2.31,0.11,-3.23,
4.217,7.77,-0.53,3.67,2.31,0.11,-3.23,
4.236,7.77,-0.53,3.67,2.28,0.12,-3.16,
4.236,7.77,-0.53,3.67,2.24,0.13,-3.09,
4.237,7.78,0.00,3.83,2.24,0.13,-3.09,
4.237,7.78,0.00,3.83,2.20,0.14,-3.01,
4.237,7.78,0.00,3.83,2.15,0.13,-2.93,
4.238,7.78,0.00,3.83,2.10,0.12,-2.85,
4.238,7.43,0.52,4.16,2.10,0.12,-2.85,
4.238,7.43,0.52,4.16,2.06,0.10,-2.75,
4.239,7.43,0.52,4.16,2.01,0.07,-2.65,
4.239,7.10,0.78,4.48,2.01,0.07,-2.65,
4.239,7.10,0.78,4.48,1.95,0.05,-2.56,
4.24,7.10,0.78,4.48,1.90,0.02,-2.47,
4.24,7.10,1.02,4.80,1.90,0.02,-2.47,
4.24,7.10,1.02,4.80,1.84,-0.01,-2.37,
4.243,7.28,1.38,5.36,1.84,-0.01,-2.37,
4.244,7.28,1.38,5.36,1.78,-0.06,-2.27,
4.245,7.28,1.38,5.36,1.72,-0.13,-2.17,
4.248,7.67,1.73,5.86,1.72,-0.13,-2.17,
4.248,7.67,1.73,5.86,1.66,-0.20,-2.06,
4.249,7.67,1.73,5.86,1.60,-0.28,-1.95,
4.251,7.67,1.73,5.86,1.53,-0.33,-1.85,
4.252,8.22,1.99,5.87,1.53,-0.33,-1.85,
4.255,8.22,1.99,5.87,1.46,-0.37,-1.76,
4.257,8.22,1.99,5.87,1.38,-0.40,-1.67,
4.257,8.69,2.34,5.45,1.38,-0.40,-1.67,
4.258,8.69,2.34,5.45,1.30,-0.41,-1.57,
4.261,8.69,2.34,5.45,1.22,-0.43,-1.47,
4.261,8.95,2.77,4.99,1.22,-0.43,-1.47,
4.263,8.95,2.77,4.99,1.14,-0.44,-1.37,
4.266,8.95,2.77,4.99,1.06,-0.46,-1.26,
4.266,9.09,3.25,4.72,1.06,-0.46,-1.26,
4.268,9.09,3.25,4.72,0.97,-0.48,-1.15,
4.273,9.09,3.25,4.72,0.90,-0.49,-1.04,
4.273,9.26,3.64,4.56,0.90,-0.49,-1.04,
4.273,9.26,3.64,4.56,0.82,-0.51,-0.93,
4.276,9.26,3.64,4.56,0.75,-0.53,-0.81,
4.277,9.37,3.89,4.46,0.75,-0.53,-0.81,
4.282,9.37,3.89,4.46,0.68,-0.54,-0.69,
4.282,9.37,3.89,4.46,0.61,-0.55,-0.58,
4.282,9.40,4.01,4.25,0.61,-0.55,-0.58,
4.283,9.40,4.01,4.25,0.54,-0.55,-0.46,
4.286,9.40,4.01,4.25,0.46,-0.54,-0.34,
4.286,9.40,3.97,3.93,0.46,-0.54,-0.34,
4.288,9.40,3.97,3.93,0.39,-0.53,-0.23,
4.291,9.40,3.97,3.93,0.31,-0.52,-0.11,
4.291,9.31,3.86,3.72,0.31,-0.52,-0.11,
4.293,9.31,3.86,3.72,0.23,-0.50,0.01,
4.296,9.31,3.86,3.72,0.15,-0.47,0.12,
4.296,9.22,3.64,3.77,0.15,-0.47,0.12,
4.298,9.22,3.64,3.77,0.07,-0.45,0.23,
4.301,9.22,3.64,3.77,0.00,-0.42,0.34,
4.302,9.22,3.26,3.91,0.00,-0.42,0.34,
4.304,9.22,3.26,3.91,-0.07,-0.40,0.44,
4.306,9.30,2.77,3.93,-0.07,-0.40,0.44,
4.306,9.30,2.77,3.93,-0.13,-0.38,0.53,
4.308,9.30,2.77,3.93,-0.19,-0.35,0.62,
4.311,9.30,2.77,3.93,-0.25,-0.32,0.71,
4.312,9.34,2.20,3.75,-0.25,-0.32,0.71,
4.314,9.34,2.20,3.75,-0.31,-0.30,0.79,
4.316,9.34,2.20,3.75,-0.37,-0.28,0.87,
4.316,9.26,1.57,3.50,-0.37,-0.28,0.87,
4.318,9.26,1.57,3.50,-0.43,-0.25,0.94,
4.321,9.26,1.57,3.50,-0.48,-0.23,1.02,
4.322,8.91,1.03,3.34,-0.48,-0.23,1.02,
4.323,8.91,1.03,3.34,-0.53,-0.21,1.09,
4.325,8.91,1.03,3.34,-0.58,-0.19,1.16,
4.326,8.35,0.57,3.22,-0.58,-0.19,1.16,
4.328,8.35,0.57,3.22,-0.62,-0.16,1.23,
4.33,8.35,0.57,3.22,-0.66,-0.14,1.30,
4.331,7.60,0.28,3.24,-0.66,-0.14,1.30,
4.333,7.60,0.28,3.24,-0.69,-0.12,1.37,
4.336,7.60,0.28,3.24,-0.71,-0.10,1.45,
4.336,6.94,-0.03,3.25,-0.71,-0.10,1.45,
4.338,6.94,-0.03,3.25,-0.73,-0.08,1.52,
4.341,6.74,-0.68,3.28,-0.73,-0.08,1.52,
4.341,6.74,-0.68,3.28,-0.74,-0.06,1.58,
4.343,6.74,-0.68,3.28,-0.75,-0.04,1.64,
4.345,6.74,-0.68,3.28,-0.75,-0.03,1.70,
4.346,6.65,-1.56,3.35,-0.75,-0.03,1.70,
4.348,6.65,-1.56,3.35,-0.71,-0.01,1.75,
4.35,6.65,-1.56,3.35,-0.57,0.03,1.75,
4.351,6.73,-2.31,2.40,-0.57,0.03,1.75,
4.359,6.73,-2.31,2.40,-0.46,0.11,1.65,
4.36,6.02,-2.32,-2.51,-0.46,0.11,1.65,
4.36,6.02,-2.32,-2.51,-0.44,0.21,1.45,
4.36,6.02,-2.32,-2.51,-0.54,0.34,1.17,
4.361,6.02,-2.32,-2.51,-0.67,0.49,0.79,
4.362,4.08,0.32,-7.87,-0.67,0.49,0.79,
4.368,0.92,5.05,-9.92,-0.67,0.49,0.79,
4.369,0.92,5.05,-9.92,-0.82,0.64,0.27,
4.37,0.92,5.05,-9.92,-0.94,0.73,-0.35,
4.37,0.92,5.05,-9.92,-0.93,0.74,-1.00,
4.377,0.92,5.05,-9.92,-0.68,0.66,-1.51,
4.378,-5.72,12.23,-5.12,-0.68,0.66,-1.51,
4.378,-5.72,12.23,-5.12,-0.42,0.48,-1.80,
4.379,-5.72,12.23,-5.12,-0.20,0.15,-1.73,
4.379,-12.18,21.96,-3.01,-0.20,0.15,-1.73,
4.38,-12.18,21.96,-3.01,-0.00,-0.46,-1.20,
4.381,-20.35,27.73,1.05,-0.00,-0.46,-1.20,
4.382,-20.35,27.73,1.05,-0.02,-1.34,-0.22,
4.408,-20.35,27.73,1.05,-0.34,-2.34,1.06,
4.408,-20.35,27.73,1.05,-0.74,-3.22,2.46,
4.409,-22.74,27.81,0.72,-0.74,-3.22,2.46,
4.409,-22.74,27.81,0.72,-1.21,-3.72,3.82,
4.41,-18.17,25.07,5.20,-1.21,-3.72,3.82,
4.41,-18.17,25.07,5.20,-1.65,-3.62,4.93,
4.411,-18.17,25.07,5.20,-1.92,-2.86,5.53,
4.411,-0.87,13.89,10.17,-1.92,-2.86,5.53,
4.411,-0.87,13.89,10.17,-1.96,-1.67,5.57,
4.412,-0.87,13.89,10.17,-1.77,-0.40,5.24,
4.412,-0.87,13.89,10.17,-1.39,0.67,4.69,
4.412,10.83,4.10,13.47,-1.39,0.67,4.69,
4.413,10.83,4.10,13.47,-0.92,1.37,4.05,
4.413,15.86,-2.22,11.12,-0.92,1.37,4.05,
4.413,15.86,-2.22,11.12,-0.47,1.58,3.45,
4.414,15.86,-2.22,11.12,-0.11,1.36,2.94,
4.414,15.86,-2.22,11.12,0.13,0.86,2.55,
4.414,14.74,-5.14,4.77,0.13,0.86,2.55,
4.415,14.74,-5.14,4.77,0.26,0.25,2.27,
4.415,14.74,-5.14,4.77,0.30,-0.30,2.07,
4.415,11.40,-7.41,-0.52,0.30,-0.30,2.07,
4.417,11.40,-7.41,-0.52,0.27,-0.66,1.91,
4.42,11.40,-7.41,-0.52,0.19,-0.86,1.77,
4.421,8.18,-10.49,-2.47,0.19,-0.86,1.77,
4.422,8.18,-10.49,-2.47,0.08,-0.89,1.64,
4.425,8.18,-10.49,-2.47,-0.05,-0.74,1.55,
4.425,4.55,-13.10,-1.85,-0.05,-0.74,1.55,
4.427,4.55,-13.10,-1.85,-0.20,-0.51,1.50,
4.43,4.55,-13.10,-1.85,-0.35,-0.28,1.53,
4.43,-0.76,-13.63,-1.01,-0.35,-0.28,1.53,
4.432,-0.76,-13.63,-1.01,-0.52,-0.05,1.63,
4.434,-0.76,-13.63,-1.01,-0.68,0.18,1.76,
4.435,-3.31,-11.75,-1.40,-0.68,0.18,1.76,
4.437,-3.31,-11.75,-1.40,-0.83,0.37,1.89,
4.44,-3.31,-11.75,-1.40,-0.93,0.53,2.01,
4.44,-2.44,-7.52,-0.35,-0.93,0.53,2.01,
4.442,-2.44,-7.52,-0.35,-0.97,0.62,2.09,
4.445,-2.44,-7.52,-0.35,-0.96,0.64,2.13,
4.445,-0.23,-3.18,2.33,-0.96,0.64,2.13,
4.448,-0.23,-3.18,2.33,-0.91,0.58,2.14,
4.45,-0.23,-3.18,2.33,-0.85,0.46,2.11,
4.45,1.26,-0.27,4.61,-0.85,0.46,2.11,
4.452,1.26,-0.27,4.61,-0.77,0.28,2.06,
4.455,1.26,-0.27,4.61,-0.69,0.08,2.01,
4.456,2.00,1.83,5.32,-0.69,0.08,2.01,
4.459,2.00,1.83,5.32,-0.62,-0.14,1.94,
4.461,2.00,1.83,5.32,-0.56,-0.35,1.89,
4.461,2.41,3.69,4.70,-0.56,-0.35,1.89,
4.461,2.41,3.69,4.70,-0.49,-0.57,1.85,
4.465,2.41,3.69,4.70,-0.43,-0.76,1.82,
4.465,2.89,4.94,3.33,-0.43,-0.76,1.82,
4.467,2.89,4.94,3.33,-0.37,-0.89,1.77,
4.469,2.89,4.94,3.33,-0.32,-0.97,1.71,
4.469,3.89,5.28,1.63,-0.32,-0.97,1.71,
4.472,3.89,5.28,1.63,-0.27,-0.99,1.63,
4.479,3.89,5.28,1.63,-0.23,-0.96,1.54,
4.479,4.16,4.76,0.13,-0.23,-0.96,1.54,
4.48,4.16,4.76,0.13,-0.21,-0.87,1.46,
4.48,4.16,4.76,0.13,-0.20,-0.73,1.38,
4.481,3.78,3.37,-0.88,-0.20,-0.73,1.38,
4.487,3.78,3.37,-0.88,-0.19,-0.55,1.32,
4.488,3.78,3.37,-0.88,-0.19,-0.34,1.26,
4.488,3.05,1.41,-1.01,-0.19,-0.34,1.26,
4.488,3.05,1.41,-1.01,-0.19,-0.14,1.22,
4.493,3.05,1.41,-1.01,-0.19,0.03,1.19,
4.494,2.42,-0.32,-0.33,-0.19,0.03,1.19,
4.494,2.42,-0.32,-0.33,-0.17,0.16,1.17,
4.494,2.42,-0.32,-0.33,-0.16,0.23,1.15,
4.494,1.92,-1.64,0.49,-0.16,0.23,1.15,
4.497,1.92,-1.64,0.49,-0.15,0.25,1.13,
4.499,1.92,-1.64,0.49,-0.14,0.23,1.11,
4.499,1.16,-2.28,1.13,-0.14,0.23,1.11,
4.501,1.16,-2.28,1.13,-0.14,0.18,1.09,
4.504,1.16,-2.28,1.13,-0.13,0.13,1.07,
4.505,0.23,-2.33,1.61,-0.13,0.13,1.07,
4.509,0.23,-2.33,1.61,-0.12,0.07,1.06,
4.51,-0.40,-2.06,1.78,-0.12,0.07,1.06,
4.51,-0.40,-2.06,1.78,-0.11,0.01,1.06,
4.513,-0.40,-2.06,1.78,-0.10,-0.06,1.05,
4.515,-0.45,-1.62,1.46,-0.10,-0.06,1.05,
4.515,-0.45,-1.62,1.46,-0.08,-0.11,1.05,
4.517,-0.45,-1.62,1.46,-0.07,-0.16,1.04,
4.519,-0.01,-1.15,0.80,-0.07,-0.16,1.04,
4.52,-0.01,-1.15,0.80,-0.05,-0.20,1.03,
4.529,-0.01,-1.15,0.80,-0.04,-0.24,1.01,
4.529,-0.01,-1.15,0.80,-0.04,-0.28,0.98,
4.53,0.68,-0.69,-0.01,-0.04,-0.28,0.98,
4.53,0.68,-0.69,-0.01,-0.03,-0.31,0.94,
4.53,1.35,-0.33,-0.88,-0.03,-0.31,0.94,
4.531,1.35,-0.33,-0.88,-0.04,-0.35,0.90,
4.531,1.35,-0.33,-0.88,-0.05,-0.37,0.85,
4.535,1.72,-0.06,-1.46,-0.05,-0.37,0.85,
4.536,1.72,-0.06,-1.46,-0.07,-0.37,0.81,
4.536,1.72,-0.06,-1.46,-0.10,-0.36,0.77,
4.54,1.72,-0.06,-1.46,-0.12,-0.32,0.73,
4.541,1.73,0.17,-1.37,-0.12,-0.32,0.73,
4.541,1.73,0.17,-1.37,-0.14,-0.25,0.70,
4.544,1.73,0.17,-1.37,-0.15,-0.17,0.68,
4.544,1.55,0.28,-0.57,-0.15,-0.17,0.68,
4.546,1.55,0.28,-0.57,-0.14,-0.08,0.66,
4.564,1.55,0.28,-0.57,-0.12,0.00,0.63,
4.564,1.48,0.16,0.51,-0.12,0.00,0.63,
4.565,1.48,0.16,0.51,-0.10,0.07,0.60,
4.565,1.48,0.16,0.51,-0.07,0.12,0.57,
4.565,1.44,-0.06,1.22,-0.07,0.12,0.57,
4.565,1.44,-0.06,1.22,-0.04,0.14,0.54,
4.566,1.44,-0.06,1.22,-0.01,0.15,0.51,
4.566,1.30,-0.21,1.33,-0.01,0.15,0.51,
4.566,1.30,-0.21,1.33,0.01,0.14,0.48,
4.566,1.30,-0.21,1.33,0.02,0.14,0.46,
4.567,0.96,-0.30,1.01,0.02,0.14,0.46,
4.567,0.96,-0.30,1.01,0.03,0.14,0.44,
4.573,0.96,-0.30,1.01,0.04,0.14,0.42,
4.575,0.52,-0.33,0.77,0.04,0.14,0.42,
4.578,0.52,-0.33,0.77,0.05,0.14,0.41,
4.578,0.52,-0.33,0.77,0.06,0.12,0.39,
4.579,0.34,-1.21,1.12,0.06,0.12,0.39,
4.579,0.34,-1.21,1.12,0.07,0.06,0.35,
4.584,0.26,-1.41,1.69,0.07,0.06,0.35,
4.585,0.26,-1.41,1.69,0.09,-0.01,0.32,
4.585,0.26,-1.41,1.69,0.11,-0.04,0.32,
4.585,-0.34,-0.09,1.10,0.11,-0.04,0.32,
4.585,-0.34,-0.09,1.10,0.13,-0.02,0.34,
4.591,-0.76,0.68,1.11,0.13,-0.02,0.34,
4.592,-0.76,0.68,1.11,0.15,0.01,0.36,
4.592,-0.76,0.68,1.11,0.17,0.03,0.38,
4.594,-0.76,0.68,1.11,0.19,0.01,0.39,
4.595,-0.95,0.56,1.35,0.19,0.01,0.39,
4.595,-0.95,0.56,1.35,0.21,-0.03,0.40,
4.597,-0.95,0.56,1.35,0.23,-0.08,0.40,
4.599,-1.02,0.33,1.03,0.23,-0.08,0.40,
4.6,-1.02,0.33,1.03,0.25,-0.12,0.41,
4.6,-1.02,0.33,1.03,0.26,-0.16,0.42,
4.604,-1.02,0.33,1.03,0.26,-0.18,0.42,
4.605,-0.71,0.02,0.55,0.26,-0.18,0.42,
4.606,-0.71,0.02,0.55,0.26,-0.21,0.42,
4.608,-0.71,0.02,0.55,0.26,-0.23,0.42,
4.608,-0.25,-0.30,0.35,0.26,-0.23,0.42,
4.61,-0.25,-0.30,0.35,0.26,-0.25,0.42,
4.613,-0.25,-0.30,0.35,0.25,-0.26,0.41,
4.614,0.26,-0.36,0.28,0.25,-0.26,0.41,
4.615,0.26,-0.36,0.28,0.25,-0.27,0.40,
4.618,0.88,-0.29,0.15,0.25,-0.27,0.40,
4.618,0.88,-0.29,0.15,0.24,-0.25,0.39,
4.622,0.88,-0.29,0.15,0.24,-0.23,0.37,
4.623,0.88,-0.29,0.15,0.24,-0.20,0.35,
4.624,1.35,-0.13,-0.04,0.24,-0.20,0.35,
4.625,1.35,-0.13,-0.04,0.23,-0.16,0.32,
4.628,1.35,-0.13,-0.04,0.23,-0.12,0.29,
4.628,1.58,0.08,-0.29,0.23,-0.12,0.29,
4.63,1.58,0.08,-0.29,0.23,-0.07,0.26,
4.633,1.58,0.08,-0.29,0.22,-0.01,0.23,
4.634,1.59,0.25,-0.47,0.22,-0.01,0.23,
4.635,1.59,0.25,-0.47,0.22,0.03,0.20,
4.638,1.40,0.29,-0.47,0.22,0.03,0.20,
4.639,1.40,0.29,-0.47,0.22,0.07,0.17,
4.641,1.40,0.29,-0.47,0.22,0.10,0.14,
4.643,1.40,0.29,-0.47,0.21,0.13,0.11,
4.643,0.99,0.26,-0.41,0.21,0.13,0.11,
4.645,0.99,0.26,-0.41,0.21,0.15,0.10,
4.649,0.99,0.26,-0.41,0.21,0.17,0.09,
4.649,0.24,0.51,-0.33,0.21,0.17,0.09,
4.65,0.24,0.51,-0.33,0.20,0.19,0.09,
4.653,0.15,0.24,-0.17,0.20,0.19,0.09,
4.654,0.15,0.24,-0.17,0.20,0.20,0.08,
4.657,0.15,0.24,-0.17,0.20,0.20,0.07,
4.664,0.15,0.24,-0.17,0.19,0.17,0.05,
4.664,0.23,-0.49,0.26,0.19,0.17,0.05,
4.665,0.23,-0.49,0.26,0.20,0.13,0.03,
4.665,0.23,-0.49,0.26,0.19,0.09,0.01,
4.666,0.06,-0.63,0.46,0.19,0.09,0.01,
4.667,0.06,-0.63,0.46,0.20,0.06,0.01,
4.668,0.06,-0.63,0.46,0.19,0.03,0.01,
4.669,-0.14,-0.40,0.29,0.19,0.03,0.01,
4.683,-0.14,-0.40,0.29,0.19,-0.00,0.00,
4.683,-0.14,-0.40,0.29,0.19,-0.02,0.00,
4.684,-0.20,-0.07,0.15,0.19,-0.02,0.00,
4.684,-0.20,-0.07,0.15,0.18,-0.04,0.01,
4.684,-0.20,-0.07,0.15,0.18,-0.06,0.01,
4.684,-0.08,0.11,0.05,0.18,-0.06,0.01,
4.685,-0.08,0.11,0.05,0.18,-0.07,0.00,
4.685,-0.08,0.11,0.05,0.17,-0.07,-0.00,
4.685,0.09,0.12,-0.01,0.17,-0.07,-0.00,
4.685,0.09,0.12,-0.01,0.17,-0.06,-0.01,
4.688,0.19,0.04,-0.02,0.17,-0.06,-0.01,
4.688,0.19,0.04,-0.02,0.17,-0.05,-0.01,
4.694,0.19,0.04,-0.02,0.17,-0.03,-0.02,
4.694,0.19,0.04,-0.02,0.17,-0.02,-0.03,
4.694,0.22,-0.04,0.08,0.17,-0.02,-0.03,
4.695,0.22,-0.04,0.08,0.18,-0.01,-0.04,
4.697,0.22,-0.04,0.08,0.19,-0.01,-0.05,
4.698,0.10,-0.06,0.06,0.19,-0.01,-0.05,
4.699,0.10,-0.06,0.06,0.19,-0.01,-0.07,
4.702,0.10,-0.06,0.06,0.19,-0.01,-0.07,
4.703,-0.25,0.04,-0.06,0.19,-0.01,-0.07,
4.705,-0.25,0.04,-0.06,0.19,-0.01,-0.07,
4.708,-0.64,0.18,-0.21,0.19,-0.01,-0.07,
4.708,-0.64,0.18,-0.21,0.18,-0.01,-0.07,
4.711,-0.64,0.18,-0.21,0.18,0.00,-0.07,
4.713,-0.64,0.18,-0.21,0.17,0.03,-0.06,
4.735,-0.91,0.14,-0.45,0.17,0.03,-0.06,
4.735,-0.91,0.14,-0.45,0.16,0.05,-0.04,
4.736,-0.91,0.14,-0.45,0.16,0.05,-0.04,
4.736,-0.89,0.07,-0.07,0.16,0.05,-0.04,
4.736,-0.89,0.07,-0.07,0.16,0.03,-0.02,
4.736,-0.89,0.07,-0.07,0.16,0.02,-0.02,
4.737,-0.90,0.17,0.03,0.16,0.02,-0.02,
4.737,-0.90,0.17,0.03,0.16,0.01,-0.01,
4.737,-0.90,0.17,0.03,0.15,0.01,-0.00,
4.737,-0.86,0.16,0.10,0.15,0.01,-0.00,
4.738,-0.86,0.16,0.10,0.15,0.01,0.01,
4.738,-0.86,0.16,0.10,0.15,0.01,0.01,
4.738,-0.61,0.06,0.09,0.15,0.01,0.01,
4.738,-0.61,0.06,0.09,0.15,0.01,0.01,
4.739,-0.61,0.06,0.09,0.16,0.00,0.02,
4.739,-0.65,0.11,0.10,0.16,0.00,0.02,
4.74,-0.65,0.11,0.10,0.16,-0.00,0.02,
4.743,-0.79,0.05,-0.31,0.16,-0.00,0.02,
4.745,-0.79,0.05,-0.31,0.16,0.01,0.03,
4.746,-0.79,0.05,-0.31,0.15,0.04,0.03,
4.748,-0.79,0.05,-0.31,0.14,0.05,0.04,
4.748,-1.10,-0.07,-0.39,0.14,0.05,0.04,
4.75,-1.10,-0.07,-0.39,0.13,0.04,0.05,
4.752,-1.16,0.08,0.08,0.13,0.04,0.05,
4.753,-1.16,0.08,0.08,0.14,0.02,0.06,
4.757,-1.16,0.08,0.08,0.14,0.01,0.07,
4.758,-1.16,0.08,0.08,0.14,-0.01,0.08,
4.758,-1.15,0.03,0.17,0.14,-0.01,0.08,
4.759,-1.15,0.03,0.17,0.13,-0.01,0.09,
4.762,-1.15,0.03,0.17,0.13,-0.00,0.11,
4.762,-0.99,-0.07,0.15,0.13,-0.00,0.11,
4.765,-0.99,-0.07,0.15,0.13,0.01,0.12,
4.767,-0.99,-0.07,0.15,0.13,0.02,0.12,
4.767,-0.53,-0.25,0.18,0.13,0.02,0.12,
4.769,-0.53,-0.25,0.18,0.13,0.04,0.12,
4.779,-0.19,-0.58,0.42,0.13,0.04,0.12,
4.78,-0.19,-0.58,0.42,0.13,0.05,0.11,
4.78,-0.19,-0.58,0.42,0.14,0.02,0.11,
4.781,-0.55,-0.19,0.71,0.14,0.02,0.11,
4.781,-0.55,-0.19,0.71,0.15,-0.01,0.10,
4.782,-0.55,-0.19,0.71,0.16,-0.01,0.11,
4.782,-1.34,1.03,-0.08,0.16,-0.01,0.11,
4.782,-1.34,1.03,-0.08,0.16,0.02,0.13,
4.788,-1.60,1.25,-0.50,0.16,0.02,0.13,
4.789,-1.60,1.25,-0.50,0.15,0.07,0.16,
4.79,-1.60,1.25,-0.50,0.14,0.12,0.19,
4.79,-1.60,1.25,-0.50,0.13,0.15,0.22,
4.797,-1.15,0.48,-0.26,0.13,0.15,0.22,
4.797,-1.15,0.48,-0.26,0.13,0.18,0.24,
4.798,-1.15,0.48,-0.26,0.13,0.21,0.26,
4.798,-0.37,-0.02,-0.15,0.13,0.21,0.26,
4.798,-0.37,-0.02,-0.15,0.13,0.24,0.25,
4.799,-0.37,-0.02,-0.15,0.13,0.27,0.25,
4.802,0.12,0.14,-0.51,0.13,0.27,0.25,
4.802,0.12,0.14,-0.51,0.12,0.30,0.23,
4.805,0.12,0.14,-0.51,0.12,0.34,0.22,
4.809,0.36,0.45,-0.47,0.12,0.34,0.22,
4.809,0.36,0.45,-0.47,0.11,0.39,0.20,
4.809,0.36,0.45,-0.47,0.11,0.41,0.18,
4.811,0.36,0.45,-0.47,0.11,0.39,0.17,
4.812,0.15,0.72,-0.67,0.11,0.39,0.17,
4.813,0.15,0.72,-0.67,0.10,0.48,0.17,
4.816,0.15,0.72,-0.67,0.07,0.80,0.22,
4.816,-1.82,1.79,-4.15,0.07,0.80,0.22,
4.819,-1.82,1.79,-4.15,0.03,1.11,0.28,
4.821,-1.82,1.79,-4.15,0.02,1.23,0.34,
4.822,-1.92,2.60,-2.49,0.02,1.23,0.34,
4.824,-1.92,2.60,-2.49,0.01,1.21,0.38,
4.826,-1.92,2.60,-2.49,0.03,1.14,0.39,
4.826,-2.06,1.93,-0.29,0.03,1.14,0.39,
4.828,-2.06,1.93,-0.29,0.04,0.98,0.38,
4.831,-2.06,1.93,-0.29,0.04,0.75,0.37,
4.831,-3.06,0.51,-0.64,0.04,0.75,0.37,
4.834,-3.06,0.51,-0.64,0.03,0.53,0.39,
4.836,-3.06,0.51,-0.64,0.03,0.41,0.42,
4.837,-5.14,-1.43,-1.15,0.03,0.41,0.42,
4.839,-5.14,-1.43,-1.15,0.04,0.38,0.45,
4.842,-5.14,-1.43,-1.15,0.04,0.36,0.47,
4.842,-4.82,-2.93,-0.54,0.04,0.36,0.47,
4.844,-4.82,-2.93,-0.54,0.04,0.30,0.51,
4.846,-4.82,-2.93,-0.54,0.02,0.23,0.57,
4.846,-4.84,-3.03,-0.60,0.02,0.23,0.57,
4.849,-4.84,-3.03,-0.60,-0.01,0.16,0.63,
4.851,-4.84,-3.03,-0.60,-0.05,0.11,0.67,
4.851,-3.41,-0.96,-1.86,-0.05,0.11,0.67,
4.853,-3.41,-0.96,-1.86,-0.09,0.13,0.71,
4.856,-3.41,-0.96,-1.86,-0.12,0.17,0.74,
4.857,-1.74,1.19,-1.98,-0.12,0.17,0.74,
4.858,-1.74,1.19,-1.98,-0.12,0.14,0.74,
4.861,-1.74,1.19,-1.98,-0.12,0.06,0.74,
4.861,-0.35,1.44,0.34,-0.12,0.06,0.74,
4.863,-0.35,1.44,0.34,-0.09,0.02,0.73,
4.866,-0.35,1.44,0.34,-0.10,0.06,0.73,
4.867,-0.21,1.08,-0.51,-0.10,0.06,0.73,
4.868,-0.21,1.08,-0.51,-0.12,0.11,0.76,
4.877,-0.21,1.08,-0.51,-0.14,0.15,0.80,
4.877,-0.46,0.57,-0.90,-0.14,0.15,0.80,
4.878,-0.46,0.57,-0.90,-0.16,0.16,0.83,
4.878,-0.46,0.57,-0.90,-0.17,0.18,0.84,
4.878,-0.43,-1.09,1.33,-0.17,0.18,0.84,
4.91,-0.43,-1.09,1.33,-0.14,0.23,0.85,
4.911,-0.43,-1.09,1.33,-0.12,0.32,0.85,
4.911,-0.86,-0.39,0.99,-0.12,0.32,0.85,
4.912,-0.86,-0.39,0.99,-0.16,0.46,0.87,
4.912,-0.93,2.69,-3.82,-0.16,0.46,0.87,
4.913,-0.93,2.69,-3.82,-0.24,0.53,0.90,
4.913,-0.93,2.69,-3.82,-0.33,0.47,0.91,
4.913,-1.33,3.78,-1.88,-0.33,0.47,0.91,
4.914,-1.33,3.78,-1.88,-0.39,0.45,0.93,
4.914,-1.33,3.78,-1.88,-0.38,0.56,1.00,
4.914,-1.33,3.78,-1.88,-0.35,0.59,1.05,
4.914,-1.27,2.32,1.95,-0.35,0.59,1.05,
4.915,-1.27,2.32,1.95,-0.26,0.63,1.04,
4.915,-1.27,2.32,1.95,-0.18,0.60,1.03,
4.915,-0.92,0.26,3.09,-0.18,0.60,1.03,
4.915,-0.92,0.26,3.09,-0.16,0.59,1.02,
4.915,-0.92,0.26,3.09,-0.19,0.59,0.99,
4.916,-0.33,0.20,-0.69,-0.19,0.59,0.99,
4.916,-0.33,0.20,-0.69,-0.23,0.60,0.99,
4.916,-2.54,1.09,-2.43,-0.23,0.60,0.99,
4.916,-2.54,1.09,-2.43,-0.30,0.59,1.05,
4.917,-2.54,1.09,-2.43,-0.36,0.57,1.13,
4.917,-2.18,1.72,-1.12,-0.36,0.57,1.13,
4.917,-2.18,1.72,-1.12,-0.39,0.55,1.17,
4.918,-2.18,1.72,-1.12,-0.40,0.56,1.19,
4.921,-1.80,2.26,-0.63,-0.40,0.56,1.19,
4.922,-1.80,2.26,-0.63,-0.41,0.58,1.21,
4.925,-1.80,2.26,-0.63,-0.39,0.59,1.24,
4.926,-1.86,1.99,0.59,-0.39,0.59,1.24,
4.926,-1.86,1.99,0.59,-0.37,0.55,1.28,
4.928,-1.86,1.99,0.59,-0.37,0.46,1.28,
4.93,-1.28,2.00,-0.66,-0.37,0.46,1.28,
4.931,-1.28,2.00,-0.66,-0.39,0.42,1.28,
4.933,-1.28,2.00,-0.66,-0.42,0.45,1.27,
4.935,-1.81,2.83,-2.36,-0.42,0.45,1.27,
4.935,-1.81,2.83,-2.36,-0.46,0.53,1.27,
4.939,-1.81,2.83,-2.36,-0.55,0.61,1.27,
4.941,-2.77,4.19,-1.12,-0.55,0.61,1.27,
4.941,-2.77,4.19,-1.12,-0.65,0.65,1.26,
4.942,-2.77,4.19,-1.12,-0.68,0.64,1.29,
4.945,-2.77,4.19,-1.12,-0.66,0.59,1.34,
4.945,-3.96,4.50,2.42,-0.66,0.59,1.34,
4.947,-3.96,4.50,2.42,-0.61,0.53,1.41,
4.95,-3.96,4.50,2.42,-0.58,0.48,1.48,
4.95,-3.56,3.70,2.01,-0.58,0.48,1.48,
4.952,-3.56,3.70,2.01,-0.58,0.43,1.53,
4.955,-2.64,2.69,-0.69,-0.58,0.43,1.53,
4.957,-2.64,2.69,-0.69,-0.62,0.39,1.56,
4.957,-2.64,2.69,-0.69,-0.67,0.35,1.57,
4.96,-2.64,2.69,-0.69,-0.71,0.32,1.58,
4.96,-2.38,2.06,-0.70,-0.71,0.32,1.58,
4.962,-2.38,2.06,-0.70,-0.73,0.31,1.57,
4.965,-2.38,2.06,-0.70,-0.73,0.29,1.57,
4.965,-2.25,1.87,0.15,-0.73,0.29,1.57,
4.967,-2.25,1.87,0.15,-0.73,0.28,1.56,
4.97,-1.81,2.01,-0.75,-0.73,0.28,1.56,
4.97,-1.81,2.01,-0.75,-0.74,0.27,1.57,
4.974,-1.81,2.01,-0.75,-0.77,0.25,1.57,
4.975,-0.86,2.35,-1.45,-0.77,0.25,1.57,
4.976,-0.86,2.35,-1.45,-0.81,0.23,1.57,
4.977,-0.86,2.35,-1.45,-0.84,0.22,1.57,
4.98,-0.00,2.89,-1.02,-0.84,0.22,1.57,
4.98,-0.00,2.89,-1.02,-0.88,0.20,1.55,
4.982,-0.00,2.89,-1.02,-0.89,0.19,1.53,
4.985,0.63,3.38,-0.29,-0.89,0.19,1.53,
4.985,0.63,3.38,-0.29,-0.90,0.19,1.50,
4.987,0.63,3.38,-0.29,-0.90,0.19,1.47,
