
time,ax,ay,az,wx,wy,wz,
0.002,0.23,0.22,-0.12,0.16,0.08,-0.22,
0.002,0.04,0.34,-0.13,0.16,0.08,-0.22,
0.002,0.04,0.34,-0.13,0.15,0.09,-0.21,
0.002,0.04,0.34,-0.13,0.13,0.09,-0.20,
0.003,0.04,0.34,-0.13,0.11,0.09,-0.19,
0.004,-0.12,0.39,-0.19,0.11,0.09,-0.19,
0.005,-0.12,0.39,-0.19,0.09,0.09,-0.18,
0.008,-0.12,0.39,-0.19,0.07,0.08,-0.16,
0.008,-0.20,0.39,-0.38,0.07,0.08,-0.16,
0.013,-0.20,0.39,-0.38,0.05,0.08,-0.15,
0.013,-0.20,0.39,-0.38,0.02,0.08,-0.13,
0.013,-0.22,0.37,-0.57,0.02,0.08,-0.13,
0.015,-0.22,0.37,-0.57,-0.01,0.07,-0.12,
0.018,-0.17,0.35,-0.69,-0.01,0.07,-0.12,
0.018,-0.17,0.35,-0.69,-0.04,0.05,-0.11,
0.02,-0.17,0.35,-0.69,-0.06,0.04,-0.10,
0.023,-0.17,0.35,-0.69,-0.09,0.02,-0.09,
0.023,-0.06,0.29,-0.62,-0.09,0.02,-0.09,
0.025,-0.06,0.29,-0.62,-0.11,0.00,-0.09,
0.03,-0.06,0.29,-0.62,-0.12,-0.02,-0.09,
0.031,0.04,0.24,-0.40,-0.12,-0.02,-0.09,
0.031,0.04,0.24,-0.40,-0.13,-0.04,-0.09,
0.033,0.08,0.21,-0.08,-0.13,-0.04,-0.09,
0.033,0.08,0.21,-0.08,-0.13,-0.05,-0.09,
0.035,0.08,0.21,-0.08,-0.13,-0.07,-0.09,
0.038,0.10,0.16,0.21,-0.13,-0.07,-0.09,
0.038,0.10,0.16,0.21,-0.13,-0.08,-0.10,
0.04,0.10,0.16,0.21,-0.12,-0.09,-0.10,
0.043,0.11,0.14,0.41,-0.12,-0.09,-0.10,
0.043,0.11,0.14,0.41,-0.10,-0.09,-0.10,
0.047,0.11,0.14,0.41,-0.08,-0.10,-0.10,
0.048,0.11,0.14,0.41,-0.06,-0.10,-0.10,
0.048,0.14,0.11,0.49,-0.06,-0.10,-0.10,
0.05,0.14,0.11,0.49,-0.04,-0.11,-0.11,
0.053,0.17,0.10,0.50,-0.04,-0.11,-0.11,
0.053,0.17,0.10,0.50,-0.02,-0.11,-0.11,
0.055,0.17,0.10,0.50,-0.01,-0.11,-0.11,
0.057,0.22,0.08,0.41,-0.01,-0.11,-0.11,
0.058,0.22,0.08,0.41,0.01,-0.10,-0.12,
0.06,0.22,0.08,0.41,0.02,-0.10,-0.12,
0.064,0.25,0.08,0.30,0.02,-0.10,-0.12,
0.064,0.25,0.08,0.30,0.04,-0.10,-0.13,
0.065,0.25,0.08,0.30,0.05,-0.09,-0.13,
0.068,0.25,0.08,0.30,0.06,-0.08,-0.14,
0.068,0.29,0.11,0.13,0.06,-0.08,-0.14,
0.07,0.29,0.11,0.13,0.06,-0.07,-0.14,
0.072,0.28,0.13,-0.00,0.06,-0.07,-0.14,
0.073,0.28,0.13,-0.00,0.06,-0.07,-0.15,
0.075,0.28,0.13,-0.00,0.07,-0.06,-0.15,
0.079,0.28,0.13,-0.00,0.07,-0.05,-0.15,
0.079,0.27,0.16,-0.10,0.07,-0.05,-0.15,
0.08,0.27,0.16,-0.10,0.07,-0.04,-0.15,
0.082,0.27,0.16,-0.10,0.07,-0.04,-0.15,
0.083,0.25,0.18,-0.15,0.07,-0.04,-0.15,
0.085,0.25,0.18,-0.15,0.07,-0.03,-0.15,
0.087,0.25,0.24,-0.19,0.07,-0.03,-0.15,
0.087,0.25,0.24,-0.19,0.06,-0.03,-0.14,
0.09,0.25,0.24,-0.19,0.06,-0.02,-0.14,
0.092,0.25,0.24,-0.19,0.06,-0.02,-0.14,
0.093,0.22,0.25,-0.19,0.06,-0.02,-0.14,
0.096,0.22,0.25,-0.19,0.05,-0.02,-0.14,
0.097,0.22,0.25,-0.19,0.05,-0.02,-0.13,
0.098,0.24,0.26,-0.19,0.05,-0.02,-0.13,
0.1,0.24,0.26,-0.19,0.04,-0.02,-0.13,
0.103,0.25,0.25,-0.19,0.04,-0.02,-0.13,
0.103,0.25,0.25,-0.19,0.04,-0.03,-0.12,
0.105,0.25,0.25,-0.19,0.04,-0.03,-0.12,
0.107,0.25,0.25,-0.19,0.03,-0.03,-0.11,
0.107,0.27,0.23,-0.22,0.03,-0.03,-0.11,
0.109,0.27,0.23,-0.22,0.02,-0.03,-0.11,
0.114,0.29,0.21,-0.25,0.02,-0.03,-0.11,
0.114,0.29,0.21,-0.25,0.01,-0.03,-0.11,
0.114,0.29,0.21,-0.25,0.01,-0.04,-0.11,
0.117,0.33,0.18,-0.29,0.01,-0.04,-0.11,
0.118,0.33,0.18,-0.29,0.00,-0.04,-0.11,
0.12,0.33,0.18,-0.29,-0.01,-0.04,-0.10,
0.122,0.33,0.18,-0.29,-0.01,-0.04,-0.10,
0.123,0.34,0.17,-0.28,-0.01,-0.04,-0.10,
0.125,0.34,0.17,-0.28,-0.02,-0.03,-0.10,
0.127,0.34,0.17,-0.28,-0.03,-0.04,-0.10,
0.127,0.34,0.17,-0.29,-0.03,-0.04,-0.10,
0.13,0.34,0.17,-0.29,-0.03,-0.04,-0.11,
0.132,0.34,0.17,-0.29,-0.04,-0.04,-0.11,
0.132,0.35,0.19,-0.29,-0.04,-0.04,-0.11,
0.134,0.35,0.19,-0.29,-0.05,-0.04,-0.11,
0.137,0.33,0.20,-0.27,-0.05,-0.04,-0.11,
0.137,0.33,0.20,-0.27,-0.05,-0.04,-0.11,
0.139,0.33,0.20,-0.27,-0.06,-0.04,-0.11,
0.142,0.33,0.20,-0.27,-0.06,-0.04,-0.11,
0.142,0.28,0.20,-0.25,-0.06,-0.04,-0.11,
0.146,0.28,0.20,-0.25,-0.06,-0.04,-0.11,
0.147,0.28,0.20,-0.25,-0.07,-0.05,-0.11,
0.147,0.24,0.20,-0.19,-0.07,-0.05,-0.11,
0.149,0.24,0.20,-0.19,-0.07,-0.05,-0.12,
0.152,0.24,0.20,-0.19,-0.06,-0.05,-0.12,
0.152,0.20,0.21,-0.11,-0.06,-0.05,-0.12,
0.154,0.20,0.21,-0.11,-0.06,-0.06,-0.12,
0.157,0.20,0.21,-0.11,-0.06,-0.06,-0.12,
0.157,0.16,0.19,-0.08,-0.06,-0.06,-0.12,
0.159,0.16,0.19,-0.08,-0.05,-0.06,-0.12,
0.162,0.16,0.19,-0.08,-0.05,-0.06,-0.12,
0.162,0.16,0.19,-0.05,-0.05,-0.06,-0.12,
0.164,0.16,0.19,-0.05,-0.04,-0.06,-0.12,
0.167,0.16,0.19,-0.05,-0.04,-0.06,-0.12,
0.167,0.17,0.20,-0.05,-0.04,-0.06,-0.12,
0.169,0.17,0.20,-0.05,-0.03,-0.06,-0.12,
0.172,0.17,0.20,-0.05,-0.02,-0.06,-0.12,
0.172,0.18,0.18,-0.06,-0.02,-0.06,-0.12,
0.174,0.18,0.18,-0.06,-0.02,-0.06,-0.12,
0.176,0.19,0.19,-0.05,-0.02,-0.06,-0.12,
0.177,0.19,0.19,-0.05,-0.01,-0.05,-0.12,
0.179,0.19,0.19,-0.05,-0.00,-0.05,-0.12,
0.182,0.19,0.19,-0.05,0.00,-0.05,-0.12,
0.182,0.17,0.22,-0.07,0.00,-0.05,-0.12,
0.184,0.17,0.22,-0.07,0.01,-0.04,-0.12,
0.198,0.18,0.22,-0.12,0.01,-0.04,-0.12,
0.199,0.18,0.22,-0.12,0.01,-0.04,-0.13,
0.199,0.18,0.22,-0.12,0.02,-0.04,-0.13,
0.199,0.18,0.22,-0.12,0.02,-0.04,-0.13,
0.199,0.22,0.21,-0.13,0.02,-0.04,-0.13,
0.2,0.22,0.21,-0.13,0.03,-0.03,-0.13,
0.2,0.21,0.21,-0.16,0.03,-0.03,-0.13,
0.2,0.21,0.21,-0.16,0.03,-0.03,-0.13,
0.2,0.21,0.21,-0.16,0.03,-0.03,-0.14,
0.202,0.21,0.21,-0.16,0.03,-0.03,-0.14,
0.202,0.23,0.21,-0.20,0.03,-0.03,-0.14,
0.204,0.23,0.21,-0.20,0.03,-0.02,-0.14,
0.206,0.23,0.21,-0.20,0.03,-0.02,-0.14,
0.206,0.27,0.20,-0.25,0.03,-0.02,-0.14,
0.209,0.27,0.20,-0.25,0.03,-0.01,-0.14,
0.212,0.27,0.20,-0.25,0.03,-0.01,-0.15,
0.212,0.27,0.19,-0.30,0.03,-0.01,-0.15,
0.214,0.27,0.19,-0.30,0.02,-0.01,-0.15,
0.216,0.27,0.19,-0.30,0.02,-0.00,-0.15,
0.216,0.30,0.19,-0.34,0.02,-0.00,-0.15,
0.221,0.30,0.19,-0.34,0.02,0.00,-0.15,
0.222,0.30,0.19,-0.34,0.01,0.01,-0.15,
0.222,0.31,0.22,-0.37,0.01,0.01,-0.15,
0.224,0.31,0.22,-0.37,0.01,0.01,-0.15,
0.226,0.31,0.22,-0.37,0.00,0.01,-0.16,
0.227,0.29,0.21,-0.39,0.00,0.01,-0.16,
0.231,0.29,0.21,-0.39,-0.01,0.01,-0.16,
0.232,0.27,0.19,-0.42,-0.01,0.01,-0.16,
0.232,0.27,0.19,-0.42,-0.01,0.01,-0.16,
0.234,0.27,0.19,-0.42,-0.02,0.01,-0.15,
0.236,0.26,0.20,-0.39,-0.02,0.01,-0.15,
0.237,0.26,0.20,-0.39,-0.03,0.01,-0.15,
0.239,0.26,0.20,-0.39,-0.04,0.01,-0.15,
0.242,0.26,0.20,-0.39,-0.05,0.01,-0.15,
0.242,0.25,0.19,-0.38,-0.05,0.01,-0.15,
0.243,0.25,0.19,-0.38,-0.06,0.00,-0.15,
0.247,0.24,0.16,-0.34,-0.06,0.00,-0.15,
0.247,0.24,0.16,-0.34,-0.07,0.00,-0.15,
0.25,0.24,0.16,-0.34,-0.07,-0.00,-0.15,
0.251,0.24,0.16,-0.34,-0.08,-0.01,-0.15,
0.251,0.25,0.17,-0.28,-0.08,-0.01,-0.15,
0.253,0.25,0.17,-0.28,-0.08,-0.01,-0.15,
0.256,0.25,0.17,-0.28,-0.09,-0.02,-0.15,
0.258,0.25,0.17,-0.28,-0.09,-0.02,-0.15,
0.259,0.26,0.14,-0.26,-0.09,-0.02,-0.15,
0.262,0.26,0.14,-0.26,-0.10,-0.03,-0.15,
0.262,0.26,0.09,-0.24,-0.10,-0.03,-0.15,
0.265,0.26,0.09,-0.24,-0.10,-0.03,-0.15,
0.266,0.28,0.05,-0.22,-0.10,-0.03,-0.15,
0.266,0.28,0.05,-0.22,-0.10,-0.04,-0.15,
0.269,0.28,0.05,-0.22,-0.11,-0.05,-0.15,
0.272,0.28,0.05,-0.22,-0.11,-0.06,-0.16,
0.272,0.30,-0.00,-0.22,-0.11,-0.06,-0.16,
0.273,0.30,-0.00,-0.22,-0.11,-0.07,-0.16,
0.276,0.30,-0.00,-0.22,-0.12,-0.07,-0.16,
0.276,0.33,-0.04,-0.28,-0.12,-0.07,-0.16,
0.279,0.33,-0.04,-0.28,-0.12,-0.08,-0.17,
0.281,0.36,-0.07,-0.31,-0.12,-0.08,-0.17,
0.281,0.36,-0.07,-0.31,-0.12,-0.09,-0.17,
0.283,0.36,-0.07,-0.31,-0.13,-0.09,-0.18,
0.286,0.36,-0.07,-0.31,-0.13,-0.09,-0.18,
0.286,0.38,-0.08,-0.38,-0.13,-0.09,-0.18,
0.288,0.38,-0.08,-0.38,-0.14,-0.09,-0.19,
0.291,0.38,-0.08,-0.38,-0.14,-0.09,-0.19,
0.291,0.38,-0.08,-0.49,-0.14,-0.09,-0.19,
0.293,0.38,-0.08,-0.49,-0.15,-0.08,-0.20,
0.297,0.40,-0.05,-0.59,-0.15,-0.08,-0.20,
0.297,0.40,-0.05,-0.59,-0.16,-0.08,-0.21,
0.298,0.40,-0.05,-0.59,-0.16,-0.07,-0.22,
0.302,0.39,-0.00,-0.68,-0.16,-0.07,-0.22,
0.303,0.39,-0.00,-0.68,-0.17,-0.06,-0.23,
0.303,0.39,-0.00,-0.68,-0.18,-0.05,-0.24,
0.305,0.39,-0.00,-0.68,-0.18,-0.04,-0.25,
0.306,0.29,0.02,-0.81,-0.18,-0.04,-0.25,
0.308,0.29,0.02,-0.81,-0.20,-0.03,-0.25,
0.311,0.29,0.02,-0.81,-0.20,-0.02,-0.26,
0.313,0.29,0.02,-0.81,-0.21,-0.00,-0.27,
0.313,0.13,0.04,-0.95,-0.21,-0.00,-0.27,
0.316,0.05,0.10,-1.03,-0.21,-0.00,-0.27,
0.318,0.05,0.10,-1.03,-0.22,0.01,-0.28,
0.318,0.05,0.10,-1.03,-0.23,0.03,-0.29,
0.323,-0.04,0.16,-1.07,-0.23,0.03,-0.29,
0.323,-0.04,0.16,-1.07,-0.23,0.04,-0.30,
0.323,-0.04,0.16,-1.07,-0.23,0.06,-0.30,
0.325,-0.04,0.16,-1.07,-0.24,0.07,-0.31,
0.326,-0.15,0.21,-1.15,-0.24,0.07,-0.31,
0.328,-0.15,0.21,-1.15,-0.24,0.09,-0.32,
0.331,-0.15,0.21,-1.15,-0.24,0.11,-0.33,
0.331,-0.25,0.24,-1.24,-0.24,0.11,-0.33,
0.339,-0.25,0.24,-1.24,-0.23,0.14,-0.34,
0.339,-0.38,0.25,-1.30,-0.23,0.14,-0.34,
0.339,-0.38,0.25,-1.30,-0.23,0.16,-0.35,
0.34,-0.38,0.25,-1.30,-0.22,0.18,-0.35,
0.341,-0.38,0.25,-1.30,-0.21,0.21,-0.36,
0.341,-0.60,0.21,-1.29,-0.21,0.21,-0.36,
0.343,-0.60,0.21,-1.29,-0.20,0.22,-0.36,
0.348,-0.60,0.21,-1.29,-0.18,0.24,-0.35,
0.348,-1.51,0.26,-1.15,-0.18,0.24,-0.35,
0.348,-1.51,0.26,-1.15,-0.17,0.28,-0.33,
0.35,-1.51,0.26,-1.15,-0.15,0.33,-0.31,
0.36,-1.88,0.31,-1.34,-0.15,0.33,-0.31,
0.361,-1.88,0.31,-1.34,-0.13,0.37,-0.29,
0.361,-1.96,0.46,-1.50,-0.13,0.37,-0.29,
0.361,-1.96,0.46,-1.50,-0.11,0.41,-0.27,
0.361,-1.96,0.46,-1.50,-0.09,0.45,-0.26,
0.361,-1.96,0.46,-1.50,-0.06,0.47,-0.25,
0.362,-1.91,0.57,-1.68,-0.06,0.47,-0.25,
0.364,-1.91,0.57,-1.68,-0.04,0.48,-0.25,
0.365,-1.87,0.60,-1.68,-0.04,0.48,-0.25,
0.365,-1.87,0.60,-1.68,-0.01,0.48,-0.25,
0.368,-1.87,0.60,-1.68,0.03,0.48,-0.25,
0.37,-1.87,0.60,-1.68,0.07,0.49,-0.25,
0.371,-1.85,0.53,-1.76,0.07,0.49,-0.25,
0.372,-1.85,0.53,-1.76,0.10,0.49,-0.25,
0.376,-1.85,0.53,-1.76,0.14,0.50,-0.25,
0.376,-1.88,0.36,-1.85,0.14,0.50,-0.25,
0.378,-1.88,0.36,-1.85,0.18,0.51,-0.24,
0.382,-1.90,0.19,-2.08,0.18,0.51,-0.24,
0.386,-1.90,0.19,-2.08,0.21,0.52,-0.23,
0.386,-1.90,0.19,-2.08,0.24,0.53,-0.23,
0.386,-1.77,0.07,-2.29,0.24,0.53,-0.23,
0.386,-1.77,0.07,-2.29,0.27,0.54,-0.22,
0.388,-1.77,0.07,-2.29,0.30,0.55,-0.21,
0.39,-1.77,0.07,-2.29,0.33,0.57,-0.20,
0.39,-1.62,0.01,-2.63,0.33,0.57,-0.20,
0.393,-1.62,0.01,-2.63,0.35,0.59,-0.19,
0.396,-1.48,-0.07,-3.00,0.35,0.59,-0.19,
0.396,-1.48,-0.07,-3.00,0.37,0.60,-0.19,
0.398,-1.48,-0.07,-3.00,0.38,0.62,-0.19,
0.4,-1.48,-0.07,-3.00,0.40,0.64,-0.19,
0.4,-1.26,-0.17,-3.43,0.40,0.64,-0.19,
0.403,-1.26,-0.17,-3.43,0.41,0.67,-0.19,
0.405,-1.26,-0.17,-3.43,0.42,0.69,-0.20,
0.405,-1.02,-0.28,-3.84,0.42,0.69,-0.20,
0.409,-1.02,-0.28,-3.84,0.44,0.72,-0.21,
0.41,-1.02,-0.28,-3.84,0.44,0.76,-0.22,
0.41,-0.86,-0.39,-4.20,0.44,0.76,-0.22,
0.413,-0.86,-0.39,-4.20,0.45,0.80,-0.23,
0.415,-0.86,-0.39,-4.20,0.46,0.85,-0.25,
0.415,-0.77,-0.53,-4.54,0.46,0.85,-0.25,
0.418,-0.77,-0.53,-4.54,0.46,0.90,-0.26,
0.42,-0.71,-0.72,-4.83,0.46,0.90,-0.26,
0.42,-0.71,-0.72,-4.83,0.47,0.95,-0.28,
0.422,-0.71,-0.72,-4.83,0.47,1.01,-0.29,
0.425,-0.67,-0.93,-5.11,0.47,1.01,-0.29,
0.425,-0.67,-0.93,-5.11,0.47,1.07,-0.31,
0.427,-0.67,-0.93,-5.11,0.48,1.13,-0.32,
0.432,-0.67,-0.93,-5.11,0.49,1.20,-0.34,
0.432,-0.63,-1.11,-5.34,0.49,1.20,-0.34,
0.433,-0.63,-1.11,-5.34,0.49,1.26,-0.35,
0.435,-0.63,-1.11,-5.34,0.50,1.33,-0.37,
0.435,-0.57,-1.30,-5.56,0.50,1.33,-0.37,
0.437,-0.57,-1.30,-5.56,0.52,1.40,-0.39,
0.44,-0.57,-1.30,-5.56,0.53,1.48,-0.40,
0.44,-0.48,-1.50,-5.76,0.53,1.48,-0.40,
0.442,-0.48,-1.50,-5.76,0.54,1.56,-0.42,
0.445,-0.48,-1.50,-5.76,0.55,1.63,-0.44,
0.447,-0.37,-1.71,-5.93,0.55,1.63,-0.44,
0.448,-0.37,-1.71,-5.93,0.57,1.71,-0.46,
0.451,-0.37,-1.71,-5.93,0.58,1.80,-0.49,
0.452,-0.37,-1.71,-5.93,0.59,1.88,-0.51,
0.453,-0.25,-1.93,-6.11,0.59,1.88,-0.51,
0.454,-0.13,-2.15,-6.27,0.59,1.88,-0.51,
0.455,-0.13,-2.15,-6.27,0.61,1.96,-0.54,
0.457,-0.13,-2.15,-6.27,0.62,2.05,-0.57,
0.459,-0.13,-2.15,-6.27,0.64,2.13,-0.60,
0.46,-0.00,-2.41,-6.41,0.64,2.13,-0.60,
0.462,-0.00,-2.41,-6.41,0.65,2.22,-0.64,
0.465,0.03,-2.66,-6.57,0.65,2.22,-0.64,
0.465,0.03,-2.66,-6.57,0.66,2.31,-0.68,
0.467,0.03,-2.66,-6.57,0.67,2.41,-0.72,
0.47,-0.05,-2.89,-6.74,0.67,2.41,-0.72,
0.47,-0.05,-2.89,-6.74,0.67,2.50,-0.76,
0.474,-0.05,-2.89,-6.74,0.67,2.61,-0.80,
0.474,-0.15,-3.07,-6.90,0.67,2.61,-0.80,
0.474,-0.15,-3.07,-6.90,0.65,2.72,-0.85,
0.478,-0.15,-3.07,-6.90,0.63,2.83,-0.89,
0.48,-0.15,-3.07,-6.90,0.60,2.93,-0.94,
0.48,-0.29,-3.21,-7.00,0.60,2.93,-0.94,
0.484,-0.29,-3.21,-7.00,0.56,3.04,-0.98,
0.487,-0.45,-3.30,-7.03,0.56,3.04,-0.98,
0.487,-0.45,-3.30,-7.03,0.52,3.14,-1.02,
0.487,-0.45,-3.30,-7.03,0.46,3.24,-1.05,
0.489,-0.45,-3.30,-7.03,0.41,3.33,-1.09,
0.49,-0.62,-3.35,-6.97,0.41,3.33,-1.09,
0.492,-0.62,-3.35,-6.97,0.35,3.42,-1.12,
0.494,-0.77,-3.41,-6.81,0.35,3.42,-1.12,
0.494,-0.77,-3.41,-6.81,0.28,3.50,-1.15,
0.497,-0.77,-3.41,-6.81,0.22,3.58,-1.18,
0.501,-0.91,-3.45,-6.56,0.22,3.58,-1.18,
0.501,-0.91,-3.45,-6.56,0.16,3.64,-1.21,
0.501,-0.91,-3.45,-6.56,0.09,3.70,-1.23,
0.506,-1.03,-3.53,-6.23,0.09,3.70,-1.23,
0.506,-1.03,-3.53,-6.23,0.03,3.75,-1.25,
0.506,-1.03,-3.53,-6.23,-0.03,3.80,-1.27,
0.509,-1.03,-3.53,-6.23,-0.08,3.83,-1.29,
0.51,-1.14,-3.64,-5.82,-0.08,3.83,-1.29,
0.511,-1.14,-3.64,-5.82,-0.12,3.87,-1.31,
0.516,-1.14,-3.64,-5.82,-0.16,3.90,-1.33,
0.519,-1.16,-3.76,-5.39,-0.16,3.90,-1.33,
0.539,-1.16,-3.76,-5.39,-0.19,3.93,-1.34,
0.539,-1.16,-3.76,-5.39,-0.21,3.95,-1.36,
0.539,-1.16,-3.91,-4.98,-0.21,3.95,-1.36,
0.539,-1.16,-3.91,-4.98,-0.22,3.98,-1.37,
0.54,-1.08,-4.07,-4.61,-0.22,3.98,-1.37,
0.54,-1.08,-4.07,-4.61,-0.23,4.01,-1.39,
0.54,-1.08,-4.07,-4.61,-0.23,4.04,-1.41,
0.541,-0.96,-4.24,-4.33,-0.23,4.04,-1.41,
0.541,-0.96,-4.24,-4.33,-0.23,4.06,-1.43,
0.541,-0.96,-4.24,-4.33,-0.21,4.09,-1.45,
0.541,-0.96,-4.24,-4.33,-0.20,4.13,-1.47,
0.542,-0.83,-4.40,-4.16,-0.20,4.13,-1.47,
0.542,-0.83,-4.40,-4.16,-0.19,4.16,-1.49,
0.542,-0.83,-4.40,-4.16,-0.17,4.19,-1.52,
0.542,-0.65,-4.58,-4.03,-0.17,4.19,-1.52,
0.543,-0.65,-4.58,-4.03,-0.15,4.22,-1.55,
0.544,-0.65,-4.58,-4.03,-0.12,4.26,-1.58,
0.544,-0.53,-4.77,-4.00,-0.12,4.26,-1.58,
0.548,-0.53,-4.77,-4.00,-0.10,4.29,-1.62,
0.549,-0.53,-4.77,-4.00,-0.08,4.32,-1.65,
0.549,-0.49,-4.94,-4.02,-0.08,4.32,-1.65,
0.552,-0.49,-4.94,-4.02,-0.07,4.36,-1.70,
0.554,-0.49,-4.94,-4.02,-0.06,4.40,-1.74,
0.554,-0.50,-5.11,-4.12,-0.06,4.40,-1.74,
0.556,-0.50,-5.11,-4.12,-0.06,4.45,-1.79,
0.558,-0.50,-5.11,-4.12,-0.07,4.50,-1.84,
0.559,-0.55,-5.30,-4.26,-0.07,4.50,-1.84,
0.561,-0.55,-5.30,-4.26,-0.10,4.56,-1.89,
0.563,-0.55,-5.30,-4.26,-0.13,4.62,-1.95,
0.564,-0.67,-5.45,-4.38,-0.13,4.62,-1.95,
0.566,-0.67,-5.45,-4.38,-0.18,4.68,-2.02,
0.57,-0.94,-5.60,-4.45,-0.18,4.68,-2.02,
0.57,-0.94,-5.60,-4.45,-0.24,4.76,-2.08,
0.571,-0.94,-5.60,-4.45,-0.31,4.84,-2.16,
0.573,-0.94,-5.60,-4.45,-0.39,4.93,-2.23,
0.574,-1.27,-5.69,-4.44,-0.39,4.93,-2.23,
0.576,-1.27,-5.69,-4.44,-0.49,5.03,-2.31,
0.578,-1.27,-5.69,-4.44,-0.60,5.12,-2.39,
0.578,-1.64,-5.75,-4.26,-0.60,5.12,-2.39,
0.581,-1.64,-5.75,-4.26,-0.72,5.22,-2.47,
0.584,-1.64,-5.75,-4.26,-0.85,5.31,-2.55,
0.584,-2.03,-5.78,-3.87,-0.85,5.31,-2.55,
0.586,-2.03,-5.78,-3.87,-0.98,5.39,-2.64,
0.589,-2.03,-5.78,-3.87,-1.10,5.45,-2.72,
0.589,-2.47,-5.81,-3.27,-1.10,5.45,-2.72,
0.591,-2.47,-5.81,-3.27,-1.22,5.50,-2.80,
0.594,-2.47,-5.81,-3.27,-1.33,5.53,-2.87,
0.603,-3.00,-5.79,-2.56,-1.33,5.53,-2.87,
0.604,-3.00,-5.79,-2.56,-1.42,5.54,-2.94,
0.604,-3.00,-5.79,-2.56,-1.51,5.54,-3.00,
0.605,-3.62,-5.75,-1.75,-1.51,5.54,-3.00,
0.605,-3.62,-5.75,-1.75,-1.58,5.51,-3.05,
0.605,-3.62,-5.75,-1.75,-1.64,5.48,-3.09,
0.605,-4.14,-5.66,-0.97,-1.64,5.48,-3.09,
0.606,-4.14,-5.66,-0.97,-1.68,5.43,-3.13,
0.609,-4.14,-5.66,-0.97,-1.71,5.38,-3.15,
0.61,-4.53,-5.54,-0.23,-1.71,5.38,-3.15,
0.613,-4.53,-5.54,-0.23,-1.73,5.33,-3.16,
0.639,-4.53,-5.54,-0.23,-1.74,5.28,-3.17,
0.64,-4.81,-5.41,0.37,-1.74,5.28,-3.17,
0.641,-4.81,-5.41,0.37,-1.73,5.22,-3.16,
0.641,-4.81,-5.41,0.37,-1.72,5.17,-3.15,
0.641,-5.04,-5.26,0.87,-1.72,5.17,-3.15,
0.641,-5.04,-5.26,0.87,-1.69,5.12,-3.13,
0.641,-5.04,-5.26,0.87,-1.66,5.07,-3.10,
0.641,-5.18,-5.10,1.25,-1.66,5.07,-3.10,
0.642,-5.18,-5.10,1.25,-1.63,5.02,-3.07,
0.642,-5.24,-4.91,1.54,-1.63,5.02,-3.07,
0.642,-5.24,-4.91,1.54,-1.58,4.97,-3.03,
0.642,-5.24,-4.91,1.54,-1.53,4.92,-2.98,
0.642,-5.24,-4.91,1.54,-1.48,4.87,-2.94,
0.642,-5.19,-4.71,1.73,-1.48,4.87,-2.94,
0.642,-5.19,-4.71,1.73,-1.42,4.82,-2.88,
0.643,-5.19,-4.71,1.73,-1.36,4.77,-2.83,
0.643,-5.06,-4.53,1.81,-1.36,4.77,-2.83,
0.643,-5.06,-4.53,1.81,-1.30,4.73,-2.77,
0.643,-5.06,-4.53,1.81,-1.23,4.68,-2.72,
0.643,-4.83,-4.40,1.80,-1.23,4.68,-2.72,
0.646,-4.83,-4.40,1.80,-1.17,4.65,-2.66,
0.657,-4.83,-4.40,1.80,-1.10,4.61,-2.61,
0.657,-4.54,-4.33,1.74,-1.10,4.61,-2.61,
0.657,-4.54,-4.33,1.74,-1.04,4.58,-2.56,
0.658,-4.18,-4.32,1.64,-1.04,4.58,-2.56,
0.658,-4.18,-4.32,1.64,-0.98,4.54,-2.51,
0.658,-4.18,-4.32,1.64,-0.92,4.51,-2.47,
0.658,-3.75,-4.37,1.52,-0.92,4.51,-2.47,
0.658,-3.75,-4.37,1.52,-0.87,4.48,-2.44,
0.66,-3.75,-4.37,1.52,-0.82,4.44,-2.41,
0.664,-3.34,-4.42,1.40,-0.82,4.44,-2.41,
0.664,-3.34,-4.42,1.40,-0.77,4.41,-2.39,
0.669,-3.34,-4.42,1.40,-0.74,4.36,-2.37,
0.669,-3.34,-4.42,1.40,-0.71,4.32,-2.37,
0.669,-2.97,-4.52,1.30,-0.71,4.32,-2.37,
0.67,-2.97,-4.52,1.30,-0.68,4.26,-2.37,
0.673,-2.97,-4.52,1.30,-0.66,4.21,-2.37,
0.673,-2.65,-4.60,1.23,-0.66,4.21,-2.37,
0.677,-2.65,-4.60,1.23,-0.65,4.15,-2.38,
0.678,-2.35,-4.69,1.14,-0.65,4.15,-2.38,
0.678,-2.35,-4.69,1.14,-0.65,4.08,-2.40,
0.681,-2.35,-4.69,1.14,-0.65,4.01,-2.42,
0.699,-2.35,-4.69,1.14,-0.66,3.94,-2.44,
0.7,-2.12,-4.80,1.05,-0.66,3.94,-2.44,
0.7,-2.12,-4.80,1.05,-0.68,3.86,-2.47,
0.7,-1.96,-4.91,0.98,-0.68,3.86,-2.47,
0.701,-1.96,-4.91,0.98,-0.71,3.78,-2.50,
0.701,-1.96,-4.91,0.98,-0.74,3.70,-2.53,
0.701,-1.96,-4.91,0.98,-0.78,3.62,-2.57,
0.701,-1.84,-5.04,0.93,-0.78,3.62,-2.57,
0.71,-1.84,-5.04,0.93,-0.83,3.53,-2.61,
0.71,-1.84,-5.04,0.93,-0.87,3.45,-2.66,
0.71,-1.78,-5.24,0.89,-0.87,3.45,-2.66,
0.71,-1.74,-5.41,0.89,-0.87,3.45,-2.66,
0.711,-1.74,-5.41,0.89,-0.93,3.36,-2.71,
0.711,-1.74,-5.41,0.89,-0.99,3.26,-2.77,
0.711,-1.74,-5.59,0.89,-0.99,3.26,-2.77,
0.711,-1.74,-5.59,0.89,-1.06,3.17,-2.83,
0.711,-1.74,-5.59,0.89,-1.13,3.07,-2.90,
0.711,-1.74,-5.59,0.89,-1.21,2.97,-2.97,
0.713,-1.78,-5.73,0.91,-1.21,2.97,-2.97,
0.714,-1.78,-5.73,0.91,-1.28,2.86,-3.04,
0.715,-1.78,-5.73,0.91,-1.36,2.75,-3.11,
0.717,-1.78,-5.73,0.91,-1.45,2.64,-3.18,
0.717,-1.85,-5.86,0.95,-1.45,2.64,-3.18,
0.72,-1.85,-5.86,0.95,-1.53,2.53,-3.26,
0.722,-1.85,-5.86,0.95,-1.62,2.42,-3.33,
0.723,-1.96,-5.96,1.03,-1.62,2.42,-3.33,
0.725,-1.96,-5.96,1.03,-1.71,2.31,-3.40,
0.727,-1.96,-5.96,1.03,-1.80,2.20,-3.47,
0.727,-2.15,-6.04,1.12,-1.80,2.20,-3.47,
0.732,-2.15,-6.04,1.12,-1.89,2.10,-3.54,
0.732,-2.41,-6.07,1.22,-1.89,2.10,-3.54,
0.732,-2.41,-6.07,1.22,-1.97,2.00,-3.60,
0.735,-2.41,-6.07,1.22,-2.06,1.90,-3.66,
0.737,-2.68,-6.00,1.35,-2.06,1.90,-3.66,
0.737,-2.68,-6.00,1.35,-2.15,1.81,-3.72,
0.74,-2.68,-6.00,1.35,-2.23,1.72,-3.76,
0.742,-2.95,-5.85,1.47,-2.23,1.72,-3.76,
0.743,-2.95,-5.85,1.47,-2.31,1.63,-3.81,
0.744,-2.95,-5.85,1.47,-2.38,1.55,-3.84,
0.748,-2.95,-5.85,1.47,-2.46,1.48,-3.87,
0.749,-3.18,-5.70,1.61,-2.46,1.48,-3.87,
0.749,-3.18,-5.70,1.61,-2.52,1.41,-3.89,
0.755,-3.38,-5.57,1.75,-2.52,1.41,-3.89,
0.755,-3.38,-5.57,1.75,-2.59,1.35,-3.91,
0.755,-3.38,-5.57,1.75,-2.65,1.29,-3.92,
0.757,-3.38,-5.57,1.75,-2.71,1.24,-3.94,
0.757,-3.56,-5.49,1.89,-2.71,1.24,-3.94,
0.759,-3.56,-5.49,1.89,-2.77,1.20,-3.95,
0.762,-3.72,-5.46,2.01,-2.77,1.20,-3.95,
0.762,-3.72,-5.46,2.01,-2.82,1.16,-3.96,
0.765,-3.72,-5.46,2.01,-2.87,1.12,-3.97,
0.767,-3.89,-5.49,2.16,-2.87,1.12,-3.97,
0.767,-3.89,-5.49,2.16,-2.92,1.10,-3.97,
0.769,-3.89,-5.49,2.16,-2.97,1.08,-3.98,
0.772,-4.06,-5.60,2.34,-2.97,1.08,-3.98,
0.772,-4.06,-5.60,2.34,-3.01,1.06,-3.99,
0.774,-4.06,-5.60,2.34,-3.05,1.05,-4.01,
0.777,-4.06,-5.60,2.34,-3.09,1.03,-4.02,
0.777,-4.28,-5.76,2.53,-3.09,1.03,-4.02,
0.779,-4.28,-5.76,2.53,-3.12,1.02,-4.04,
0.783,-4.28,-5.76,2.53,-3.15,1.01,-4.05,
0.783,-4.48,-5.94,2.76,-3.15,1.01,-4.05,
0.784,-4.48,-5.94,2.76,-3.18,1.00,-4.08,
0.787,-4.72,-6.13,3.00,-3.18,1.00,-4.08,
0.787,-4.72,-6.13,3.00,-3.20,1.00,-4.10,
0.789,-4.72,-6.13,3.00,-3.21,0.99,-4.12,
0.792,-4.72,-6.13,3.00,-3.22,0.99,-4.15,
0.792,-4.97,-6.28,3.25,-3.22,0.99,-4.15,
0.794,-4.97,-6.28,3.25,-3.23,0.98,-4.18,
0.798,-5.26,-6.42,3.51,-3.23,0.98,-4.18,
0.798,-5.26,-6.42,3.51,-3.23,0.98,-4.21,
0.799,-5.26,-6.42,3.51,-3.22,0.98,-4.24,
0.802,-5.26,-6.42,3.51,-3.21,0.98,-4.28,
0.802,-5.53,-6.50,3.72,-3.21,0.98,-4.28,
0.804,-5.53,-6.50,3.72,-3.20,0.99,-4.32,
0.807,-5.80,-6.58,3.99,-3.20,0.99,-4.32,
0.807,-5.80,-6.58,3.99,-3.19,0.99,-4.36,
0.809,-5.80,-6.58,3.99,-3.17,1.00,-4.40,
0.812,-6.14,-6.59,4.25,-3.17,1.00,-4.40,
0.812,-6.14,-6.59,4.25,-3.14,1.00,-4.44,
0.816,-6.14,-6.59,4.25,-3.12,1.00,-4.49,
0.82,-6.14,-6.59,4.25,-3.09,1.00,-4.53,
0.821,-6.54,-6.62,4.46,-3.09,1.00,-4.53,
0.821,-6.54,-6.62,4.46,-3.06,1.00,-4.58,
0.821,-6.97,-6.61,4.67,-3.06,1.00,-4.58,
0.822,-6.97,-6.61,4.67,-3.03,1.00,-4.63,
0.824,-6.97,-6.61,4.67,-3.00,0.99,-4.68,
0.827,-6.97,-6.61,4.67,-2.96,0.98,-4.72,
0.827,-7.40,-6.54,4.87,-2.96,0.98,-4.72,
0.829,-7.40,-6.54,4.87,-2.93,0.97,-4.77,
0.834,-7.40,-6.54,4.87,-2.90,0.96,-4.81,
0.834,-7.83,-6.40,5.08,-2.90,0.96,-4.81,
0.834,-7.83,-6.40,5.08,-2.86,0.95,-4.86,
0.836,-7.83,-6.40,5.08,-2.82,0.94,-4.90,
0.837,-8.29,-6.13,5.25,-2.82,0.94,-4.90,
0.839,-8.29,-6.13,5.25,-2.78,0.93,-4.93,
0.842,-8.29,-6.13,5.25,-2.73,0.93,-4.96,
0.842,-8.77,-5.80,5.45,-2.73,0.93,-4.96,
0.845,-8.77,-5.80,5.45,-2.69,0.92,-4.98,
0.848,-8.77,-5.80,5.45,-2.64,0.92,-5.00,
0.862,-9.20,-5.38,5.59,-2.64,0.92,-5.00,
0.862,-9.20,-5.38,5.59,-2.59,0.92,-5.01,
0.862,-9.20,-5.38,5.59,-2.54,0.91,-5.02,
0.863,-9.67,-4.94,5.76,-2.54,0.91,-5.02,
0.863,-9.67,-4.94,5.76,-2.48,0.91,-5.03,
0.863,-9.67,-4.94,5.76,-2.42,0.90,-5.03,
0.863,-10.07,-4.46,5.89,-2.42,0.90,-5.03,
0.863,-10.07,-4.46,5.89,-2.36,0.90,-5.02,
0.864,-10.42,-3.95,5.98,-2.36,0.90,-5.02,
0.864,-10.42,-3.95,5.98,-2.30,0.90,-5.02,
0.864,-10.42,-3.95,5.98,-2.24,0.89,-5.00,
0.866,-10.42,-3.95,5.98,-2.17,0.88,-4.99,
0.867,-10.76,-3.40,6.08,-2.17,0.88,-4.99,
0.87,-10.76,-3.40,6.08,-2.11,0.88,-4.97,
0.871,-10.76,-3.40,6.08,-2.04,0.87,-4.94,
0.871,-11.11,-2.80,6.16,-2.04,0.87,-4.94,
0.874,-11.11,-2.80,6.16,-1.97,0.86,-4.91,
0.876,-11.11,-2.80,6.16,-1.90,0.85,-4.88,
0.876,-11.45,-2.20,6.24,-1.90,0.85,-4.88,
0.879,-11.45,-2.20,6.24,-1.83,0.83,-4.84,
0.881,-11.74,-1.52,6.29,-1.83,0.83,-4.84,
0.882,-11.74,-1.52,6.29,-1.76,0.82,-4.79,
0.883,-11.74,-1.52,6.29,-1.69,0.80,-4.74,
0.886,-12.00,-0.83,6.33,-1.69,0.80,-4.74,
0.886,-12.00,-0.83,6.33,-1.62,0.78,-4.69,
0.888,-12.00,-0.83,6.33,-1.55,0.76,-4.62,
0.891,-12.18,-0.14,6.35,-1.55,0.76,-4.62,
0.891,-12.18,-0.14,6.35,-1.48,0.74,-4.55,
0.893,-12.18,-0.14,6.35,-1.42,0.72,-4.47,
0.896,-12.30,0.57,6.33,-1.42,0.72,-4.47,
0.896,-12.30,0.57,6.33,-1.36,0.69,-4.39,
0.899,-12.30,0.57,6.33,-1.30,0.67,-4.30,
0.903,-12.30,0.57,6.33,-1.25,0.64,-4.21,
0.903,-12.35,1.28,6.30,-1.25,0.64,-4.21,
0.903,-12.35,1.28,6.30,-1.20,0.60,-4.11,
0.907,-12.35,1.93,6.30,-1.20,0.60,-4.11,
0.908,-12.35,1.93,6.30,-1.16,0.57,-4.01,
0.908,-12.35,1.93,6.30,-1.12,0.53,-3.90,
0.911,-12.29,2.52,6.27,-1.12,0.53,-3.90,
0.911,-12.29,2.52,6.27,-1.09,0.49,-3.80,
0.914,-12.29,2.52,6.27,-1.06,0.45,-3.69,
0.917,-12.29,2.52,6.27,-1.04,0.40,-3.58,
0.92,-12.18,3.09,6.22,-1.04,0.40,-3.58,
0.92,-12.18,3.09,6.22,-1.02,0.35,-3.46,
0.923,-12.01,3.58,6.19,-1.02,0.35,-3.46,
0.923,-12.01,3.58,6.19,-1.01,0.29,-3.35,
0.926,-11.82,4.03,6.18,-1.01,0.29,-3.35,
0.926,-11.82,4.03,6.18,-0.99,0.24,-3.24,
0.927,-11.82,4.03,6.18,-0.98,0.18,-3.13,
0.929,-11.82,4.03,6.18,-0.97,0.11,-3.02,
0.944,-11.82,4.03,6.18,-0.96,0.04,-2.91,
0.944,-11.57,4.38,6.18,-0.96,0.04,-2.91,
0.944,-11.57,4.38,6.18,-0.95,-0.03,-2.81,
0.945,-11.30,4.64,6.17,-0.95,-0.03,-2.81,
0.945,-11.30,4.64,6.17,-0.94,-0.11,-2.71,
0.945,-11.30,4.64,6.17,-0.93,-0.20,-2.62,
0.945,-11.30,4.64,6.17,-0.92,-0.28,-2.54,
0.945,-11.02,4.84,6.09,-0.92,-0.28,-2.54,
0.946,-11.02,4.84,6.09,-0.90,-0.37,-2.46,
0.949,-11.02,4.84,6.09,-0.89,-0.46,-2.38,
0.949,-10.74,5.02,5.96,-0.89,-0.46,-2.38,
0.95,-10.74,5.02,5.96,-0.87,-0.55,-2.31,
0.954,-10.47,5.15,5.78,-0.87,-0.55,-2.31,
0.954,-10.47,5.15,5.78,-0.85,-0.64,-2.24,
0.955,-10.47,5.15,5.78,-0.83,-0.73,-2.17,
0.956,-10.47,5.15,5.78,-0.81,-0.81,-2.12,
0.956,-10.22,5.29,5.53,-0.81,-0.81,-2.12,
0.965,-10.22,5.29,5.53,-0.79,-0.89,-2.06,
0.966,-10.00,5.44,5.23,-0.79,-0.89,-2.06,
0.966,-10.00,5.44,5.23,-0.76,-0.97,-2.00,
0.966,-10.00,5.44,5.23,-0.74,-1.05,-1.95,
0.966,-10.00,5.44,5.23,-0.72,-1.12,-1.90,
0.967,-9.83,5.58,4.93,-0.72,-1.12,-1.90,
0.968,-9.83,5.58,4.93,-0.69,-1.18,-1.85,
0.97,-9.69,5.74,4.58,-0.69,-1.18,-1.85,
0.97,-9.69,5.74,4.58,-0.67,-1.24,-1.80,
0.972,-9.69,5.74,4.58,-0.65,-1.30,-1.76,
0.976,-9.69,5.74,4.58,-0.63,-1.35,-1.71,
0.976,-9.55,5.83,4.22,-0.63,-1.35,-1.71,
0.977,-9.55,5.83,4.22,-0.61,-1.39,-1.67,
0.98,-9.55,5.83,4.22,-0.59,-1.43,-1.62,
0.984,-9.42,5.89,3.84,-0.59,-1.43,-1.62,
0.985,-9.42,5.89,3.84,-0.58,-1.46,-1.58,
0.988,-9.42,5.89,3.84,-0.57,-1.49,-1.54,
0.988,-9.31,5.94,3.48,-0.57,-1.49,-1.54,
0.988,-9.31,5.94,3.48,-0.57,-1.51,-1.50,
0.99,-9.31,5.94,3.48,-0.57,-1.52,-1.46,
0.99,-9.13,5.98,3.12,-0.57,-1.52,-1.46,
0.993,-9.13,5.98,3.12,-0.57,-1.53,-1.42,
0.996,-9.13,5.98,3.12,-0.58,-1.54,-1.39,
0.997,-8.91,6.05,2.80,-0.58,-1.54,-1.39,
1.001,-8.91,6.05,2.80,-0.58,-1.54,-1.35,
1.001,-8.91,6.05,2.80,-0.60,-1.54,-1.32,
1.003,-8.67,6.17,2.50,-0.60,-1.54,-1.32,
1.004,-8.67,6.17,2.50,-0.61,-1.53,-1.28,
1.005,-8.67,6.17,2.50,-0.63,-1.53,-1.24,
1.006,-8.43,6.30,2.28,-0.63,-1.53,-1.24,
1.008,-8.43,6.30,2.28,-0.65,-1.52,-1.21,
1.01,-8.15,6.48,2.14,-0.65,-1.52,-1.21,
1.01,-8.15,6.48,2.14,-0.67,-1.50,-1.17,
1.037,-8.15,6.48,2.14,-0.69,-1.49,-1.14,
1.038,-7.88,6.67,2.04,-0.69,-1.49,-1.14,
1.038,-7.88,6.67,2.04,-0.71,-1.47,-1.10,
1.038,-7.88,6.67,2.04,-0.73,-1.45,-1.07,
1.039,-7.59,6.88,2.04,-0.73,-1.45,-1.07,
1.039,-7.59,6.88,2.04,-0.75,-1.42,-1.03,
1.04,-7.59,6.88,2.04,-0.77,-1.39,-1.00,
1.046,-7.59,6.88,2.04,-0.78,-1.36,-0.96,
1.046,-7.33,7.06,2.05,-0.78,-1.36,-0.96,
1.047,-7.33,7.06,2.05,-0.80,-1.32,-0.93,
1.047,-7.33,7.06,2.05,-0.82,-1.29,-0.89,
1.047,-7.09,7.19,2.10,-0.82,-1.29,-0.89,
1.047,-7.09,7.19,2.10,-0.83,-1.25,-0.85,
1.047,-7.09,7.19,2.10,-0.85,-1.20,-0.82,
1.048,-6.83,7.25,2.19,-0.85,-1.20,-0.82,
1.048,-6.83,7.25,2.19,-0.86,-1.16,-0.78,
1.048,-6.83,7.25,2.19,-0.87,-1.12,-0.74,
1.048,-6.59,7.29,2.32,-0.87,-1.12,-0.74,
1.048,-6.59,7.29,2.32,-0.88,-1.07,-0.71,
1.049,-6.59,7.29,2.32,-0.89,-1.03,-0.67,
1.049,-6.40,7.28,2.48,-0.89,-1.03,-0.67,
1.049,-6.40,7.28,2.48,-0.90,-0.99,-0.64,
1.054,-6.40,7.28,2.48,-0.90,-0.94,-0.60,
1.054,-6.20,7.22,2.67,-0.90,-0.94,-0.60,
1.055,-6.20,7.22,2.67,-0.90,-0.90,-0.57,
1.055,-6.06,7.11,2.89,-0.90,-0.90,-0.57,
1.055,-6.06,7.11,2.89,-0.90,-0.86,-0.53,
1.057,-6.06,7.11,2.89,-0.90,-0.81,-0.50,
1.061,-5.94,6.97,3.14,-0.90,-0.81,-0.50,
1.062,-5.94,6.97,3.14,-0.89,-0.77,-0.47,
1.062,-5.94,6.97,3.14,-0.88,-0.74,-0.44,
1.082,-5.94,6.97,3.14,-0.87,-0.70,-0.41,
1.082,-5.83,6.77,3.40,-0.87,-0.70,-0.41,
1.082,-5.83,6.77,3.40,-0.86,-0.67,-0.39,
1.082,-5.83,6.77,3.40,-0.84,-0.63,-0.36,
1.083,-5.76,6.52,3.64,-0.84,-0.63,-0.36,
1.083,-5.76,6.52,3.64,-0.82,-0.60,-0.34,
1.083,-5.69,6.26,3.89,-0.82,-0.60,-0.34,
1.083,-5.69,6.26,3.89,-0.80,-0.57,-0.32,
1.083,-5.69,6.26,3.89,-0.78,-0.54,-0.29,
1.083,-5.69,6.26,3.89,-0.76,-0.51,-0.27,
1.083,-5.63,6.02,4.15,-0.76,-0.51,-0.27,
1.083,-5.63,6.02,4.15,-0.73,-0.48,-0.25,
1.086,-5.63,6.02,4.15,-0.70,-0.45,-0.24,
1.087,-5.56,5.74,4.42,-0.70,-0.45,-0.24,
1.087,-5.56,5.74,4.42,-0.67,-0.43,-0.22,
1.091,-5.51,5.47,4.68,-0.67,-0.43,-0.22,
1.091,-5.51,5.47,4.68,-0.64,-0.40,-0.21,
1.093,-5.51,5.47,4.68,-0.61,-0.37,-0.20,
1.094,-5.46,5.26,4.94,-0.61,-0.37,-0.20,
1.094,-5.46,5.26,4.94,-0.57,-0.35,-0.19,
1.097,-5.46,5.26,4.94,-0.53,-0.32,-0.19,
1.101,-5.46,5.26,4.94,-0.49,-0.30,-0.18,
1.101,-5.47,5.11,5.16,-0.49,-0.30,-0.18,
1.103,-5.47,5.11,5.16,-0.45,-0.27,-0.18,
1.105,-5.47,5.11,5.16,-0.41,-0.25,-0.18,
1.105,-5.52,4.93,5.39,-0.41,-0.25,-0.18,
1.107,-5.52,4.93,5.39,-0.36,-0.23,-0.17,
1.109,-5.52,4.93,5.39,-0.31,-0.20,-0.17,
1.109,-5.66,4.79,5.58,-0.31,-0.20,-0.17,
1.111,-5.66,4.79,5.58,-0.26,-0.18,-0.17,
1.118,-5.66,4.79,5.58,-0.21,-0.16,-0.17,
1.12,-5.79,4.57,5.75,-0.21,-0.16,-0.17,
1.12,-5.79,4.57,5.75,-0.16,-0.14,-0.16,
1.12,-5.90,4.35,5.89,-0.16,-0.14,-0.16,
1.121,-5.90,4.35,5.89,-0.11,-0.11,-0.16,
1.123,-5.90,4.35,5.89,-0.05,-0.09,-0.16,
1.124,-6.05,4.15,5.97,-0.05,-0.09,-0.16,
1.125,-6.05,4.15,5.97,0.00,-0.06,-0.15,
1.126,-6.05,4.15,5.97,0.06,-0.02,-0.14,
1.129,-6.05,4.15,5.97,0.11,0.02,-0.13,
1.129,-6.18,3.93,6.02,0.11,0.02,-0.13,
1.147,-6.18,3.93,6.02,0.16,0.06,-0.13,
1.147,-6.28,3.66,6.05,0.16,0.06,-0.13,
1.148,-6.28,3.66,6.05,0.22,0.11,-0.12,
1.148,-6.28,3.66,6.05,0.27,0.16,-0.11,
1.148,-6.38,3.40,6.11,0.27,0.16,-0.11,
1.148,-6.38,3.40,6.11,0.33,0.22,-0.11,
1.148,-6.38,3.40,6.11,0.38,0.28,-0.11,
1.148,-6.57,3.16,6.20,0.38,0.28,-0.11,
1.149,-6.57,3.16,6.20,0.44,0.34,-0.12,
1.149,-6.57,3.16,6.20,0.51,0.41,-0.13,
1.15,-6.57,3.16,6.20,0.57,0.49,-0.14,
1.15,-6.86,2.90,6.28,0.57,0.49,-0.14,
1.152,-6.86,2.90,6.28,0.64,0.56,-0.16,
1.154,-7.27,2.69,6.38,0.64,0.56,-0.16,
1.154,-7.27,2.69,6.38,0.72,0.64,-0.18,
1.156,-7.27,2.69,6.38,0.80,0.73,-0.21,
1.159,-7.73,2.54,6.50,0.80,0.73,-0.21,
1.159,-7.73,2.54,6.50,0.89,0.82,-0.23,
1.161,-7.73,2.54,6.50,0.98,0.91,-0.26,
1.164,-8.32,2.49,6.63,0.98,0.91,-0.26,
1.167,-8.32,2.49,6.63,1.09,0.99,-0.29,
1.167,-8.32,2.49,6.63,1.20,1.08,-0.32,
1.169,-9.02,2.57,6.75,1.20,1.08,-0.32,
1.169,-9.02,2.57,6.75,1.31,1.17,-0.35,
1.172,-9.02,2.57,6.75,1.44,1.26,-0.37,
1.174,-9.02,2.57,6.75,1.57,1.34,-0.39,
1.174,-9.85,2.79,6.85,1.57,1.34,-0.39,
1.176,-9.85,2.79,6.85,1.70,1.41,-0.40,
1.187,-9.85,2.79,6.85,1.84,1.48,-0.40,
1.187,-10.75,3.13,6.89,1.84,1.48,-0.40,
1.188,-10.75,3.13,6.89,1.98,1.54,-0.40,
1.188,-10.75,3.13,6.89,2.13,1.59,-0.38,
1.188,-11.64,3.60,6.91,2.13,1.59,-0.38,
1.188,-11.64,3.60,6.91,2.27,1.63,-0.34,
1.188,-12.55,4.14,6.93,2.27,1.63,-0.34,
1.189,-12.55,4.14,6.93,2.41,1.66,-0.29,
1.191,-12.55,4.14,6.93,2.55,1.69,-0.23,
1.193,-12.55,4.14,6.93,2.69,1.71,-0.16,
1.194,-13.34,4.73,6.86,2.69,1.71,-0.16,
1.197,-13.34,4.73,6.86,2.82,1.72,-0.06,
1.198,-14.11,5.28,6.70,2.82,1.72,-0.06,
1.199,-14.11,5.28,6.70,2.94,1.74,0.05,
1.201,-14.11,5.28,6.70,3.06,1.75,0.17,
1.203,-14.11,5.28,6.70,3.17,1.75,0.31,
1.204,-14.81,5.75,6.46,3.17,1.75,0.31,
1.206,-14.81,5.75,6.46,3.26,1.75,0.46,
1.208,-15.36,6.07,6.12,3.26,1.75,0.46,
1.208,-15.36,6.07,6.12,3.34,1.75,0.62,
1.211,-15.36,6.07,6.12,3.41,1.75,0.79,
1.214,-15.76,6.23,5.75,3.41,1.75,0.79,
1.214,-15.76,6.23,5.75,3.47,1.75,0.98,
1.219,-15.76,6.23,5.75,3.51,1.74,1.17,
1.219,-15.97,6.27,5.37,3.51,1.74,1.17,
1.219,-15.97,6.27,5.37,3.54,1.72,1.37,
1.221,-15.97,6.27,5.37,3.55,1.70,1.58,
1.224,-16.00,6.22,4.95,3.55,1.70,1.58,
1.224,-16.00,6.22,4.95,3.56,1.67,1.79,
1.226,-16.00,6.22,4.95,3.55,1.63,2.01,
1.228,-15.86,6.01,4.51,3.55,1.63,2.01,
1.229,-15.86,6.01,4.51,3.53,1.59,2.23,
1.23,-15.86,6.01,4.51,3.50,1.55,2.45,
1.236,-15.86,6.01,4.51,3.46,1.50,2.67,
1.236,-15.50,5.63,4.07,3.46,1.50,2.67,
1.236,-15.50,5.63,4.07,3.42,1.46,2.89,
1.238,-15.50,5.63,4.07,3.37,1.42,3.10,
1.238,-14.99,5.06,3.69,3.37,1.42,3.10,
1.242,-14.99,5.06,3.69,3.31,1.37,3.31,
1.243,-14.44,4.31,3.38,3.31,1.37,3.31,
1.244,-14.44,4.31,3.38,3.25,1.33,3.51,
1.246,-14.44,4.31,3.38,3.20,1.29,3.69,
1.25,-14.44,4.31,3.38,3.13,1.25,3.87,
1.25,-13.91,3.40,3.13,3.13,1.25,3.87,
1.253,-13.91,3.40,3.13,3.07,1.21,4.03,
1.253,-13.50,2.37,2.94,3.07,1.21,4.03,
1.253,-13.50,2.37,2.94,3.01,1.17,4.19,
1.255,-13.50,2.37,2.94,2.96,1.14,4.33,
1.258,-13.50,2.37,2.94,2.90,1.10,4.47,
1.258,-13.18,1.27,2.79,2.90,1.10,4.47,
1.26,-13.18,1.27,2.79,2.85,1.08,4.60,
1.263,-13.18,1.27,2.79,2.80,1.05,4.72,
1.263,-12.91,0.11,2.64,2.80,1.05,4.72,
1.267,-12.91,0.11,2.64,2.75,1.03,4.83,
1.268,-12.75,-1.11,2.50,2.75,1.03,4.83,
1.268,-12.75,-1.11,2.50,2.70,1.01,4.94,
1.27,-12.75,-1.11,2.50,2.65,1.00,5.04,
1.273,-12.77,-2.35,2.30,2.65,1.00,5.04,
1.273,-12.77,-2.35,2.30,2.61,1.00,5.13,
1.275,-12.77,-2.35,2.30,2.57,1.00,5.22,
1.277,-12.77,-2.35,2.30,2.53,1.01,5.31,
1.278,-13.01,-3.67,2.14,2.53,1.01,5.31,
1.281,-13.01,-3.67,2.14,2.49,1.02,5.39,
1.284,-13.44,-5.05,2.00,2.49,1.02,5.39,
1.285,-13.44,-5.05,2.00,2.44,1.04,5.47,
1.286,-13.44,-5.05,2.00,2.41,1.07,5.54,
1.287,-13.44,-5.05,2.00,2.37,1.09,5.62,
1.288,-14.00,-6.47,1.88,2.37,1.09,5.62,
1.29,-14.00,-6.47,1.88,2.33,1.12,5.69,
1.292,-14.00,-6.47,1.88,2.29,1.13,5.76,
1.293,-14.55,-7.87,1.82,2.29,1.13,5.76,
1.295,-14.55,-7.87,1.82,2.25,1.14,5.83,
1.297,-14.55,-7.87,1.82,2.20,1.14,5.89,
1.299,-15.01,-9.17,1.85,2.20,1.14,5.89,
1.301,-15.01,-9.17,1.85,2.16,1.14,5.96,
1.302,-15.01,-9.17,1.85,2.11,1.12,6.03,
1.303,-15.44,-10.31,1.89,2.11,1.12,6.03,
1.305,-15.44,-10.31,1.89,2.05,1.08,6.09,
1.308,-15.44,-10.31,1.89,2.00,1.04,6.16,
1.308,-15.83,-11.38,1.96,2.00,1.04,6.16,
1.309,-15.83,-11.38,1.96,1.94,0.97,6.24,
1.312,-15.83,-11.38,1.96,1.89,0.88,6.31,
1.312,-16.16,-12.37,2.12,1.89,0.88,6.31,
1.315,-16.16,-12.37,2.12,1.83,0.77,6.38,
1.317,-16.16,-12.37,2.12,1.77,0.64,6.46,
1.317,-16.11,-13.16,2.35,1.77,0.64,6.46,
1.319,-16.11,-13.16,2.35,1.71,0.48,6.53,
1.322,-16.11,-13.16,2.35,1.65,0.30,6.60,
1.323,-15.57,-13.67,2.58,1.65,0.30,6.60,
1.324,-15.57,-13.67,2.58,1.60,0.11,6.67,
1.327,-15.57,-13.67,2.58,1.54,-0.10,6.73,
1.327,-14.67,-13.95,2.76,1.54,-0.10,6.73,
1.329,-14.67,-13.95,2.76,1.50,-0.30,6.79,
1.334,-13.27,-13.70,2.96,1.50,-0.30,6.79,
1.335,-13.27,-13.70,2.96,1.46,-0.49,6.83,
1.335,-13.27,-13.70,2.96,1.42,-0.66,6.87,
1.337,-13.27,-13.70,2.96,1.39,-0.81,6.92,
1.337,-12.06,-14.38,2.78,1.39,-0.81,6.92,
1.339,-12.06,-14.38,2.78,1.36,-0.92,6.95,
1.342,-12.06,-14.38,2.78,1.34,-0.98,6.96,
1.359,-10.74,-14.32,2.63,1.34,-0.98,6.96,
1.359,-10.74,-14.32,2.63,1.31,-1.06,6.99,
1.359,-9.58,-15.68,2.18,1.31,-1.06,6.99,
1.36,-9.58,-15.68,2.18,1.30,-1.18,7.03,
1.36,-9.58,-15.68,2.18,1.29,-1.34,7.09,
1.36,-8.67,-17.13,1.42,1.29,-1.34,7.09,
1.361,-8.67,-17.13,1.42,1.28,-1.52,7.17,
1.361,-8.67,-17.13,1.42,1.28,-1.72,7.24,
1.361,-7.64,-18.23,0.81,1.28,-1.72,7.24,
1.361,-7.64,-18.23,0.81,1.29,-1.93,7.31,
1.361,-7.64,-18.23,0.81,1.30,-2.12,7.38,
1.362,-7.64,-18.23,0.81,1.31,-2.30,7.42,
1.363,-6.27,-18.79,0.32,1.31,-2.30,7.42,
1.366,-6.27,-18.79,0.32,1.33,-2.43,7.44,
1.368,-4.57,-18.76,-0.03,1.33,-2.43,7.44,
1.369,-4.57,-18.76,-0.03,1.35,-2.51,7.43,
1.369,-4.57,-18.76,-0.03,1.38,-2.56,7.38,
1.372,-4.57,-18.76,-0.03,1.42,-2.56,7.30,
1.372,-2.71,-18.50,-0.39,1.42,-2.56,7.30,
1.374,-2.71,-18.50,-0.39,1.46,-2.53,7.19,
1.377,-2.71,-18.50,-0.39,1.50,-2.47,7.06,
1.377,-0.92,-18.14,-0.85,1.50,-2.47,7.06,
1.379,-0.92,-18.14,-0.85,1.55,-2.40,6.91,
1.382,-0.92,-18.14,-0.85,1.60,-2.33,6.74,
1.383,0.58,-17.73,-1.33,1.60,-2.33,6.74,
1.384,0.58,-17.73,-1.33,1.65,-2.24,6.57,
1.387,1.67,-17.34,-1.75,1.65,-2.24,6.57,
1.387,1.67,-17.34,-1.75,1.70,-2.14,6.39,
1.389,1.67,-17.34,-1.75,1.74,-2.03,6.21,
1.391,1.67,-17.34,-1.75,1.78,-1.90,6.04,
1.392,2.28,-16.96,-2.11,1.78,-1.90,6.04,
1.394,2.28,-16.96,-2.11,1.82,-1.76,5.86,
1.396,2.28,-16.96,-2.11,1.85,-1.60,5.69,
1.396,2.57,-16.63,-2.30,1.85,-1.60,5.69,
1.399,2.57,-16.63,-2.30,1.88,-1.44,5.52,
1.402,2.57,-16.63,-2.30,1.89,-1.28,5.36,
1.402,2.56,-16.35,-2.35,1.89,-1.28,5.36,
1.404,2.56,-16.35,-2.35,1.90,-1.11,5.20,
1.406,2.56,-16.35,-2.35,1.91,-0.96,5.05,
1.406,2.42,-16.06,-2.30,1.91,-0.96,5.05,
1.409,2.42,-16.06,-2.30,1.90,-0.81,4.90,
1.411,2.42,-16.06,-2.30,1.90,-0.68,4.77,
1.411,2.22,-15.77,-2.15,1.90,-0.68,4.77,
1.414,2.22,-15.77,-2.15,1.88,-0.57,4.64,
1.42,1.97,-15.43,-1.89,1.88,-0.57,4.64,
1.421,1.97,-15.43,-1.89,1.86,-0.48,4.51,
1.421,1.97,-15.43,-1.89,1.83,-0.40,4.40,
1.422,1.97,-15.43,-1.89,1.80,-0.33,4.29,
1.422,1.71,-15.07,-1.62,1.80,-0.33,4.29,
1.424,1.71,-15.07,-1.62,1.77,-0.28,4.19,
1.426,1.71,-15.07,-1.62,1.73,-0.24,4.10,
1.427,1.54,-14.68,-1.30,1.73,-0.24,4.10,
1.429,1.54,-14.68,-1.30,1.69,-0.20,4.02,
1.432,1.40,-14.25,-0.95,1.69,-0.20,4.02,
1.433,1.40,-14.25,-0.95,1.65,-0.18,3.95,
1.434,1.40,-14.25,-0.95,1.61,-0.16,3.88,
1.436,1.40,-14.25,-0.95,1.57,-0.16,3.82,
1.436,1.28,-13.80,-0.58,1.57,-0.16,3.82,
1.44,1.28,-13.80,-0.58,1.54,-0.16,3.77,
1.442,1.28,-13.80,-0.58,1.50,-0.18,3.73,
1.443,1.14,-13.45,-0.26,1.50,-0.18,3.73,
1.444,1.14,-13.45,-0.26,1.47,-0.20,3.69,
1.447,1.14,-13.45,-0.26,1.43,-0.23,3.65,
1.447,1.02,-13.21,0.04,1.43,-0.23,3.65,
1.451,1.02,-13.21,0.04,1.40,-0.27,3.62,
1.451,0.98,-13.07,0.25,1.40,-0.27,3.62,
1.451,0.98,-13.07,0.25,1.37,-0.32,3.59,
1.454,0.98,-13.07,0.25,1.35,-0.37,3.56,
1.456,0.98,-13.07,0.25,1.32,-0.43,3.54,
1.456,1.00,-12.94,0.42,1.32,-0.43,3.54,
1.458,1.00,-12.94,0.42,1.30,-0.48,3.52,
1.461,1.00,-12.94,0.42,1.27,-0.54,3.49,
1.461,1.06,-12.83,0.55,1.27,-0.54,3.49,
1.463,1.06,-12.83,0.55,1.25,-0.60,3.47,
1.467,1.22,-12.79,0.64,1.25,-0.60,3.47,
1.467,1.22,-12.79,0.64,1.23,-0.66,3.45,
1.472,1.41,-12.78,0.70,1.23,-0.66,3.45,
1.472,1.41,-12.78,0.70,1.22,-0.72,3.43,
1.472,1.41,-12.78,0.70,1.21,-0.78,3.41,
1.473,1.41,-12.78,0.70,1.20,-0.84,3.39,
1.476,1.41,-12.78,0.70,1.21,-0.90,3.38,
1.476,1.65,-12.78,0.72,1.21,-0.90,3.38,
1.478,1.65,-12.78,0.72,1.22,-0.96,3.36,
1.481,1.65,-12.78,0.72,1.23,-1.01,3.35,
1.482,1.92,-12.77,0.65,1.23,-1.01,3.35,
1.484,1.92,-12.77,0.65,1.25,-1.05,3.33,
1.486,1.92,-12.77,0.65,1.28,-1.08,3.31,
1.486,2.28,-12.80,0.50,1.28,-1.08,3.31,
1.488,2.28,-12.80,0.50,1.31,-1.11,3.29,
1.491,2.67,-12.83,0.27,1.31,-1.11,3.29,
1.491,2.67,-12.83,0.27,1.34,-1.12,3.26,
1.493,2.67,-12.83,0.27,1.38,-1.13,3.23,
1.496,2.67,-12.83,0.27,1.41,-1.14,3.20,
1.496,3.07,-12.87,0.01,1.41,-1.14,3.20,
1.499,3.07,-12.87,0.01,1.44,-1.14,3.16,
1.501,3.07,-12.87,0.01,1.47,-1.12,3.11,
1.502,3.44,-12.93,-0.33,1.47,-1.12,3.11,
1.503,3.44,-12.93,-0.33,1.50,-1.10,3.06,
1.506,3.44,-12.93,-0.33,1.53,-1.08,3.01,
1.506,3.76,-12.99,-0.65,1.53,-1.08,3.01,
1.52,3.76,-12.99,-0.65,1.54,-1.05,2.96,
1.521,3.76,-12.99,-0.65,1.56,-1.01,2.90,
1.521,4.04,-13.04,-0.92,1.56,-1.01,2.90,
1.521,4.04,-13.04,-0.92,1.57,-0.96,2.84,
1.521,4.29,-13.03,-1.17,1.57,-0.96,2.84,
1.521,4.29,-13.03,-1.17,1.58,-0.92,2.79,
1.522,4.29,-13.03,-1.17,1.59,-0.88,2.73,
1.522,4.53,-12.98,-1.35,1.59,-0.88,2.73,
1.522,4.53,-12.98,-1.35,1.59,-0.83,2.67,
1.531,4.53,-12.98,-1.35,1.59,-0.77,2.61,
1.532,4.53,-12.98,-1.35,1.59,-0.71,2.55,
1.532,4.75,-12.93,-1.50,1.59,-0.71,2.55,
1.533,4.75,-12.93,-1.50,1.59,-0.66,2.48,
1.533,4.92,-12.87,-1.60,1.59,-0.66,2.48,
1.534,4.92,-12.87,-1.60,1.58,-0.60,2.42,
1.534,4.92,-12.87,-1.60,1.58,-0.54,2.35,
1.536,4.92,-12.87,-1.60,1.57,-0.48,2.28,
1.537,5.04,-12.80,-1.65,1.57,-0.48,2.28,
1.538,5.04,-12.80,-1.65,1.56,-0.41,2.22,
1.543,5.04,-12.80,-1.65,1.54,-0.35,2.15,
1.543,5.13,-12.76,-1.65,1.54,-0.35,2.15,
1.544,5.13,-12.76,-1.65,1.53,-0.29,2.08,
1.545,5.13,-12.76,-1.65,1.51,-0.23,2.01,
1.546,5.16,-12.74,-1.66,1.51,-0.23,2.01,
1.548,5.16,-12.74,-1.66,1.49,-0.18,1.94,
1.552,5.11,-12.74,-1.61,1.49,-0.18,1.94,
1.553,5.11,-12.74,-1.61,1.47,-0.13,1.87,
1.553,5.11,-12.74,-1.61,1.45,-0.08,1.80,
1.556,5.02,-12.77,-1.54,1.45,-0.08,1.80,
1.556,5.02,-12.77,-1.54,1.43,-0.04,1.73,
1.557,5.02,-12.77,-1.54,1.40,0.00,1.66,
1.56,5.02,-12.77,-1.54,1.38,0.03,1.59,
1.561,4.90,-12.80,-1.43,1.38,0.03,1.59,
1.563,4.90,-12.80,-1.43,1.35,0.06,1.52,
1.569,4.90,-12.80,-1.43,1.33,0.08,1.46,
1.569,4.77,-12.86,-1.31,1.33,0.08,1.46,
1.569,4.77,-12.86,-1.31,1.31,0.10,1.39,
1.57,4.63,-12.86,-1.18,1.31,0.10,1.39,
1.57,4.63,-12.86,-1.18,1.28,0.11,1.33,
1.572,4.63,-12.86,-1.18,1.26,0.12,1.27,
1.575,4.63,-12.86,-1.18,1.24,0.12,1.21,
1.575,4.58,-12.87,-1.12,1.24,0.12,1.21,
1.578,4.58,-12.87,-1.12,1.22,0.13,1.16,
1.581,4.58,-12.87,-1.12,1.20,0.13,1.10,
1.581,4.54,-12.83,-1.06,1.20,0.13,1.10,
1.584,4.54,-12.83,-1.06,1.18,0.13,1.05,
1.586,4.53,-12.80,-1.04,1.18,0.13,1.05,
1.586,4.53,-12.80,-1.04,1.17,0.13,0.99,
1.588,4.53,-12.80,-1.04,1.15,0.13,0.94,
1.59,4.53,-12.80,-1.04,1.13,0.13,0.89,
1.59,4.58,-12.74,-1.05,1.13,0.13,0.89,
1.592,4.58,-12.74,-1.05,1.11,0.13,0.84,
1.595,4.58,-12.74,-1.05,1.09,0.14,0.78,
1.595,4.65,-12.72,-1.10,1.09,0.14,0.78,
1.597,4.65,-12.72,-1.10,1.07,0.14,0.73,
1.6,4.65,-12.72,-1.10,1.05,0.15,0.67,
1.601,4.72,-12.69,-1.13,1.05,0.15,0.67,
1.603,4.72,-12.69,-1.13,1.02,0.16,0.61,
1.605,4.72,-12.69,-1.13,1.00,0.17,0.55,
1.605,4.74,-12.69,-1.17,1.00,0.17,0.55,
1.607,4.74,-12.69,-1.17,0.98,0.19,0.49,
1.61,4.74,-12.69,-1.17,0.96,0.21,0.43,
1.61,4.73,-12.71,-1.20,0.96,0.21,0.43,
1.612,4.73,-12.71,-1.20,0.94,0.23,0.37,
1.621,4.73,-12.71,-1.20,0.92,0.25,0.31,
1.623,4.70,-12.80,-1.18,0.92,0.25,0.31,
1.623,4.70,-12.80,-1.18,0.90,0.27,0.24,
1.624,4.68,-12.98,-1.15,0.90,0.27,0.24,
1.624,4.68,-12.98,-1.15,0.88,0.28,0.17,
1.624,4.68,-12.98,-1.15,0.86,0.30,0.09,
1.625,4.68,-12.98,-1.15,0.84,0.31,0.02,
1.625,4.65,-13.15,-1.14,0.84,0.31,0.02,
1.627,4.65,-13.15,-1.14,0.82,0.33,-0.06,
1.63,4.67,-13.26,-1.15,0.82,0.33,-0.06,
1.63,4.67,-13.26,-1.15,0.79,0.34,-0.14,
1.64,4.67,-13.26,-1.15,0.77,0.36,-0.23,
1.641,4.65,-13.35,-1.15,0.77,0.36,-0.23,
1.641,4.65,-13.35,-1.15,0.75,0.37,-0.32,
1.641,4.65,-13.35,-1.15,0.72,0.40,-0.41,
1.641,4.62,-13.41,-1.12,0.72,0.40,-0.41,
1.642,4.62,-13.41,-1.12,0.70,0.41,-0.51,
1.642,4.62,-13.41,-1.12,0.67,0.43,-0.61,
1.645,4.62,-13.41,-1.12,0.64,0.45,-0.71,
1.645,4.59,-13.46,-1.08,0.64,0.45,-0.71,
1.647,4.59,-13.46,-1.08,0.61,0.47,-0.81,
1.65,4.54,-13.50,-0.99,0.61,0.47,-0.81,
1.65,4.54,-13.50,-0.99,0.58,0.49,-0.92,
1.652,4.54,-13.50,-0.99,0.55,0.50,-1.02,
1.654,4.54,-13.50,-0.99,0.52,0.51,-1.13,
1.654,4.51,-13.53,-0.88,0.52,0.51,-1.13,
1.657,4.51,-13.53,-0.88,0.48,0.52,-1.24,
1.659,4.51,-13.53,-0.88,0.44,0.53,-1.35,
1.66,4.46,-13.55,-0.78,0.44,0.53,-1.35,
1.662,4.46,-13.55,-0.78,0.41,0.53,-1.46,
1.664,4.46,-13.55,-0.78,0.37,0.53,-1.57,
1.664,4.38,-13.57,-0.68,0.37,0.53,-1.57,
1.667,4.38,-13.57,-0.68,0.33,0.53,-1.68,
1.669,4.29,-13.63,-0.57,0.33,0.53,-1.68,
1.67,4.29,-13.63,-0.57,0.28,0.53,-1.79,
1.674,4.29,-13.63,-0.57,0.24,0.53,-1.91,
1.685,4.29,-13.63,-0.57,0.20,0.51,-2.02,
1.686,4.20,-13.73,-0.47,0.20,0.51,-2.02,
1.686,4.20,-13.73,-0.47,0.15,0.50,-2.15,
1.686,4.20,-13.73,-0.47,0.10,0.48,-2.28,
1.686,4.13,-13.91,-0.36,0.10,0.48,-2.28,
1.688,4.13,-13.91,-0.36,0.05,0.45,-2.41,
1.688,4.12,-14.09,-0.22,0.05,0.45,-2.41,
1.688,4.12,-14.09,-0.22,0.00,0.43,-2.55,
1.688,4.12,-14.09,-0.22,-0.05,0.40,-2.70,
1.695,4.12,-14.09,-0.22,-0.10,0.37,-2.85,
1.695,4.13,-14.34,-0.08,-0.10,0.37,-2.85,
1.695,4.17,-14.77,0.09,-0.10,0.37,-2.85,
1.695,4.17,-14.77,0.09,-0.15,0.34,-3.02,
1.696,4.17,-14.77,0.09,-0.21,0.30,-3.20,
1.696,4.17,-14.77,0.09,-0.26,0.25,-3.39,
1.7,4.35,-15.25,0.30,-0.26,0.25,-3.39,
1.701,4.35,-15.25,0.30,-0.32,0.19,-3.58,
1.702,4.35,-15.25,0.30,-0.38,0.13,-3.79,
1.704,4.35,-15.25,0.30,-0.44,0.06,-4.00,
1.704,4.55,-15.62,0.40,-0.44,0.06,-4.00,
1.706,4.55,-15.62,0.40,-0.50,-0.01,-4.22,
1.709,4.55,-15.62,0.40,-0.56,-0.09,-4.45,
1.71,4.61,-15.91,0.43,-0.56,-0.09,-4.45,
1.711,4.61,-15.91,0.43,-0.62,-0.15,-4.68,
1.714,4.61,-15.91,0.43,-0.68,-0.20,-4.91,
1.714,4.45,-16.12,0.31,-0.68,-0.20,-4.91,
1.72,4.45,-16.12,0.31,-0.73,-0.23,-5.14,
1.722,4.45,-16.12,0.31,-0.78,-0.24,-5.37,
1.722,4.02,-16.26,0.00,-0.78,-0.24,-5.37,
1.722,4.02,-16.26,0.00,-0.82,-0.22,-5.60,
1.724,4.02,-16.26,0.00,-0.87,-0.18,-5.82,
1.724,3.54,-16.32,-0.38,-0.87,-0.18,-5.82,
1.727,3.54,-16.32,-0.38,-0.92,-0.12,-6.03,
1.73,3.44,-16.15,-0.60,-0.92,-0.12,-6.03,
1.73,3.44,-16.15,-0.60,-0.96,-0.05,-6.23,
1.732,3.44,-16.15,-0.60,-0.99,0.03,-6.43,
1.749,3.54,-15.85,-0.65,-0.99,0.03,-6.43,
1.749,3.54,-15.85,-0.65,-1.02,0.12,-6.63,
1.749,3.54,-15.85,-0.65,-1.04,0.22,-6.83,
1.75,3.54,-15.85,-0.65,-1.06,0.33,-7.04,
1.75,3.37,-15.50,-0.78,-1.06,0.33,-7.04,
1.75,3.37,-15.50,-0.78,-1.08,0.45,-7.25,
1.75,3.37,-15.50,-0.78,-1.09,0.59,-7.46,
1.75,2.72,-15.20,-1.19,-1.09,0.59,-7.46,
1.75,2.72,-15.20,-1.19,-1.10,0.75,-7.67,
1.751,1.60,-14.94,-1.67,-1.10,0.75,-7.67,
1.753,1.60,-14.94,-1.67,-1.12,0.92,-7.87,
1.753,1.60,-14.94,-1.67,-1.13,1.10,-8.05,
1.753,1.60,-14.94,-1.67,-1.15,1.27,-8.21,
1.754,0.07,-14.81,-2.05,-1.15,1.27,-8.21,
1.757,0.07,-14.81,-2.05,-1.17,1.44,-8.36,
1.759,0.07,-14.81,-2.05,-1.18,1.60,-8.48,
1.759,-1.81,-14.70,-2.19,-1.18,1.60,-8.48,
1.761,-1.81,-14.70,-2.19,-1.20,1.75,-8.57,
1.764,-1.81,-14.70,-2.19,-1.22,1.86,-8.64,
1.764,-3.85,-14.66,-2.05,-1.22,1.86,-8.64,
1.768,-3.85,-14.66,-2.05,-1.25,1.95,-8.69,
1.769,-5.66,-14.60,-1.66,-1.25,1.95,-8.69,
1.769,-5.66,-14.60,-1.66,-1.27,2.01,-8.72,
1.772,-5.66,-14.60,-1.66,-1.29,2.04,-8.72,
1.774,-5.66,-14.60,-1.66,-1.31,2.04,-8.70,
1.774,-7.31,-14.13,-1.14,-1.31,2.04,-8.70,
1.776,-7.31,-14.13,-1.14,-1.33,2.03,-8.66,
1.779,-7.31,-14.13,-1.14,-1.35,2.00,-8.59,
1.779,-8.90,-13.28,-0.61,-1.35,2.00,-8.59,
1.781,-8.90,-13.28,-0.61,-1.36,1.96,-8.50,
1.784,-10.31,-12.34,-0.05,-1.36,1.96,-8.50,
1.785,-10.31,-12.34,-0.05,-1.37,1.91,-8.40,
1.786,-10.31,-12.34,-0.05,-1.36,1.84,-8.27,
1.789,-11.46,-11.46,0.58,-1.36,1.84,-8.27,
1.789,-11.46,-11.46,0.58,-1.36,1.75,-8.14,
1.791,-11.46,-11.46,0.58,-1.35,1.65,-7.99,
1.794,-12.17,-10.52,1.16,-1.35,1.65,-7.99,
1.794,-12.17,-10.52,1.16,-1.33,1.53,-7.82,
1.796,-12.17,-10.52,1.16,-1.32,1.40,-7.65,
1.799,-12.17,-10.52,1.16,-1.30,1.27,-7.46,
1.801,-12.44,-9.59,1.57,-1.30,1.27,-7.46,
1.802,-12.44,-9.59,1.57,-1.29,1.14,-7.28,
1.804,-12.44,-9.59,1.57,-1.29,1.01,-7.09,
1.804,-12.40,-8.74,1.76,-1.29,1.01,-7.09,
1.806,-12.40,-8.74,1.76,-1.28,0.87,-6.91,
1.808,-12.40,-8.74,1.76,-1.28,0.74,-6.73,
1.809,-12.09,-8.12,1.58,-1.28,0.74,-6.73,
1.811,-12.09,-8.12,1.58,-1.29,0.63,-6.56,
1.813,-12.09,-8.12,1.58,-1.31,0.52,-6.39,
1.814,-11.77,-7.68,1.16,-1.31,0.52,-6.39,
1.818,-11.77,-7.68,1.16,-1.34,0.39,-6.23,
1.819,-11.77,-7.68,1.16,-1.38,0.25,-6.07,
1.819,-11.07,-7.48,1.09,-1.38,0.25,-6.07,
1.821,-11.07,-7.48,1.09,-1.43,0.11,-5.94,
1.823,-11.07,-7.48,1.09,-1.50,-0.02,-5.81,
1.823,-10.42,-7.40,0.65,-1.50,-0.02,-5.81,
1.825,-10.42,-7.40,0.65,-1.58,-0.14,-5.71,
1.828,-10.42,-7.40,0.65,-1.66,-0.25,-5.62,
1.828,-9.81,-7.46,0.16,-1.66,-0.25,-5.62,
1.83,-9.81,-7.46,0.16,-1.76,-0.35,-5.54,
1.835,-9.19,-7.67,-0.16,-1.76,-0.35,-5.54,
1.836,-9.19,-7.67,-0.16,-1.86,-0.45,-5.48,
1.836,-9.19,-7.67,-0.16,-1.97,-0.53,-5.43,
1.838,-8.55,-7.86,-0.32,-1.97,-0.53,-5.43,
1.859,-8.55,-7.86,-0.32,-2.08,-0.61,-5.39,
1.859,-8.55,-7.86,-0.32,-2.19,-0.68,-5.36,
1.86,-8.55,-7.86,-0.32,-2.30,-0.73,-5.34,
1.86,-8.06,-7.83,-0.42,-2.30,-0.73,-5.34,
1.86,-8.06,-7.83,-0.42,-2.41,-0.75,-5.33,
1.861,-8.06,-7.83,-0.42,-2.51,-0.75,-5.32,
1.861,-7.79,-7.59,-0.41,-2.51,-0.75,-5.32,
1.861,-7.79,-7.59,-0.41,-2.60,-0.74,-5.32,
1.861,-7.79,-7.59,-0.41,-2.68,-0.71,-5.32,
1.862,-7.78,-7.35,-0.24,-2.68,-0.71,-5.32,
1.862,-7.78,-7.35,-0.24,-2.75,-0.67,-5.32,
1.862,-7.78,-7.35,-0.24,-2.81,-0.62,-5.32,
1.862,-8.02,-7.13,0.02,-2.81,-0.62,-5.32,
1.862,-8.02,-7.13,0.02,-2.87,-0.57,-5.31,
1.868,-8.02,-7.13,0.02,-2.91,-0.51,-5.30,
1.869,-8.41,-6.95,0.35,-2.91,-0.51,-5.30,
1.869,-8.41,-6.95,0.35,-2.95,-0.45,-5.28,
1.869,-8.41,-6.95,0.35,-2.98,-0.38,-5.27,
1.87,-8.80,-6.80,0.80,-2.98,-0.38,-5.27,
1.872,-8.80,-6.80,0.80,-3.00,-0.33,-5.24,
1.873,-9.13,-6.63,1.45,-3.00,-0.33,-5.24,
1.873,-9.13,-6.63,1.45,-3.01,-0.27,-5.22,
1.875,-9.13,-6.63,1.45,-3.00,-0.23,-5.20,
1.878,-9.13,-6.63,1.45,-2.99,-0.19,-5.18,
1.878,-9.39,-6.35,2.21,-2.99,-0.19,-5.18,
1.88,-9.39,-6.35,2.21,-2.97,-0.15,-5.15,
1.884,-9.39,-6.35,2.21,-2.93,-0.12,-5.13,
1.885,-9.50,-5.87,3.00,-2.93,-0.12,-5.13,
1.886,-9.50,-5.87,3.00,-2.88,-0.09,-5.11,
1.889,-9.50,-5.87,3.00,-2.82,-0.07,-5.08,
1.889,-9.50,-5.22,3.74,-2.82,-0.07,-5.08,
1.892,-9.50,-5.22,3.74,-2.75,-0.05,-5.06,
1.892,-9.52,-4.51,4.34,-2.75,-0.05,-5.06,
1.893,-9.52,-4.51,4.34,-2.67,-0.04,-5.04,
1.895,-9.52,-4.51,4.34,-2.59,-0.04,-5.03,
1.899,-9.52,-4.51,4.34,-2.49,-0.05,-5.01,
1.899,-9.65,-3.74,4.80,-2.49,-0.05,-5.01,
1.901,-9.65,-3.74,4.80,-2.40,-0.07,-4.99,
1.903,-9.89,-2.91,5.10,-2.40,-0.07,-4.99,
1.903,-9.89,-2.91,5.10,-2.29,-0.10,-4.96,
1.905,-9.89,-2.91,5.10,-2.19,-0.13,-4.93,
1.907,-9.89,-2.91,5.10,-2.08,-0.17,-4.90,
1.907,-10.16,-2.03,5.23,-2.08,-0.17,-4.90,
1.911,-10.16,-2.03,5.23,-1.98,-0.21,-4.86,
1.912,-10.16,-2.03,5.23,-1.87,-0.25,-4.81,
1.912,-10.38,-1.12,5.22,-1.87,-0.25,-4.81,
1.915,-10.38,-1.12,5.22,-1.77,-0.28,-4.76,
1.918,-10.38,-1.12,5.22,-1.67,-0.32,-4.70,
1.919,-10.53,-0.24,5.11,-1.67,-0.32,-4.70,
1.92,-10.53,-0.24,5.11,-1.57,-0.35,-4.64,
1.922,-10.53,-0.24,5.11,-1.47,-0.38,-4.58,
1.923,-10.67,0.56,4.90,-1.47,-0.38,-4.58,
1.925,-10.67,0.56,4.90,-1.38,-0.41,-4.52,
1.927,-10.67,0.56,4.90,-1.29,-0.44,-4.46,
1.927,-10.75,1.33,4.72,-1.29,-0.44,-4.46,
1.93,-10.75,1.33,4.72,-1.20,-0.47,-4.40,
1.932,-10.75,1.33,4.72,-1.11,-0.50,-4.34,
1.933,-10.77,2.11,4.54,-1.11,-0.50,-4.34,
1.939,-10.77,2.11,4.54,-1.03,-0.52,-4.27,
1.94,-10.77,2.11,4.54,-0.95,-0.54,-4.21,
1.94,-10.72,2.92,4.31,-0.95,-0.54,-4.21,
1.941,-10.72,2.92,4.31,-0.88,-0.57,-4.14,
1.943,-10.72,2.92,4.31,-0.80,-0.59,-4.07,
1.943,-10.70,3.73,4.07,-0.80,-0.59,-4.07,
1.947,-10.73,4.54,3.86,-0.80,-0.59,-4.07,
1.949,-10.73,4.54,3.86,-0.74,-0.61,-4.00,
1.95,-10.73,4.54,3.86,-0.67,-0.63,-3.93,
1.95,-10.73,4.54,3.86,-0.61,-0.65,-3.86,
1.966,-10.73,4.54,3.86,-0.56,-0.66,-3.78,
1.966,-10.79,5.30,3.59,-0.56,-0.66,-3.78,
1.967,-10.79,5.30,3.59,-0.51,-0.67,-3.69,
1.967,-10.79,5.30,3.59,-0.47,-0.67,-3.60,
1.968,-10.85,6.02,3.32,-0.47,-0.67,-3.60,
1.968,-10.85,6.02,3.32,-0.43,-0.67,-3.50,
1.969,-10.85,6.02,3.32,-0.40,-0.67,-3.40,
1.969,-10.99,6.68,3.03,-0.40,-0.67,-3.40,
1.969,-10.99,6.68,3.03,-0.38,-0.66,-3.28,
1.97,-11.18,7.28,2.69,-0.38,-0.66,-3.28,
1.97,-11.18,7.28,2.69,-0.36,-0.64,-3.16,
1.972,-11.27,7.80,2.43,-0.36,-0.64,-3.16,
1.972,-11.27,7.80,2.43,-0.35,-0.61,-3.03,
1.973,-11.27,7.80,2.43,-0.35,-0.59,-2.89,
1.974,-11.27,7.80,2.43,-0.35,-0.58,-2.75,
1.977,-11.27,7.80,2.43,-0.35,-0.56,-2.60,
1.977,-11.17,8.21,2.37,-0.35,-0.56,-2.60,
1.979,-11.17,8.21,2.37,-0.36,-0.56,-2.45,
1.982,-11.17,8.21,2.37,-0.37,-0.57,-2.29,
1.982,-10.87,8.50,2.44,-0.37,-0.57,-2.29,
1.986,-10.87,8.50,2.44,-0.38,-0.60,-2.14,
1.987,-10.87,8.50,2.44,-0.39,-0.63,-1.99,
1.987,-10.51,8.67,2.64,-0.39,-0.63,-1.99,
1.989,-10.51,8.67,2.64,-0.40,-0.67,-1.84,
1.992,-10.51,8.67,2.64,-0.40,-0.72,-1.70,
1.992,-10.13,8.75,2.85,-0.40,-0.72,-1.70,
1.994,-10.13,8.75,2.85,-0.40,-0.77,-1.57,
1.997,-10.13,8.75,2.85,-0.41,-0.83,-1.44,
1.997,-9.67,8.68,3.07,-0.41,-0.83,-1.44,
1.999,-9.67,8.68,3.07,-0.41,-0.90,-1.32,
2.002,-9.13,8.52,3.25,-0.41,-0.90,-1.32,
2.003,-9.13,8.52,3.25,-0.40,-0.97,-1.21,
2.026,-9.13,8.52,3.25,-0.40,-1.04,-1.11,
2.027,-9.13,8.52,3.25,-0.39,-1.12,-1.02,
2.027,-8.61,8.33,3.41,-0.39,-1.12,-1.02,
2.027,-8.61,8.33,3.41,-0.38,-1.20,-0.94,
2.028,-8.61,8.33,3.41,-0.37,-1.29,-0.86,
2.028,-8.21,8.08,3.49,-0.37,-1.29,-0.86,
2.028,-8.21,8.08,3.49,-0.36,-1.38,-0.80,
2.029,-8.21,8.08,3.49,-0.34,-1.48,-0.74,
2.029,-7.74,7.77,3.48,-0.34,-1.48,-0.74,
2.029,-7.74,7.77,3.48,-0.33,-1.57,-0.69,
2.03,-7.74,7.77,3.48,-0.32,-1.66,-0.65,
2.03,-7.22,7.55,3.37,-0.32,-1.66,-0.65,
2.03,-7.22,7.55,3.37,-0.31,-1.75,-0.62,
2.031,-7.22,7.55,3.37,-0.31,-1.84,-0.59,
2.031,-6.75,7.37,3.17,-0.31,-1.84,-0.59,
2.032,-6.75,7.37,3.17,-0.31,-1.92,-0.57,
2.032,-6.75,7.37,3.17,-0.31,-2.00,-0.56,
2.032,-6.31,7.24,2.92,-0.31,-2.00,-0.56,
2.039,-6.31,7.24,2.92,-0.32,-2.08,-0.55,
2.039,-6.31,7.24,2.92,-0.33,-2.14,-0.54,
2.04,-5.95,7.09,2.53,-0.33,-2.14,-0.54,
2.04,-5.95,7.09,2.53,-0.35,-2.20,-0.55,
2.042,-5.95,7.09,2.53,-0.37,-2.24,-0.55,
2.043,-5.66,6.96,2.03,-0.37,-2.24,-0.55,
2.044,-5.66,6.96,2.03,-0.39,-2.28,-0.56,
2.047,-5.66,6.96,2.03,-0.42,-2.30,-0.57,
2.047,-5.43,6.83,1.48,-0.42,-2.30,-0.57,
2.049,-5.43,6.83,1.48,-0.45,-2.30,-0.58,
2.063,-5.43,6.83,1.48,-0.49,-2.30,-0.59,
2.063,-5.28,6.72,0.99,-0.49,-2.30,-0.59,
2.063,-5.28,6.72,0.99,-0.53,-2.29,-0.61,
2.063,-5.28,6.72,0.99,-0.58,-2.28,-0.62,
2.063,-5.18,6.62,0.59,-0.58,-2.28,-0.62,
2.063,-5.18,6.62,0.59,-0.63,-2.25,-0.64,
2.064,-5.18,6.62,0.59,-0.68,-2.21,-0.65,
2.064,-5.13,6.53,0.26,-0.68,-2.21,-0.65,
2.064,-5.13,6.53,0.26,-0.74,-2.17,-0.66,
2.067,-5.13,6.53,0.26,-0.79,-2.12,-0.67,
2.067,-5.12,6.46,0.03,-0.79,-2.12,-0.67,
2.07,-5.12,6.46,0.03,-0.85,-2.07,-0.68,
2.074,-5.15,6.40,-0.11,-0.85,-2.07,-0.68,
2.074,-5.15,6.40,-0.11,-0.91,-2.02,-0.68,
2.074,-5.15,6.40,-0.11,-0.97,-1.96,-0.69,
2.076,-5.15,6.40,-0.11,-1.03,-1.91,-0.69,
2.076,-5.18,6.42,-0.15,-1.03,-1.91,-0.69,
2.078,-5.18,6.42,-0.15,-1.09,-1.85,-0.69,
2.081,-5.19,6.46,-0.10,-1.09,-1.85,-0.69,
2.081,-5.19,6.46,-0.10,-1.14,-1.79,-0.69,
2.084,-5.19,6.46,-0.10,-1.20,-1.73,-0.68,
2.086,-5.19,6.46,-0.10,-1.25,-1.67,-0.68,
2.086,-5.17,6.55,0.00,-1.25,-1.67,-0.68,
2.088,-5.17,6.55,0.00,-1.29,-1.61,-0.67,
2.091,-5.17,6.55,0.00,-1.34,-1.55,-0.65,
2.091,-5.13,6.68,0.15,-1.34,-1.55,-0.65,
2.093,-5.13,6.68,0.15,-1.38,-1.48,-0.64,
2.096,-5.12,6.78,0.34,-1.38,-1.48,-0.64,
2.096,-5.12,6.78,0.34,-1.41,-1.41,-0.62,
2.098,-5.12,6.78,0.34,-1.44,-1.34,-0.60,
2.101,-5.12,6.78,0.34,-1.47,-1.26,-0.58,
2.101,-5.21,6.79,0.65,-1.47,-1.26,-0.58,
2.103,-5.21,6.79,0.65,-1.49,-1.20,-0.56,
2.106,-5.30,6.69,0.98,-1.49,-1.20,-0.56,
2.106,-5.30,6.69,0.98,-1.51,-1.13,-0.54,
2.108,-5.30,6.69,0.98,-1.52,-1.07,-0.52,
2.111,-5.30,6.69,0.98,-1.53,-1.00,-0.50,
2.112,-5.32,6.56,1.37,-1.53,-1.00,-0.50,
2.113,-5.32,6.56,1.37,-1.53,-0.94,-0.48,
2.116,-5.32,6.56,1.37,-1.54,-0.88,-0.45,
2.116,-5.26,6.40,1.78,-1.54,-0.88,-0.45,
2.119,-5.26,6.40,1.78,-1.53,-0.82,-0.43,
2.128,-5.26,6.40,1.78,-1.53,-0.76,-0.41,
2.129,-5.24,6.23,2.21,-1.53,-0.76,-0.41,
2.129,-5.24,6.23,2.21,-1.52,-0.70,-0.40,
2.129,-5.24,6.23,2.21,-1.50,-0.64,-0.38,
2.13,-5.21,6.03,2.59,-1.50,-0.64,-0.38,
2.13,-5.21,6.03,2.59,-1.49,-0.58,-0.37,
2.131,-5.21,6.03,2.59,-1.47,-0.52,-0.36,
2.131,-5.14,5.83,3.01,-1.47,-0.52,-0.36,
2.141,-5.14,5.83,3.01,-1.45,-0.47,-0.35,
2.141,-5.09,5.64,3.39,-1.45,-0.47,-0.35,
2.141,-5.09,5.64,3.39,-1.42,-0.41,-0.35,
2.141,-5.09,5.64,3.39,-1.39,-0.36,-0.35,
2.142,-5.12,5.48,3.75,-1.39,-0.36,-0.35,
2.142,-5.12,5.48,3.75,-1.36,-0.31,-0.35,
2.143,-5.12,5.48,3.75,-1.32,-0.26,-0.35,
2.146,-5.12,5.48,3.75,-1.28,-0.21,-0.36,
2.146,-5.29,5.31,4.12,-1.28,-0.21,-0.36,
2.148,-5.29,5.31,4.12,-1.23,-0.16,-0.37,
2.151,-5.63,5.15,4.46,-1.23,-0.16,-0.37,
2.151,-5.63,5.15,4.46,-1.18,-0.11,-0.38,
2.153,-5.63,5.15,4.46,-1.13,-0.06,-0.39,
2.155,-5.63,5.15,4.46,-1.07,-0.02,-0.40,
2.156,-6.01,5.02,4.82,-1.07,-0.02,-0.40,
2.158,-6.01,5.02,4.82,-1.01,0.02,-0.41,
2.16,-6.01,5.02,4.82,-0.94,0.06,-0.42,
2.16,-6.34,4.92,5.14,-0.94,0.06,-0.42,
2.163,-6.34,4.92,5.14,-0.87,0.09,-0.43,
2.165,-6.34,4.92,5.14,-0.79,0.12,-0.44,
2.165,-6.66,4.85,5.39,-0.79,0.12,-0.44,
2.168,-6.66,4.85,5.39,-0.71,0.15,-0.45,
2.182,-6.66,4.85,5.39,-0.63,0.18,-0.46,
2.182,-7.01,4.79,5.58,-0.63,0.18,-0.46,
2.183,-7.01,4.79,5.58,-0.55,0.23,-0.46,
2.183,-7.01,4.79,5.58,-0.45,0.27,-0.47,
2.183,-7.45,4.73,5.73,-0.45,0.27,-0.47,
2.183,-7.45,4.73,5.73,-0.36,0.33,-0.48,
2.184,-7.45,4.73,5.73,-0.27,0.39,-0.49,
2.184,-7.98,4.64,5.81,-0.27,0.39,-0.49,
2.184,-7.98,4.64,5.81,-0.17,0.46,-0.50,
2.189,-8.65,4.56,5.88,-0.17,0.46,-0.50,
2.189,-8.65,4.56,5.88,-0.07,0.54,-0.51,
2.189,-8.65,4.56,5.88,0.04,0.62,-0.52,
2.19,-8.65,4.56,5.88,0.16,0.71,-0.53,
2.19,-9.53,4.45,5.96,0.16,0.71,-0.53,
2.192,-9.53,4.45,5.96,0.27,0.81,-0.53,
2.195,-9.53,4.45,5.96,0.39,0.92,-0.53,
2.195,-10.63,4.33,6.02,0.39,0.92,-0.53,
2.197,-10.63,4.33,6.02,0.52,1.02,-0.53,
2.201,-11.87,4.21,6.09,0.52,1.02,-0.53,
2.201,-11.87,4.21,6.09,0.66,1.13,-0.52,
2.205,-11.87,4.21,6.09,0.80,1.25,-0.50,
2.205,-13.15,4.12,6.16,0.80,1.25,-0.50,
2.206,-13.15,4.12,6.16,0.95,1.36,-0.49,
2.208,-13.15,4.12,6.16,1.11,1.48,-0.47,
2.21,-14.36,4.09,6.20,1.11,1.48,-0.47,
2.211,-14.36,4.09,6.20,1.26,1.59,-0.44,
2.212,-14.36,4.09,6.20,1.42,1.70,-0.41,
2.216,-15.47,4.16,6.19,1.42,1.70,-0.41,
2.222,-15.47,4.16,6.19,1.59,1.80,-0.37,
2.223,-15.47,4.16,6.19,1.75,1.89,-0.33,
2.223,-16.56,4.34,6.14,1.75,1.89,-0.33,
2.224,-16.56,4.34,6.14,1.91,1.98,-0.29,
2.224,-16.56,4.34,6.14,2.07,2.07,-0.23,
2.225,-17.58,4.66,6.03,2.07,2.07,-0.23,
2.226,-17.58,4.66,6.03,2.23,2.14,-0.17,
2.227,-17.58,4.66,6.03,2.38,2.21,-0.11,
2.23,-18.42,5.12,5.94,2.38,2.21,-0.11,
2.235,-18.42,5.12,5.94,2.52,2.26,-0.03,
2.235,-18.42,5.12,5.94,2.65,2.30,0.06,
2.246,-18.42,5.12,5.94,2.77,2.33,0.16,
2.247,-19.14,5.65,5.76,2.77,2.33,0.16,
2.247,-19.14,5.65,5.76,2.88,2.35,0.28,
2.247,-19.14,5.65,5.76,2.98,2.36,0.41,
2.247,-19.67,6.13,5.54,2.98,2.36,0.41,
2.247,-19.67,6.13,5.54,3.05,2.36,0.55,
2.247,-19.67,6.13,5.54,3.11,2.36,0.71,
2.248,-20.05,6.48,5.23,3.11,2.36,0.71,
2.248,-20.05,6.48,5.23,3.14,2.34,0.89,
2.249,-20.05,6.48,5.23,3.16,2.31,1.09,
2.25,-20.17,6.76,4.87,3.16,2.31,1.09,
2.252,-20.17,6.76,4.87,3.16,2.28,1.31,
2.255,-20.17,6.76,4.87,3.13,2.24,1.54,
2.255,-20.14,6.85,4.44,3.13,2.24,1.54,
2.258,-20.14,6.85,4.44,3.09,2.21,1.80,
2.26,-20.14,6.85,4.44,3.02,2.17,2.07,
2.261,-19.93,6.73,3.96,3.02,2.17,2.07,
2.263,-19.93,6.73,3.96,2.94,2.12,2.35,
2.265,-19.93,6.73,3.96,2.84,2.07,2.65,
2.266,-19.55,6.37,3.55,2.84,2.07,2.65,
2.267,-19.55,6.37,3.55,2.73,2.02,2.96,
2.269,-19.55,6.37,3.55,2.61,1.95,3.27,
2.27,-19.01,5.73,3.23,2.61,1.95,3.27,
2.272,-19.01,5.73,3.23,2.48,1.88,3.58,
2.275,-18.31,4.80,3.07,2.48,1.88,3.58,
2.275,-18.31,4.80,3.07,2.34,1.79,3.88,
2.277,-18.31,4.80,3.07,2.21,1.69,4.18,
2.279,-18.31,4.80,3.07,2.07,1.58,4.45,
2.28,-17.47,3.65,3.03,2.07,1.58,4.45,
2.281,-17.47,3.65,3.03,1.94,1.46,4.72,
2.284,-17.47,3.65,3.03,1.82,1.33,4.96,
2.285,-16.57,2.41,3.11,1.82,1.33,4.96,
2.287,-16.57,2.41,3.11,1.70,1.20,5.18,
2.289,-16.57,2.41,3.11,1.59,1.07,5.38,
2.289,-15.55,1.17,3.26,1.59,1.07,5.38,
2.291,-15.55,1.17,3.26,1.49,0.94,5.57,
2.295,-15.55,1.17,3.26,1.40,0.82,5.72,
2.295,-14.57,-0.09,3.39,1.40,0.82,5.72,
2.297,-14.57,-0.09,3.39,1.33,0.71,5.85,
2.299,-14.57,-0.09,3.39,1.27,0.60,5.97,
2.299,-13.68,-1.35,3.49,1.27,0.60,5.97,
2.302,-13.68,-1.35,3.49,1.22,0.50,6.07,
2.304,-13.68,-1.35,3.49,1.18,0.41,6.14,
2.304,-12.91,-2.68,3.49,1.18,0.41,6.14,
2.306,-12.91,-2.68,3.49,1.15,0.32,6.20,
2.309,-12.91,-2.68,3.49,1.13,0.23,6.24,
2.309,-12.26,-4.00,3.41,1.13,0.23,6.24,
2.312,-12.26,-4.00,3.41,1.12,0.16,6.27,
2.314,-12.26,-4.00,3.41,1.11,0.08,6.28,
2.314,-11.76,-5.23,3.28,1.11,0.08,6.28,
2.316,-11.76,-5.23,3.28,1.11,0.02,6.28,
2.32,-11.76,-5.23,3.28,1.11,-0.04,6.27,
2.32,-11.35,-6.39,3.06,1.11,-0.04,6.27,
2.321,-11.35,-6.39,3.06,1.11,-0.09,6.25,
2.324,-11.35,-6.39,3.06,1.11,-0.13,6.21,
2.324,-11.02,-7.43,2.83,1.11,-0.13,6.21,
2.326,-11.02,-7.43,2.83,1.11,-0.17,6.18,
2.329,-11.02,-7.43,2.83,1.11,-0.20,6.14,
2.329,-10.69,-8.33,2.55,1.11,-0.20,6.14,
2.331,-10.69,-8.33,2.55,1.10,-0.22,6.09,
2.337,-10.41,-9.05,2.32,1.10,-0.22,6.09,
2.348,-10.41,-9.05,2.32,1.09,-0.23,6.03,
2.348,-10.41,-9.05,2.32,1.07,-0.23,5.98,
2.348,-10.41,-9.05,2.32,1.05,-0.23,5.93,
2.349,-10.19,-9.65,2.14,1.05,-0.23,5.93,
2.349,-10.19,-9.65,2.14,1.03,-0.23,5.86,
2.349,-10.19,-9.65,2.14,1.01,-0.23,5.80,
2.349,-9.96,-10.19,2.06,1.01,-0.23,5.80,
2.35,-9.96,-10.19,2.06,0.98,-0.23,5.74,
2.35,-9.64,-10.62,2.14,0.98,-0.23,5.74,
2.35,-9.64,-10.62,2.14,0.95,-0.23,5.68,
2.351,-9.64,-10.62,2.14,0.92,-0.25,5.61,
2.355,-9.64,-10.62,2.14,0.88,-0.26,5.54,
2.356,-9.14,-10.82,2.26,0.88,-0.26,5.54,
2.356,-9.14,-10.82,2.26,0.85,-0.29,5.48,
2.359,-9.14,-10.82,2.26,0.82,-0.31,5.42,
2.359,-8.57,-10.81,2.43,0.82,-0.31,5.42,
2.361,-8.57,-10.81,2.43,0.78,-0.33,5.37,
2.364,-8.57,-10.81,2.43,0.75,-0.35,5.31,
2.364,-8.03,-10.67,2.59,0.75,-0.35,5.31,
2.366,-8.03,-10.67,2.59,0.72,-0.38,5.27,
2.37,-7.50,-10.49,2.80,0.72,-0.38,5.27,
2.371,-7.50,-10.49,2.80,0.70,-0.40,5.23,
2.371,-7.50,-10.49,2.80,0.68,-0.42,5.19,
2.374,-7.50,-10.49,2.80,0.66,-0.45,5.16,
2.375,-6.98,-10.33,3.08,0.66,-0.45,5.16,
2.376,-6.98,-10.33,3.08,0.65,-0.48,5.14,
2.379,-6.98,-10.33,3.08,0.64,-0.52,5.12,
2.379,-6.46,-10.16,3.34,0.64,-0.52,5.12,
2.385,-5.94,-9.99,3.55,0.64,-0.52,5.12,
2.385,-5.94,-9.99,3.55,0.64,-0.56,5.10,
2.385,-5.94,-9.99,3.55,0.65,-0.60,5.09,
2.387,-5.94,-9.99,3.55,0.65,-0.64,5.08,
2.388,-5.94,-9.99,3.55,0.67,-0.69,5.08,
2.388,-5.41,-9.81,3.74,0.67,-0.69,5.08,
2.391,-5.41,-9.81,3.74,0.69,-0.73,5.09,
2.401,-5.41,-9.81,3.74,0.71,-0.78,5.09,
2.401,-5.41,-9.81,3.74,0.74,-0.83,5.10,
2.401,-5.41,-9.81,3.74,0.78,-0.89,5.11,
2.401,-4.88,-9.65,3.92,0.78,-0.89,5.11,
2.401,-4.32,-9.53,4.01,0.78,-0.89,5.11,
2.402,-4.32,-9.53,4.01,0.82,-0.95,5.12,
2.403,-4.32,-9.53,4.01,0.87,-1.00,5.13,
2.404,-3.76,-9.47,4.02,0.87,-1.00,5.13,
2.406,-3.76,-9.47,4.02,0.92,-1.06,5.14,
2.41,-3.19,-9.44,3.96,0.92,-1.06,5.14,
2.41,-3.19,-9.44,3.96,0.97,-1.12,5.15,
2.412,-3.19,-9.44,3.96,1.03,-1.17,5.15,
2.415,-2.68,-9.46,3.77,1.03,-1.17,5.15,
2.415,-2.68,-9.46,3.77,1.09,-1.23,5.16,
2.415,-2.68,-9.46,3.77,1.15,-1.28,5.15,
2.421,-2.68,-9.46,3.77,1.21,-1.32,5.15,
2.421,-2.21,-9.54,3.49,1.21,-1.32,5.15,
2.421,-2.21,-9.54,3.49,1.26,-1.36,5.14,
2.43,-2.21,-9.54,3.49,1.31,-1.40,5.13,
2.43,-1.81,-9.67,3.11,1.31,-1.40,5.13,
2.43,-1.81,-9.67,3.11,1.36,-1.42,5.12,
2.43,-1.81,-9.67,3.11,1.40,-1.45,5.10,
2.43,-1.48,-9.82,2.73,1.40,-1.45,5.10,
2.43,-1.48,-9.82,2.73,1.44,-1.46,5.08,
2.433,-1.48,-9.82,2.73,1.47,-1.48,5.06,
2.434,-1.24,-9.98,2.36,1.47,-1.48,5.06,
2.438,-1.24,-9.98,2.36,1.50,-1.49,5.04,
2.439,-1.24,-9.98,2.36,1.52,-1.49,5.02,
2.439,-1.07,-10.12,2.00,1.52,-1.49,5.02,
2.44,-1.07,-10.12,2.00,1.55,-1.49,5.00,
2.443,-1.07,-10.12,2.00,1.56,-1.48,4.98,
2.443,-0.94,-10.27,1.70,1.56,-1.48,4.98,
2.445,-0.94,-10.27,1.70,1.58,-1.48,4.96,
2.448,-0.94,-10.27,1.70,1.59,-1.48,4.94,
2.449,-0.90,-10.44,1.45,1.59,-1.48,4.94,
2.45,-0.90,-10.44,1.45,1.60,-1.47,4.92,
2.454,-0.90,-10.44,1.45,1.62,-1.47,4.90,
2.454,-0.91,-10.63,1.24,1.62,-1.47,4.90,
2.455,-0.91,-10.63,1.24,1.63,-1.47,4.89,
2.458,-0.91,-10.63,1.24,1.64,-1.47,4.87,
2.458,-0.91,-10.83,1.07,1.64,-1.47,4.87,
2.46,-0.91,-10.83,1.07,1.66,-1.47,4.86,
2.463,-0.91,-10.83,1.07,1.67,-1.47,4.85,
2.463,-0.90,-11.04,0.93,1.67,-1.47,4.85,
2.465,-0.90,-11.04,0.93,1.68,-1.48,4.85,
2.468,-0.85,-11.23,0.74,1.68,-1.48,4.85,
2.468,-0.85,-11.23,0.74,1.70,-1.48,4.84,
2.47,-0.85,-11.23,0.74,1.72,-1.49,4.84,
2.473,-0.85,-11.23,0.74,1.73,-1.49,4.84,
2.474,-0.71,-11.44,0.50,1.73,-1.49,4.84,
2.475,-0.71,-11.44,0.50,1.75,-1.49,4.85,
2.478,-0.71,-11.44,0.50,1.77,-1.49,4.85,
2.478,-0.55,-11.63,0.22,1.77,-1.49,4.85,
2.48,-0.55,-11.63,0.22,1.79,-1.49,4.86,
2.483,-0.55,-11.63,0.22,1.81,-1.48,4.87,
2.483,-0.30,-11.83,-0.05,1.81,-1.48,4.87,
2.486,-0.30,-11.83,-0.05,1.82,-1.46,4.88,
2.488,-0.30,-11.83,-0.05,1.83,-1.44,4.89,
2.488,0.03,-12.01,-0.37,1.83,-1.44,4.89,
2.49,0.03,-12.01,-0.37,1.85,-1.42,4.90,
2.493,0.03,-12.01,-0.37,1.86,-1.39,4.91,
2.493,0.45,-12.17,-0.64,1.86,-1.39,4.91,
2.495,0.45,-12.17,-0.64,1.87,-1.36,4.92,
2.498,0.45,-12.17,-0.64,1.88,-1.33,4.93,
2.498,0.87,-12.31,-0.92,1.88,-1.33,4.93,
2.514,0.87,-12.31,-0.92,1.89,-1.29,4.94,
2.514,1.32,-12.47,-1.16,1.89,-1.29,4.94,
2.515,1.32,-12.47,-1.16,1.89,-1.26,4.96,
2.515,1.32,-12.47,-1.16,1.90,-1.22,4.97,
2.515,1.78,-12.63,-1.36,1.90,-1.22,4.97,
2.515,1.78,-12.63,-1.36,1.91,-1.17,4.98,
2.515,1.78,-12.63,-1.36,1.92,-1.12,4.99,
2.516,2.27,-12.81,-1.52,1.92,-1.12,4.99,
2.517,2.27,-12.81,-1.52,1.93,-1.06,4.99,
2.518,2.27,-12.81,-1.52,1.94,-1.01,4.99,
2.521,2.74,-13.02,-1.68,1.94,-1.01,4.99,
2.522,2.74,-13.02,-1.68,1.94,-0.94,4.99,
2.522,2.74,-13.02,-1.68,1.95,-0.88,4.98,
2.523,2.74,-13.02,-1.68,1.96,-0.81,4.97,
2.523,3.13,-13.25,-1.82,1.96,-0.81,4.97,
2.525,3.13,-13.25,-1.82,1.96,-0.74,4.95,
2.527,3.13,-13.25,-1.82,1.97,-0.67,4.93,
2.527,3.50,-13.53,-1.93,1.97,-0.67,4.93,
2.529,3.50,-13.53,-1.93,1.97,-0.59,4.90,
2.532,3.50,-13.53,-1.93,1.97,-0.51,4.87,
2.532,3.83,-13.87,-2.03,1.97,-0.51,4.87,
2.536,3.83,-13.87,-2.03,1.97,-0.42,4.83,
2.539,3.83,-13.87,-2.03,1.98,-0.34,4.78,
2.539,4.11,-14.27,-2.09,1.98,-0.34,4.78,
2.541,4.11,-14.27,-2.09,1.98,-0.25,4.72,
2.542,4.11,-14.27,-2.09,1.98,-0.16,4.65,
2.542,4.29,-14.74,-2.06,1.98,-0.16,4.65,
2.545,4.29,-14.74,-2.06,1.98,-0.07,4.57,
2.547,4.29,-14.74,-2.06,1.99,0.01,4.48,
2.547,4.43,-15.25,-1.94,1.99,0.01,4.48,
2.55,4.43,-15.25,-1.94,2.00,0.08,4.39,
2.554,4.56,-15.72,-1.78,2.00,0.08,4.39,
2.555,4.56,-15.72,-1.78,2.00,0.15,4.29,
2.555,4.56,-15.72,-1.78,2.01,0.21,4.17,
2.557,4.74,-16.08,-1.61,2.01,0.21,4.17,
2.557,4.74,-16.08,-1.61,2.02,0.26,4.05,
2.559,4.74,-16.08,-1.61,2.04,0.30,3.93,
2.562,4.74,-16.08,-1.61,2.05,0.34,3.80,
2.563,4.96,-16.29,-1.48,2.05,0.34,3.80,
2.565,4.96,-16.29,-1.48,2.06,0.38,3.67,
2.568,4.96,-16.29,-1.48,2.07,0.41,3.53,
2.568,5.18,-16.35,-1.40,2.07,0.41,3.53,
2.578,5.18,-16.35,-1.40,2.08,0.45,3.39,
2.578,5.18,-16.35,-1.40,2.08,0.48,3.25,
2.578,5.38,-16.34,-1.36,2.08,0.48,3.25,
2.579,5.38,-16.34,-1.36,2.09,0.51,3.11,
2.579,5.38,-16.34,-1.36,2.09,0.54,2.96,
2.579,5.56,-16.29,-1.32,2.09,0.54,2.96,
2.581,5.56,-16.29,-1.32,2.09,0.57,2.82,
2.582,5.56,-16.29,-1.32,2.09,0.59,2.68,
2.582,5.72,-16.16,-1.28,2.09,0.59,2.68,
2.586,5.72,-16.16,-1.28,2.08,0.61,2.53,
2.587,5.83,-15.99,-1.27,2.08,0.61,2.53,
2.588,5.83,-15.99,-1.27,2.06,0.63,2.40,
2.589,5.83,-15.99,-1.27,2.05,0.65,2.26,
2.592,5.83,-15.99,-1.27,2.03,0.66,2.12,
2.593,5.91,-15.85,-1.28,2.03,0.66,2.12,
2.594,5.91,-15.85,-1.28,2.01,0.67,1.99,
2.597,5.91,-15.85,-1.28,1.98,0.68,1.86,
2.597,5.97,-15.74,-1.29,1.98,0.68,1.86,
2.599,5.97,-15.74,-1.29,1.95,0.69,1.73,
2.602,5.99,-15.64,-1.24,1.95,0.69,1.73,
2.602,5.99,-15.64,-1.24,1.92,0.69,1.61,
2.604,5.99,-15.64,-1.24,1.88,0.69,1.48,
2.607,5.99,-15.64,-1.24,1.84,0.68,1.36,
2.607,6.04,-15.54,-1.16,1.84,0.68,1.36,
2.609,6.04,-15.54,-1.16,1.80,0.68,1.23,
2.612,6.04,-15.54,-1.16,1.76,0.67,1.11,
2.612,6.12,-15.42,-1.08,1.76,0.67,1.11,
2.614,6.12,-15.42,-1.08,1.72,0.66,0.98,
2.617,6.12,-15.42,-1.08,1.67,0.65,0.86,
2.617,6.22,-15.26,-0.97,1.67,0.65,0.86,
2.623,6.22,-15.26,-0.97,1.63,0.65,0.73,
2.623,6.22,-15.26,-0.97,1.58,0.63,0.60,
2.623,6.28,-15.11,-0.90,1.58,0.63,0.60,
2.624,6.28,-15.11,-0.90,1.53,0.62,0.47,
2.627,6.28,-15.11,-0.90,1.47,0.60,0.35,
2.627,6.35,-14.95,-0.79,1.47,0.60,0.35,
2.629,6.35,-14.95,-0.79,1.42,0.58,0.22,
2.632,6.35,-14.95,-0.79,1.37,0.56,0.10,
2.633,6.40,-14.78,-0.72,1.37,0.56,0.10,
2.661,6.40,-14.78,-0.72,1.32,0.54,-0.03,
2.661,6.40,-14.78,-0.72,1.26,0.52,-0.15,
2.661,6.43,-14.61,-0.66,1.26,0.52,-0.15,
2.662,6.43,-14.61,-0.66,1.21,0.50,-0.28,
2.662,6.43,-14.61,-0.66,1.16,0.48,-0.40,
2.662,6.47,-14.46,-0.57,1.16,0.48,-0.40,
2.663,6.47,-14.46,-0.57,1.11,0.46,-0.53,
2.663,6.47,-14.46,-0.57,1.06,0.44,-0.65,
2.663,6.50,-14.31,-0.49,1.06,0.44,-0.65,
2.664,6.50,-14.31,-0.49,1.01,0.41,-0.78,
2.664,6.46,-14.14,-0.47,1.01,0.41,-0.78,
2.664,6.46,-14.14,-0.47,0.97,0.39,-0.90,
2.664,6.46,-14.14,-0.47,0.92,0.37,-1.02,
2.665,6.46,-14.14,-0.47,0.87,0.35,-1.14,
2.665,6.39,-14.03,-0.44,0.87,0.35,-1.14,
2.665,6.39,-14.03,-0.44,0.83,0.33,-1.26,
2.666,6.39,-14.03,-0.44,0.78,0.30,-1.38,
2.666,6.25,-13.92,-0.43,0.78,0.30,-1.38,
2.666,6.25,-13.92,-0.43,0.73,0.28,-1.50,
2.687,6.25,-13.92,-0.43,0.69,0.26,-1.61,
2.687,6.08,-13.84,-0.43,0.69,0.26,-1.61,
2.687,6.08,-13.84,-0.43,0.64,0.23,-1.72,
2.688,5.93,-13.78,-0.46,0.64,0.23,-1.72,
2.688,5.93,-13.78,-0.46,0.59,0.21,-1.83,
2.688,5.93,-13.78,-0.46,0.55,0.18,-1.94,
2.688,5.93,-13.78,-0.46,0.50,0.15,-2.04,
2.689,5.79,-13.73,-0.52,0.50,0.15,-2.04,
2.689,5.79,-13.73,-0.52,0.45,0.13,-2.15,
2.689,5.65,-13.66,-0.58,0.45,0.13,-2.15,
2.689,5.65,-13.66,-0.58,0.39,0.10,-2.25,
2.69,5.65,-13.66,-0.58,0.34,0.08,-2.35,
2.69,5.65,-13.66,-0.58,0.28,0.05,-2.45,
2.69,5.55,-13.54,-0.65,0.28,0.05,-2.45,
2.69,5.55,-13.54,-0.65,0.22,0.03,-2.55,
2.691,5.46,-13.34,-0.74,0.22,0.03,-2.55,
2.692,5.46,-13.34,-0.74,0.16,0.01,-2.65,
2.693,5.46,-13.34,-0.74,0.09,-0.01,-2.74,
2.696,5.46,-13.34,-0.74,0.02,-0.03,-2.83,
2.696,5.32,-13.12,-0.83,0.02,-0.03,-2.83,
2.698,5.32,-13.12,-0.83,-0.04,-0.05,-2.92,
2.701,5.18,-12.91,-0.90,-0.04,-0.05,-2.92,
2.703,5.18,-12.91,-0.90,-0.12,-0.06,-3.00,
2.704,5.18,-12.91,-0.90,-0.19,-0.08,-3.09,
2.706,5.18,-12.91,-0.90,-0.27,-0.08,-3.17,
2.706,5.01,-12.80,-0.96,-0.27,-0.08,-3.17,
2.708,5.01,-12.80,-0.96,-0.34,-0.09,-3.26,
2.711,5.01,-12.80,-0.96,-0.42,-0.10,-3.34,
2.711,4.79,-12.76,-1.03,-0.42,-0.10,-3.34,
2.713,4.79,-12.76,-1.03,-0.50,-0.10,-3.42,
2.716,4.79,-12.76,-1.03,-0.57,-0.10,-3.50,
2.716,4.56,-12.72,-1.04,-0.57,-0.10,-3.50,
2.719,4.56,-12.72,-1.04,-0.65,-0.10,-3.58,
2.721,4.56,-12.72,-1.04,-0.72,-0.09,-3.67,
2.722,4.30,-12.68,-1.03,-0.72,-0.09,-3.67,
2.723,4.30,-12.68,-1.03,-0.80,-0.08,-3.75,
2.725,4.30,-12.68,-1.03,-0.87,-0.07,-3.83,
2.726,4.05,-12.59,-0.99,-0.87,-0.07,-3.83,
2.729,4.05,-12.59,-0.99,-0.94,-0.05,-3.91,
2.732,4.05,-12.59,-0.99,-1.02,-0.03,-3.99,
2.732,3.74,-12.52,-0.92,-1.02,-0.03,-3.99,
2.734,3.74,-12.52,-0.92,-1.08,-0.00,-4.07,
2.737,3.39,-12.44,-0.82,-1.08,-0.00,-4.07,
2.738,3.39,-12.44,-0.82,-1.15,0.03,-4.15,
2.738,3.39,-12.44,-0.82,-1.21,0.06,-4.23,
2.746,2.95,-12.42,-0.66,-1.21,0.06,-4.23,
2.747,2.38,-12.39,-0.48,-1.21,0.06,-4.23,
2.747,2.38,-12.39,-0.48,-1.27,0.10,-4.31,
2.747,2.38,-12.39,-0.48,-1.32,0.14,-4.39,
2.747,2.38,-12.39,-0.48,-1.37,0.18,-4.47,
2.749,2.38,-12.39,-0.48,-1.41,0.23,-4.54,
2.751,2.38,-12.39,-0.48,-1.44,0.27,-4.62,
2.751,1.77,-12.33,-0.24,-1.44,0.27,-4.62,
2.766,1.77,-12.33,-0.24,-1.47,0.31,-4.69,
2.767,1.77,-12.33,-0.24,-1.49,0.35,-4.76,
2.767,1.15,-12.27,0.02,-1.49,0.35,-4.76,
2.768,1.15,-12.27,0.02,-1.50,0.38,-4.82,
2.768,1.15,-12.27,0.02,-1.50,0.42,-4.89,
2.768,0.58,-12.25,0.30,-1.50,0.42,-4.89,
2.769,0.58,-12.25,0.30,-1.49,0.45,-4.95,
2.769,0.58,-12.25,0.30,-1.47,0.48,-5.01,
2.769,0.04,-12.19,0.54,-1.47,0.48,-5.01,
2.769,0.04,-12.19,0.54,-1.45,0.51,-5.07,
2.775,0.04,-12.19,0.54,-1.42,0.54,-5.13,
2.78,-0.54,-12.08,0.71,-1.42,0.54,-5.13,
2.78,-0.54,-12.08,0.71,-1.38,0.57,-5.18,
2.781,-0.54,-12.08,0.71,-1.34,0.60,-5.24,
2.781,-1.11,-11.96,0.83,-1.34,0.60,-5.24,
2.781,-1.11,-11.96,0.83,-1.29,0.63,-5.29,
2.782,-1.11,-11.96,0.83,-1.25,0.65,-5.35,
2.782,-1.73,-11.81,0.94,-1.25,0.65,-5.35,
2.783,-1.73,-11.81,0.94,-1.20,0.67,-5.39,
2.787,-1.73,-11.81,0.94,-1.14,0.70,-5.44,
2.787,-2.30,-11.61,0.93,-1.14,0.70,-5.44,
2.788,-2.30,-11.61,0.93,-1.09,0.72,-5.48,
2.79,-2.30,-11.61,0.93,-1.04,0.74,-5.52,
2.792,-2.83,-11.35,0.88,-1.04,0.74,-5.52,
2.792,-2.83,-11.35,0.88,-1.00,0.76,-5.56,
2.795,-2.83,-11.35,0.88,-0.96,0.78,-5.58,
2.795,-3.34,-11.08,0.79,-0.96,0.78,-5.58,
2.797,-3.34,-11.08,0.79,-0.92,0.80,-5.61,
2.8,-3.34,-11.08,0.79,-0.89,0.81,-5.64,
2.8,-3.84,-10.80,0.66,-0.89,0.81,-5.64,
2.803,-3.84,-10.80,0.66,-0.87,0.83,-5.65,
2.805,-4.31,-10.53,0.52,-0.87,0.83,-5.65,
2.805,-4.31,-10.53,0.52,-0.85,0.84,-5.67,
2.807,-4.31,-10.53,0.52,-0.84,0.85,-5.68,
2.81,-4.31,-10.53,0.52,-0.83,0.86,-5.68,
2.81,-4.77,-10.26,0.41,-0.83,0.86,-5.68,
2.812,-4.77,-10.26,0.41,-0.84,0.86,-5.69,
2.815,-4.77,-10.26,0.41,-0.85,0.87,-5.68,
2.815,-5.23,-10.01,0.32,-0.85,0.87,-5.68,
2.817,-5.23,-10.01,0.32,-0.87,0.87,-5.68,
2.825,-5.67,-9.76,0.29,-0.87,0.87,-5.68,
2.826,-5.67,-9.76,0.29,-0.89,0.86,-5.67,
2.826,-5.67,-9.76,0.29,-0.92,0.85,-5.66,
2.827,-6.11,-9.54,0.25,-0.92,0.85,-5.66,
2.827,-6.11,-9.54,0.25,-0.96,0.84,-5.65,
2.828,-6.11,-9.54,0.25,-1.00,0.83,-5.63,
2.831,-6.11,-9.54,0.25,-1.04,0.81,-5.62,
2.859,-6.54,-9.30,0.26,-1.04,0.81,-5.62,
2.86,-6.54,-9.30,0.26,-1.10,0.79,-5.59,
2.86,-6.93,-9.05,0.33,-1.10,0.79,-5.59,
2.86,-6.93,-9.05,0.33,-1.15,0.76,-5.57,
2.861,-6.93,-9.05,0.33,-1.21,0.73,-5.55,
2.861,-6.93,-9.05,0.33,-1.28,0.70,-5.52,
2.861,-7.26,-8.81,0.41,-1.28,0.70,-5.52,
2.861,-7.26,-8.81,0.41,-1.34,0.66,-5.49,
2.862,-7.26,-8.81,0.41,-1.41,0.62,-5.47,
2.862,-7.51,-8.59,0.52,-1.41,0.62,-5.47,
2.862,-7.51,-8.59,0.52,-1.48,0.58,-5.44,
2.862,-7.51,-8.59,0.52,-1.55,0.53,-5.42,
2.863,-7.69,-8.42,0.68,-1.55,0.53,-5.42,
2.863,-7.69,-8.42,0.68,-1.62,0.49,-5.39,
2.863,-7.69,-8.42,0.68,-1.69,0.44,-5.37,
2.863,-7.82,-8.30,0.91,-1.69,0.44,-5.37,
2.863,-7.82,-8.30,0.91,-1.76,0.39,-5.36,
2.864,-7.82,-8.30,0.91,-1.82,0.34,-5.35,
2.864,-7.88,-8.18,1.16,-1.82,0.34,-5.35,
2.864,-7.88,-8.18,1.16,-1.89,0.29,-5.35,
2.864,-7.88,-8.18,1.16,-1.95,0.23,-5.35,
2.865,-7.87,-8.04,1.49,-1.95,0.23,-5.35,
2.867,-7.87,-8.04,1.49,-2.01,0.18,-5.36,
2.872,-7.87,-8.04,1.49,-2.06,0.11,-5.38,
2.873,-7.83,-7.84,1.87,-2.06,0.11,-5.38,
2.873,-7.83,-7.84,1.87,-2.10,0.05,-5.40,
2.875,-7.83,-7.84,1.87,-2.14,-0.02,-5.42,
2.875,-7.83,-7.59,2.25,-2.14,-0.02,-5.42,
2.878,-7.83,-7.59,2.25,-2.17,-0.09,-5.45,
2.879,-7.83,-7.59,2.25,-2.19,-0.16,-5.49,
2.879,-7.86,-7.30,2.63,-2.19,-0.16,-5.49,
2.882,-7.86,-7.30,2.63,-2.21,-0.22,-5.52,
2.884,-7.86,-7.30,2.63,-2.22,-0.29,-5.56,
2.884,-7.87,-6.91,2.98,-2.22,-0.29,-5.56,
2.888,-7.87,-6.91,2.98,-2.21,-0.36,-5.60,
2.889,-7.87,-6.91,2.98,-2.21,-0.42,-5.64,
2.889,-7.89,-6.43,3.29,-2.21,-0.42,-5.64,
2.892,-7.89,-6.43,3.29,-2.19,-0.48,-5.68,
2.894,-7.89,-6.43,3.29,-2.17,-0.53,-5.72,
2.894,-7.96,-5.87,3.54,-2.17,-0.53,-5.72,
2.897,-7.96,-5.87,3.54,-2.15,-0.59,-5.76,
2.899,-7.96,-5.87,3.54,-2.12,-0.64,-5.80,
2.899,-8.12,-5.24,3.70,-2.12,-0.64,-5.80,
2.903,-8.12,-5.24,3.70,-2.08,-0.69,-5.84,
2.905,-8.12,-5.24,3.70,-2.04,-0.74,-5.87,
2.905,-8.33,-4.58,3.76,-2.04,-0.74,-5.87,
2.906,-8.33,-4.58,3.76,-2.00,-0.78,-5.90,
2.91,-8.33,-4.58,3.76,-1.96,-0.83,-5.93,
2.91,-8.63,-3.90,3.80,-1.96,-0.83,-5.93,
2.912,-8.63,-3.90,3.80,-1.92,-0.87,-5.95,
2.915,-8.63,-3.90,3.80,-1.88,-0.91,-5.97,
2.915,-8.99,-3.22,3.81,-1.88,-0.91,-5.97,
2.916,-8.99,-3.22,3.81,-1.84,-0.96,-5.99,
2.919,-8.99,-3.22,3.81,-1.80,-1.00,-5.99,
2.921,-9.36,-2.50,3.72,-1.80,-1.00,-5.99,
2.923,-9.36,-2.50,3.72,-1.76,-1.03,-5.99,
2.924,-9.36,-2.50,3.72,-1.72,-1.07,-5.99,
2.924,-9.74,-1.79,3.65,-1.72,-1.07,-5.99,
2.927,-9.74,-1.79,3.65,-1.68,-1.10,-5.97,
2.929,-9.74,-1.79,3.65,-1.65,-1.13,-5.96,
2.93,-10.15,-1.05,3.56,-1.65,-1.13,-5.96,
2.932,-10.15,-1.05,3.56,-1.61,-1.15,-5.93,
2.934,-10.15,-1.05,3.56,-1.58,-1.17,-5.91,
2.935,-10.55,-0.31,3.52,-1.58,-1.17,-5.91,
2.941,-10.55,-0.31,3.52,-1.55,-1.19,-5.87,
2.942,-10.91,0.45,3.49,-1.55,-1.19,-5.87,
2.942,-10.91,0.45,3.49,-1.51,-1.20,-5.83,
2.943,-10.91,0.45,3.49,-1.48,-1.22,-5.79,
2.952,-11.24,1.23,3.46,-1.48,-1.22,-5.79,
2.953,-11.55,2.06,3.43,-1.48,-1.22,-5.79,
2.953,-11.55,2.06,3.43,-1.45,-1.23,-5.74,
2.954,-11.55,2.06,3.43,-1.42,-1.25,-5.69,
2.955,-11.55,2.06,3.43,-1.39,-1.25,-5.63,
2.956,-11.55,2.06,3.43,-1.36,-1.25,-5.57,
2.956,-11.82,2.88,3.42,-1.36,-1.25,-5.57,
2.957,-11.82,2.88,3.42,-1.33,-1.25,-5.51,
2.98,-11.82,2.88,3.42,-1.29,-1.24,-5.44,
2.981,-11.82,2.88,3.42,-1.26,-1.23,-5.36,
2.981,-12.12,3.72,3.42,-1.26,-1.23,-5.36,
2.981,-12.12,3.72,3.42,-1.22,-1.22,-5.27,
2.982,-12.12,3.72,3.42,-1.18,-1.20,-5.19,
2.982,-12.45,4.56,3.45,-1.18,-1.20,-5.19,
2.983,-12.45,4.56,3.45,-1.15,-1.18,-5.09,
2.983,-12.72,5.36,3.47,-1.15,-1.18,-5.09,
2.983,-12.72,5.36,3.47,-1.11,-1.16,-4.99,
2.984,-12.72,5.36,3.47,-1.07,-1.14,-4.89,
2.984,-12.72,5.36,3.47,-1.03,-1.11,-4.77,
2.985,-12.92,6.13,3.54,-1.03,-1.11,-4.77,
2.985,-12.92,6.13,3.54,-0.99,-1.08,-4.65,
2.985,-12.92,6.13,3.54,-0.95,-1.06,-4.53,
2.986,-13.08,6.89,3.63,-0.95,-1.06,-4.53,
2.986,-13.08,6.89,3.63,-0.91,-1.03,-4.39,
2.987,-13.08,6.89,3.63,-0.87,-1.00,-4.25,
2.987,-13.20,7.56,3.73,-0.87,-1.00,-4.25,
2.987,-13.20,7.56,3.73,-0.82,-0.97,-4.10,
2.989,-13.29,8.17,3.82,-0.82,-0.97,-4.10,
2.99,-13.29,8.17,3.82,-0.78,-0.95,-3.95,
2.992,-13.29,8.17,3.82,-0.73,-0.93,-3.79,
2.993,-13.29,8.17,3.82,-0.69,-0.91,-3.62,
2.994,-13.33,8.71,3.96,-0.69,-0.91,-3.62,
3.012,-13.33,8.71,3.96,-0.64,-0.90,-3.45,
3.013,-13.33,8.71,3.96,-0.58,-0.90,-3.27,
3.013,-13.32,9.16,4.10,-0.58,-0.90,-3.27,
3.013,-13.32,9.16,4.10,-0.53,-0.90,-3.09,
3.013,-13.32,9.16,4.10,-0.47,-0.91,-2.90,
3.013,-13.24,9.50,4.17,-0.47,-0.91,-2.90,
3.014,-13.24,9.50,4.17,-0.41,-0.93,-2.71,
3.014,-13.24,9.50,4.17,-0.36,-0.96,-2.51,
3.014,-13.03,9.72,4.18,-0.36,-0.96,-2.51,
3.014,-13.03,9.72,4.18,-0.30,-0.99,-2.32,
3.014,-13.03,9.72,4.18,-0.25,-1.03,-2.12,
3.015,-12.74,9.80,4.06,-0.25,-1.03,-2.12,
3.016,-12.74,9.80,4.06,-0.20,-1.08,-1.93,
3.018,-12.74,9.80,4.06,-0.15,-1.13,-1.74,
3.019,-12.32,9.75,3.86,-0.15,-1.13,-1.74,
3.022,-12.32,9.75,3.86,-0.11,-1.19,-1.55,
3.025,-12.32,9.75,3.86,-0.08,-1.25,-1.38,
3.026,-11.74,9.56,3.55,-0.08,-1.25,-1.38,
3.026,-11.74,9.56,3.55,-0.05,-1.32,-1.21,
3.029,-11.74,9.56,3.55,-0.03,-1.38,-1.05,
3.029,-11.13,9.27,3.16,-0.03,-1.38,-1.05,
3.032,-11.13,9.27,3.16,-0.01,-1.44,-0.90,
3.034,-11.13,9.27,3.16,-0.00,-1.50,-0.76,
3.035,-10.47,8.94,2.72,-0.00,-1.50,-0.76,
3.041,-10.47,8.94,2.72,0.00,-1.57,-0.63,
3.044,-9.87,8.65,2.27,0.00,-1.57,-0.63,
3.044,-9.87,8.65,2.27,-0.00,-1.63,-0.50,
3.045,-9.87,8.65,2.27,-0.01,-1.69,-0.39,
3.051,-9.30,8.39,1.85,-0.01,-1.69,-0.39,
3.051,-8.70,8.14,1.41,-0.01,-1.69,-0.39,
3.052,-8.70,8.14,1.41,-0.03,-1.74,-0.28,
3.052,-8.70,8.14,1.41,-0.04,-1.79,-0.18,
3.053,-8.70,8.14,1.41,-0.07,-1.85,-0.09,
3.066,-8.70,8.14,1.41,-0.09,-1.89,-0.01,
3.067,-8.14,7.89,1.02,-0.09,-1.89,-0.01,
3.067,-8.14,7.89,1.02,-0.12,-1.94,0.07,
3.068,-8.14,7.89,1.02,-0.16,-1.97,0.14,
3.068,-8.14,7.89,1.02,-0.20,-2.01,0.20,
3.069,-7.62,7.62,0.67,-0.20,-2.01,0.20,
3.069,-7.62,7.62,0.67,-0.23,-2.04,0.25,
3.07,-7.62,7.62,0.67,-0.28,-2.06,0.30,
3.071,-7.13,7.36,0.34,-0.28,-2.06,0.30,
3.071,-7.13,7.36,0.34,-0.32,-2.08,0.34,
3.071,-7.13,7.36,0.34,-0.37,-2.10,0.37,
3.072,-6.72,7.13,0.01,-0.37,-2.10,0.37,
3.074,-6.72,7.13,0.01,-0.42,-2.11,0.40,
3.075,-6.72,7.13,0.01,-0.47,-2.11,0.43,
3.075,-6.33,6.91,-0.23,-0.47,-2.11,0.43,
3.076,-6.33,6.91,-0.23,-0.53,-2.11,0.44,
3.078,-6.33,6.91,-0.23,-0.59,-2.10,0.46,
3.078,-6.01,6.75,-0.47,-0.59,-2.10,0.46,
3.08,-6.01,6.75,-0.47,-0.64,-2.09,0.47,
3.084,-6.01,6.75,-0.47,-0.70,-2.08,0.48,
3.084,-5.70,6.61,-0.65,-0.70,-2.08,0.48,
3.085,-5.70,6.61,-0.65,-0.76,-2.06,0.49,
3.088,-5.45,6.48,-0.76,-0.76,-2.06,0.49,
3.089,-5.45,6.48,-0.76,-0.83,-2.03,0.49,
3.09,-5.45,6.48,-0.76,-0.89,-2.00,0.50,
3.093,-5.45,6.48,-0.76,-0.95,-1.97,0.50,
3.093,-5.23,6.39,-0.83,-0.95,-1.97,0.50,
3.095,-5.23,6.39,-0.83,-1.01,-1.93,0.50,
3.098,-5.23,6.39,-0.83,-1.07,-1.89,0.50,
3.098,-5.03,6.33,-0.82,-1.07,-1.89,0.50,
3.1,-5.03,6.33,-0.82,-1.13,-1.85,0.50,
3.103,-5.03,6.33,-0.82,-1.18,-1.80,0.50,
3.104,-4.86,6.30,-0.71,-1.18,-1.80,0.50,
3.106,-4.86,6.30,-0.71,-1.24,-1.75,0.50,
3.108,-4.76,6.24,-0.58,-1.24,-1.75,0.50,
3.108,-4.76,6.24,-0.58,-1.29,-1.69,0.50,
3.11,-4.76,6.24,-0.58,-1.34,-1.64,0.50,
3.113,-4.76,6.24,-0.58,-1.39,-1.58,0.51,
3.113,-4.69,6.15,-0.34,-1.39,-1.58,0.51,
3.115,-4.69,6.15,-0.34,-1.43,-1.52,0.50,
3.118,-4.62,5.97,-0.02,-1.43,-1.52,0.50,
3.118,-4.62,5.97,-0.02,-1.47,-1.45,0.51,
3.128,-4.62,5.97,-0.02,-1.51,-1.39,0.51,
3.129,-4.55,5.78,0.34,-1.51,-1.39,0.51,
3.129,-4.55,5.78,0.34,-1.54,-1.33,0.50,
3.129,-4.55,5.78,0.34,-1.57,-1.27,0.50,
3.13,-4.55,5.78,0.34,-1.60,-1.21,0.49,
3.13,-4.51,5.58,0.73,-1.60,-1.21,0.49,
3.131,-4.51,5.58,0.73,-1.62,-1.15,0.49,
3.132,-4.51,5.58,0.73,-1.64,-1.09,0.48,
3.133,-4.55,5.33,1.18,-1.64,-1.09,0.48,
3.136,-4.55,5.33,1.18,-1.65,-1.03,0.47,
3.154,-4.55,5.33,1.18,-1.66,-0.97,0.45,
3.154,-4.58,5.09,1.64,-1.66,-0.97,0.45,
3.155,-4.58,5.09,1.64,-1.66,-0.91,0.43,
3.155,-4.58,5.09,1.64,-1.66,-0.85,0.41,
3.155,-4.64,4.83,2.09,-1.66,-0.85,0.41,
3.155,-4.64,4.83,2.09,-1.66,-0.80,0.39,
3.156,-4.64,4.83,2.09,-1.64,-0.74,0.37,
3.156,-4.74,4.67,2.51,-1.64,-0.74,0.37,
3.156,-4.74,4.67,2.51,-1.63,-0.68,0.35,
3.156,-4.90,4.59,2.92,-1.63,-0.68,0.35,
3.157,-4.90,4.59,2.92,-1.61,-0.62,0.33,
3.157,-4.90,4.59,2.92,-1.58,-0.56,0.30,
3.157,-4.90,4.59,2.92,-1.55,-0.50,0.29,
3.158,-5.09,4.56,3.29,-1.55,-0.50,0.29,
3.159,-5.09,4.56,3.29,-1.52,-0.43,0.27,
3.18,-5.32,4.49,3.60,-1.52,-0.43,0.27,
3.181,-5.32,4.49,3.60,-1.48,-0.37,0.25,
3.181,-5.32,4.49,3.60,-1.43,-0.30,0.24,
3.181,-5.32,4.49,3.60,-1.39,-0.22,0.22,
3.181,-5.59,4.33,3.88,-1.39,-0.22,0.22,
3.182,-5.59,4.33,3.88,-1.34,-0.15,0.21,
3.182,-5.59,4.33,3.88,-1.29,-0.07,0.19,
3.182,-5.92,4.16,4.16,-1.29,-0.07,0.19,
3.182,-5.92,4.16,4.16,-1.24,0.01,0.18,
3.183,-5.92,4.16,4.16,-1.18,0.09,0.17,
3.183,-6.25,3.94,4.41,-1.18,0.09,0.17,
3.183,-6.25,3.94,4.41,-1.12,0.17,0.15,
3.183,-6.25,3.94,4.41,-1.06,0.26,0.13,
3.183,-6.65,3.77,4.72,-1.06,0.26,0.13,
3.185,-6.65,3.77,4.72,-0.99,0.34,0.11,
3.189,-6.65,3.77,4.72,-0.92,0.43,0.09,
3.19,-7.13,3.68,4.95,-0.92,0.43,0.09,
3.19,-7.13,3.68,4.95,-0.84,0.53,0.08,
3.193,-7.13,3.68,4.95,-0.75,0.62,0.06,
3.193,-7.77,3.65,5.22,-0.75,0.62,0.06,
3.195,-7.77,3.65,5.22,-0.66,0.72,0.04,
3.198,-7.77,3.65,5.22,-0.55,0.81,0.02,
3.198,-8.45,3.75,5.48,-0.55,0.81,0.02,
3.199,-8.45,3.75,5.48,-0.44,0.90,0.01,
3.202,-8.45,3.75,5.48,-0.33,0.98,0.01,
3.202,-9.19,3.88,5.71,-0.33,0.98,0.01,
3.205,-9.19,3.88,5.71,-0.20,1.07,0.01,
3.207,-9.19,3.88,5.71,-0.08,1.15,0.01,
3.207,-10.00,3.99,5.81,-0.08,1.15,0.01,
3.209,-10.00,3.99,5.81,0.05,1.23,0.02,
3.212,-10.00,3.99,5.81,0.18,1.31,0.04,
3.213,-10.83,4.03,5.80,0.18,1.31,0.04,
3.215,-10.83,4.03,5.80,0.31,1.38,0.06,
3.217,-10.83,4.03,5.80,0.44,1.45,0.08,
3.217,-11.65,4.02,5.71,0.44,1.45,0.08,
3.219,-11.65,4.02,5.71,0.56,1.51,0.11,
3.222,-11.65,4.02,5.71,0.68,1.57,0.14,
3.223,-12.44,3.98,5.57,0.68,1.57,0.14,
3.227,-12.44,3.98,5.57,0.80,1.62,0.18,
3.227,-12.44,3.98,5.57,0.91,1.66,0.22,
3.228,-13.22,4.02,5.44,0.91,1.66,0.22,
3.229,-13.22,4.02,5.44,1.01,1.69,0.27,
3.232,-13.22,4.02,5.44,1.11,1.72,0.32,
3.233,-13.86,4.17,5.29,1.11,1.72,0.32,
3.234,-13.86,4.17,5.29,1.20,1.73,0.38,
3.255,-13.86,4.17,5.29,1.29,1.75,0.45,
3.255,-14.45,4.43,5.17,1.29,1.75,0.45,
3.256,-14.45,4.43,5.17,1.37,1.75,0.52,
3.256,-14.45,4.43,5.17,1.45,1.74,0.60,
3.256,-14.95,4.80,5.02,1.45,1.74,0.60,
3.256,-14.95,4.80,5.02,1.51,1.72,0.69,
3.256,-14.95,4.80,5.02,1.58,1.70,0.79,
3.257,-15.33,5.19,4.84,1.58,1.70,0.79,
3.257,-15.33,5.19,4.84,1.63,1.67,0.90,
3.257,-15.62,5.49,4.61,1.63,1.67,0.90,
3.257,-15.62,5.49,4.61,1.67,1.63,1.02,
3.257,-15.62,5.49,4.61,1.71,1.60,1.16,
3.258,-15.62,5.49,4.61,1.74,1.55,1.30,
3.258,-15.76,5.74,4.39,1.74,1.55,1.30,
3.26,-15.76,5.74,4.39,1.75,1.51,1.45,
3.262,-15.76,5.74,4.39,1.77,1.46,1.61,
3.263,-15.73,5.92,4.20,1.77,1.46,1.61,
3.263,-15.73,5.92,4.20,1.77,1.41,1.79,
3.266,-15.73,5.92,4.20,1.77,1.36,1.97,
3.266,-15.59,5.94,3.97,1.77,1.36,1.97,
3.269,-15.59,5.94,3.97,1.76,1.30,2.15,
3.276,-15.29,5.81,3.80,1.76,1.30,2.15,
3.277,-15.29,5.81,3.80,1.74,1.25,2.34,
3.277,-15.29,5.81,3.80,1.72,1.19,2.53,
3.278,-15.29,5.81,3.80,1.71,1.13,2.72,
3.278,-14.91,5.53,3.69,1.71,1.13,2.72,
3.279,-14.91,5.53,3.69,1.69,1.07,2.90,
3.281,-14.91,5.53,3.69,1.67,1.01,3.09,
3.281,-14.43,5.04,3.69,1.67,1.01,3.09,
3.283,-14.43,5.04,3.69,1.65,0.94,3.26,
3.287,-14.43,5.04,3.69,1.64,0.88,3.43,
3.288,-13.90,4.40,3.70,1.64,0.88,3.43,
3.289,-13.90,4.40,3.70,1.63,0.81,3.58,
3.291,-13.90,4.40,3.70,1.62,0.73,3.73,
3.291,-13.42,3.63,3.76,1.62,0.73,3.73,
3.293,-13.42,3.63,3.76,1.63,0.66,3.86,
3.296,-13.42,3.63,3.76,1.64,0.59,3.99,
3.296,-12.88,2.77,3.78,1.64,0.59,3.99,
3.298,-12.88,2.77,3.78,1.65,0.52,4.11,
3.301,-12.36,1.86,3.72,1.65,0.52,4.11,
3.301,-12.36,1.86,3.72,1.68,0.45,4.22,
3.304,-12.36,1.86,3.72,1.71,0.38,4.31,
3.306,-11.89,0.98,3.55,1.71,0.38,4.31,
3.306,-11.89,0.98,3.55,1.74,0.32,4.40,
3.308,-11.89,0.98,3.55,1.78,0.27,4.48,
3.312,-11.47,0.13,3.34,1.78,0.27,4.48,
3.312,-11.47,0.13,3.34,1.82,0.22,4.55,
3.313,-11.47,0.13,3.34,1.87,0.17,4.62,
3.316,-11.47,0.13,3.34,1.92,0.13,4.67,
3.317,-11.04,-0.66,3.05,1.92,0.13,4.67,
3.318,-11.04,-0.66,3.05,1.97,0.09,4.71,
3.322,-10.68,-1.42,2.73,1.97,0.09,4.71,
3.328,-10.68,-1.42,2.73,2.02,0.06,4.75,
3.328,-10.68,-1.42,2.73,2.08,0.04,4.78,
3.328,-10.32,-2.13,2.35,2.08,0.04,4.78,
3.342,-10.32,-2.13,2.35,2.13,0.02,4.80,
3.343,-10.32,-2.13,2.35,2.18,0.01,4.82,
3.343,-10.32,-2.13,2.35,2.23,0.01,4.83,
3.343,-10.00,-2.80,1.94,2.23,0.01,4.83,
3.343,-10.00,-2.80,1.94,2.28,0.01,4.84,
3.344,-10.00,-2.80,1.94,2.32,0.02,4.84,
3.344,-10.00,-2.80,1.94,2.35,0.04,4.84,
3.344,-9.75,-3.40,1.51,2.35,0.04,4.84,
3.344,-9.63,-3.90,1.05,2.35,0.04,4.84,
3.344,-9.63,-3.90,1.05,2.38,0.06,4.84,
3.345,-9.63,-3.90,1.05,2.40,0.09,4.85,
3.347,-9.63,-3.90,1.05,2.41,0.12,4.85,
3.348,-9.61,-4.33,0.63,2.41,0.12,4.85,
3.348,-9.61,-4.33,0.63,2.42,0.17,4.86,
3.351,-9.70,-4.75,0.23,2.42,0.17,4.86,
3.351,-9.70,-4.75,0.23,2.41,0.21,4.87,
3.353,-9.70,-4.75,0.23,2.40,0.27,4.88,
3.356,-9.80,-5.18,-0.06,2.40,0.27,4.88,
3.356,-9.80,-5.18,-0.06,2.37,0.32,4.90,
3.358,-9.80,-5.18,-0.06,2.34,0.37,4.92,
3.36,-9.80,-5.18,-0.06,2.29,0.43,4.94,
3.361,-9.93,-5.66,-0.27,2.29,0.43,4.94,
3.363,-9.93,-5.66,-0.27,2.24,0.48,4.97,
3.365,-9.93,-5.66,-0.27,2.18,0.53,4.99,
3.366,-10.04,-6.13,-0.39,2.18,0.53,4.99,
3.368,-10.04,-6.13,-0.39,2.11,0.57,5.02,
3.371,-10.04,-6.13,-0.39,2.03,0.61,5.05,
3.373,-10.03,-6.56,-0.40,2.03,0.61,5.05,
3.373,-10.03,-6.56,-0.40,1.95,0.65,5.08,
3.375,-10.03,-6.56,-0.40,1.86,0.67,5.12,
3.375,-9.89,-6.92,-0.31,1.86,0.67,5.12,
3.378,-9.89,-6.92,-0.31,1.76,0.69,5.14,
3.38,-9.89,-6.92,-0.31,1.67,0.71,5.17,
3.38,-9.61,-7.20,-0.14,1.67,0.71,5.17,
3.383,-9.61,-7.20,-0.14,1.57,0.71,5.20,
3.385,-9.61,-7.20,-0.14,1.47,0.71,5.22,
3.386,-9.30,-7.40,0.12,1.47,0.71,5.22,
3.388,-9.30,-7.40,0.12,1.38,0.70,5.24,
3.39,-9.01,-7.60,0.45,1.38,0.70,5.24,
3.39,-9.01,-7.60,0.45,1.29,0.69,5.25,
3.392,-9.01,-7.60,0.45,1.20,0.66,5.26,
3.395,-9.01,-7.60,0.45,1.12,0.63,5.28,
3.395,-8.68,-7.80,0.81,1.12,0.63,5.28,
3.397,-8.68,-7.80,0.81,1.03,0.58,5.29,
3.4,-8.68,-7.80,0.81,0.96,0.54,5.30,
3.4,-8.33,-7.99,1.15,0.96,0.54,5.30,
3.402,-8.33,-7.99,1.15,0.88,0.49,5.31,
3.406,-8.33,-7.99,1.15,0.81,0.44,5.33,
3.407,-7.96,-8.19,1.39,0.81,0.44,5.33,
3.409,-7.96,-8.19,1.39,0.74,0.38,5.34,
3.41,-7.57,-8.36,1.58,0.74,0.38,5.34,
3.41,-7.57,-8.36,1.58,0.67,0.32,5.36,
3.414,-7.57,-8.36,1.58,0.60,0.26,5.37,
3.416,-7.57,-8.36,1.58,0.54,0.20,5.39,
3.416,-7.14,-8.52,1.73,0.54,0.20,5.39,
3.418,-7.14,-8.52,1.73,0.47,0.14,5.40,
3.426,-6.69,-8.66,1.87,0.47,0.14,5.40,
3.427,-6.69,-8.66,1.87,0.41,0.07,5.42,
3.427,-6.69,-8.66,1.87,0.35,0.00,5.43,
3.428,-6.69,-8.66,1.87,0.29,-0.07,5.45,
3.428,-6.28,-8.80,1.98,0.29,-0.07,5.45,
3.428,-6.28,-8.80,1.98,0.24,-0.14,5.46,
3.43,-5.84,-8.96,2.12,0.24,-0.14,5.46,
3.43,-5.84,-8.96,2.12,0.19,-0.21,5.47,
3.456,-5.84,-8.96,2.12,0.14,-0.28,5.49,
3.457,-5.84,-8.96,2.12,0.10,-0.35,5.50,
3.457,-5.84,-8.96,2.12,0.06,-0.42,5.51,
3.457,-5.40,-9.11,2.25,0.06,-0.42,5.51,
3.458,-4.95,-9.29,2.36,0.06,-0.42,5.51,
3.458,-4.95,-9.29,2.36,0.03,-0.49,5.51,
3.458,-4.95,-9.29,2.36,-0.00,-0.56,5.52,
3.459,-4.95,-9.29,2.36,-0.02,-0.62,5.53,
3.459,-4.46,-9.47,2.43,-0.02,-0.62,5.53,
3.46,-4.46,-9.47,2.43,-0.04,-0.69,5.53,
3.46,-3.98,-9.68,2.52,-0.04,-0.69,5.53,
3.46,-3.98,-9.68,2.52,-0.06,-0.76,5.53,
3.461,-3.98,-9.68,2.52,-0.06,-0.82,5.53,
3.461,-3.98,-9.68,2.52,-0.07,-0.88,5.52,
3.461,-3.52,-9.88,2.55,-0.07,-0.88,5.52,
3.462,-3.52,-9.88,2.55,-0.07,-0.95,5.52,
3.462,-3.52,-9.88,2.55,-0.06,-1.01,5.51,
3.463,-3.07,-10.11,2.53,-0.06,-1.01,5.51,
3.463,-3.07,-10.11,2.53,-0.05,-1.06,5.49,
3.465,-3.07,-10.11,2.53,-0.04,-1.12,5.48,
3.466,-2.62,-10.31,2.47,-0.04,-1.12,5.48,
3.467,-2.62,-10.31,2.47,-0.03,-1.17,5.46,
3.47,-2.62,-10.31,2.47,-0.01,-1.22,5.44,
3.47,-2.20,-10.52,2.38,-0.01,-1.22,5.44,
3.474,-2.20,-10.52,2.38,0.00,-1.26,5.42,
3.475,-2.20,-10.52,2.38,0.03,-1.31,5.39,
3.475,-1.77,-10.71,2.26,0.03,-1.31,5.39,
3.478,-1.77,-10.71,2.26,0.05,-1.35,5.36,
3.48,-1.77,-10.71,2.26,0.08,-1.38,5.33,
3.48,-1.36,-10.87,2.16,0.08,-1.38,5.33,
3.482,-1.36,-10.87,2.16,0.11,-1.41,5.30,
3.485,-1.36,-10.87,2.16,0.15,-1.44,5.26,
3.485,-0.95,-11.02,2.01,0.15,-1.44,5.26,
3.488,-0.95,-11.02,2.01,0.19,-1.46,5.22,
3.491,-0.54,-11.11,1.83,0.19,-1.46,5.22,
3.491,-0.54,-11.11,1.83,0.24,-1.48,5.18,
3.518,-0.54,-11.11,1.83,0.28,-1.49,5.14,
3.519,-0.54,-11.11,1.83,0.33,-1.50,5.10,
3.519,-0.16,-11.23,1.61,0.33,-1.50,5.10,
3.519,-0.16,-11.23,1.61,0.39,-1.51,5.06,
3.52,0.17,-11.33,1.40,0.39,-1.51,5.06,
3.52,0.17,-11.33,1.40,0.44,-1.50,5.01,
3.52,0.17,-11.33,1.40,0.50,-1.49,4.96,
3.521,0.17,-11.33,1.40,0.55,-1.48,4.92,
3.521,0.47,-11.49,1.24,0.55,-1.48,4.92,
3.521,0.47,-11.49,1.24,0.61,-1.46,4.87,
3.521,0.47,-11.49,1.24,0.67,-1.44,4.82,
3.521,0.80,-11.61,1.03,0.67,-1.44,4.82,
3.521,0.80,-11.61,1.03,0.73,-1.42,4.77,
3.522,0.80,-11.61,1.03,0.79,-1.39,4.72,
3.522,1.10,-11.71,0.82,0.79,-1.39,4.72,
3.522,1.10,-11.71,0.82,0.85,-1.35,4.67,
3.522,1.10,-11.71,0.82,0.91,-1.32,4.62,
3.522,1.43,-11.75,0.64,0.91,-1.32,4.62,
3.523,1.43,-11.75,0.64,0.97,-1.28,4.58,
3.527,1.74,-11.79,0.46,0.97,-1.28,4.58,
3.527,1.74,-11.79,0.46,1.02,-1.25,4.53,
3.529,1.74,-11.79,0.46,1.08,-1.21,4.48,
3.53,2.01,-11.79,0.29,1.08,-1.21,4.48,
3.53,2.01,-11.79,0.29,1.14,-1.16,4.43,
3.532,2.01,-11.79,0.29,1.19,-1.12,4.39,
3.535,2.01,-11.79,0.29,1.25,-1.08,4.35,
3.536,2.27,-11.78,0.15,1.25,-1.08,4.35,
3.543,2.27,-11.78,0.15,1.30,-1.03,4.31,
3.544,2.27,-11.78,0.15,1.34,-0.99,4.27,
3.544,2.50,-11.77,-0.03,1.34,-0.99,4.27,
3.545,2.50,-11.77,-0.03,1.39,-0.95,4.23,
3.545,2.71,-11.81,-0.20,1.39,-0.95,4.23,
3.546,2.71,-11.81,-0.20,1.43,-0.90,4.20,
3.546,2.71,-11.81,-0.20,1.46,-0.86,4.17,
3.549,2.94,-11.85,-0.37,1.46,-0.86,4.17,
3.55,2.94,-11.85,-0.37,1.49,-0.82,4.15,
3.551,2.94,-11.85,-0.37,1.52,-0.79,4.13,
3.563,3.13,-11.93,-0.55,1.52,-0.79,4.13,
3.564,3.13,-11.93,-0.55,1.55,-0.75,4.11,
3.565,3.13,-11.93,-0.55,1.57,-0.71,4.09,
3.565,3.13,-11.93,-0.55,1.58,-0.68,4.07,
3.566,3.35,-12.03,-0.65,1.58,-0.68,4.07,
3.566,3.35,-12.03,-0.65,1.60,-0.65,4.06,
3.566,3.35,-12.03,-0.65,1.61,-0.62,4.04,
3.567,3.61,-12.17,-0.76,1.61,-0.62,4.04,
3.567,3.61,-12.17,-0.76,1.62,-0.59,4.01,
3.571,3.61,-12.17,-0.76,1.63,-0.56,3.98,
3.572,3.89,-12.33,-0.83,1.63,-0.56,3.98,
3.588,4.22,-12.49,-0.89,1.63,-0.56,3.98,
3.589,4.22,-12.49,-0.89,1.63,-0.53,3.95,
3.589,4.22,-12.49,-0.89,1.64,-0.50,3.92,
3.589,4.22,-12.49,-0.89,1.65,-0.47,3.88,
3.589,4.52,-12.67,-0.98,1.65,-0.47,3.88,
3.589,4.52,-12.67,-0.98,1.65,-0.44,3.84,
3.59,4.52,-12.67,-0.98,1.66,-0.41,3.79,
3.59,4.52,-12.67,-0.98,1.66,-0.38,3.74,
3.591,4.76,-12.81,-1.08,1.66,-0.38,3.74,
3.591,4.76,-12.81,-1.08,1.66,-0.34,3.68,
3.591,4.97,-13.02,-1.14,1.66,-0.34,3.68,
3.591,4.97,-13.02,-1.14,1.66,-0.31,3.61,
3.592,4.97,-13.02,-1.14,1.66,-0.27,3.54,
3.594,5.18,-13.24,-1.17,1.66,-0.27,3.54,
3.594,5.18,-13.24,-1.17,1.65,-0.23,3.46,
3.596,5.18,-13.24,-1.17,1.64,-0.20,3.39,
3.598,5.18,-13.24,-1.17,1.63,-0.16,3.30,
3.598,5.42,-13.38,-1.16,1.63,-0.16,3.30,
3.601,5.42,-13.38,-1.16,1.62,-0.12,3.21,
3.604,5.61,-13.41,-1.12,1.62,-0.12,3.21,
3.604,5.61,-13.41,-1.12,1.61,-0.09,3.12,
3.606,5.61,-13.41,-1.12,1.60,-0.06,3.03,
3.608,5.77,-13.38,-1.05,1.60,-0.06,3.03,
3.609,5.77,-13.38,-1.05,1.59,-0.03,2.94,
3.611,5.77,-13.38,-1.05,1.58,-0.01,2.84,
3.613,5.94,-13.33,-0.93,1.58,-0.01,2.84,
3.613,5.94,-13.33,-0.93,1.57,0.02,2.74,
3.616,5.94,-13.33,-0.93,1.56,0.04,2.65,
3.618,6.13,-13.29,-0.86,1.56,0.04,2.65,
3.618,6.13,-13.29,-0.86,1.56,0.06,2.54,
3.622,6.13,-13.29,-0.86,1.55,0.08,2.44,
3.624,6.13,-13.29,-0.86,1.54,0.11,2.33,
3.624,6.29,-13.23,-0.79,1.54,0.11,2.33,
3.626,6.29,-13.23,-0.79,1.54,0.13,2.23,
3.628,6.29,-13.23,-0.79,1.53,0.16,2.12,
3.628,6.44,-13.15,-0.74,1.53,0.16,2.12,
3.63,6.44,-13.15,-0.74,1.52,0.18,2.01,
3.633,6.44,-13.15,-0.74,1.51,0.21,1.91,
3.633,6.55,-13.04,-0.73,1.51,0.21,1.91,
3.635,6.55,-13.04,-0.73,1.50,0.23,1.80,
3.64,6.68,-12.90,-0.68,1.50,0.23,1.80,
3.64,6.68,-12.90,-0.68,1.50,0.25,1.69,
3.645,6.68,-12.90,-0.68,1.49,0.27,1.58,
3.645,6.68,-12.90,-0.68,1.47,0.30,1.48,
3.646,6.79,-12.74,-0.62,1.47,0.30,1.48,
3.646,6.79,-12.74,-0.62,1.46,0.32,1.37,
3.648,6.79,-12.74,-0.62,1.45,0.34,1.27,
3.648,6.86,-12.57,-0.57,1.45,0.34,1.27,
3.65,6.86,-12.57,-0.57,1.44,0.36,1.16,
3.653,6.86,-12.57,-0.57,1.43,0.38,1.05,
3.653,6.92,-12.43,-0.49,1.43,0.38,1.05,
3.664,6.92,-12.43,-0.49,1.41,0.40,0.94,
3.675,6.92,-12.43,-0.49,1.40,0.42,0.84,
3.676,6.94,-12.31,-0.42,1.40,0.42,0.84,
3.676,6.94,-12.31,-0.42,1.39,0.43,0.73,
3.676,6.92,-12.19,-0.34,1.39,0.43,0.73,
3.676,6.92,-12.19,-0.34,1.37,0.45,0.63,
3.676,6.92,-12.19,-0.34,1.36,0.46,0.52,
3.676,6.92,-12.19,-0.34,1.34,0.47,0.42,
3.677,6.86,-12.09,-0.27,1.34,0.47,0.42,
3.677,6.86,-12.09,-0.27,1.33,0.49,0.32,
3.677,6.77,-11.99,-0.19,1.33,0.49,0.32,
3.677,6.77,-11.99,-0.19,1.31,0.50,0.21,
3.678,6.77,-11.99,-0.19,1.29,0.51,0.11,
3.682,6.63,-11.93,-0.11,1.29,0.51,0.11,
3.682,6.63,-11.93,-0.11,1.28,0.52,0.01,
3.682,6.63,-11.93,-0.11,1.26,0.53,-0.09,
3.683,6.63,-11.93,-0.11,1.24,0.54,-0.19,
3.683,6.48,-11.88,-0.02,1.24,0.54,-0.19,
3.685,6.48,-11.88,-0.02,1.22,0.54,-0.29,
3.688,6.48,-11.88,-0.02,1.20,0.55,-0.38,
3.688,6.29,-11.88,0.09,1.20,0.55,-0.38,
3.69,6.29,-11.88,0.09,1.18,0.55,-0.48,
3.693,6.07,-11.90,0.21,1.18,0.55,-0.48,
3.693,6.07,-11.90,0.21,1.17,0.55,-0.58,
3.695,6.07,-11.90,0.21,1.15,0.55,-0.67,
3.697,6.07,-11.90,0.21,1.13,0.55,-0.77,
3.698,5.87,-11.93,0.35,1.13,0.55,-0.77,
3.7,5.87,-11.93,0.35,1.11,0.54,-0.86,
3.704,5.87,-11.93,0.35,1.09,0.53,-0.96,
3.704,5.66,-11.96,0.49,1.09,0.53,-0.96,
3.706,5.66,-11.96,0.49,1.08,0.52,-1.05,
3.709,5.47,-11.97,0.65,1.08,0.52,-1.05,
3.709,5.47,-11.97,0.65,1.06,0.50,-1.15,
3.711,5.47,-11.97,0.65,1.05,0.49,-1.24,
3.713,5.47,-11.97,0.65,1.04,0.47,-1.34,
3.714,5.29,-12.00,0.79,1.04,0.47,-1.34,
3.715,5.29,-12.00,0.79,1.04,0.46,-1.43,
3.718,5.29,-12.00,0.79,1.03,0.44,-1.53,
3.718,5.06,-12.06,0.93,1.03,0.44,-1.53,
3.72,5.06,-12.06,0.93,1.03,0.43,-1.62,
3.724,5.06,-12.06,0.93,1.03,0.42,-1.72,
3.727,4.77,-12.16,1.02,1.03,0.42,-1.72,
3.727,4.77,-12.16,1.02,1.03,0.40,-1.81,
3.727,4.77,-12.16,1.02,1.04,0.39,-1.90,
3.727,4.47,-12.32,1.10,1.04,0.39,-1.90,
3.73,4.47,-12.32,1.10,1.04,0.37,-1.99,
3.734,4.47,-12.32,1.10,1.04,0.35,-2.09,
3.734,4.18,-12.51,1.18,1.04,0.35,-2.09,
3.735,4.18,-12.51,1.18,1.05,0.33,-2.18,
3.758,4.18,-12.51,1.18,1.05,0.31,-2.27,
3.758,3.95,-12.67,1.20,1.05,0.31,-2.27,
3.758,3.95,-12.67,1.20,1.06,0.29,-2.36,
3.758,3.95,-12.67,1.20,1.06,0.27,-2.45,
3.759,3.73,-12.81,1.25,1.06,0.27,-2.45,
3.759,3.73,-12.81,1.25,1.06,0.25,-2.55,
3.759,3.55,-12.93,1.24,1.06,0.25,-2.55,
3.759,3.55,-12.93,1.24,1.06,0.24,-2.64,
3.759,3.55,-12.93,1.24,1.07,0.22,-2.74,
3.759,3.38,-13.04,1.22,1.07,0.22,-2.74,
3.76,3.38,-13.04,1.22,1.07,0.21,-2.83,
3.76,3.38,-13.04,1.22,1.07,0.20,-2.93,
3.76,3.23,-13.17,1.21,1.07,0.20,-2.93,
3.76,3.23,-13.17,1.21,1.07,0.20,-3.03,
3.76,3.23,-13.17,1.21,1.07,0.19,-3.12,
3.762,3.08,-13.29,1.14,1.07,0.19,-3.12,
3.763,3.08,-13.29,1.14,1.07,0.19,-3.22,
3.768,3.08,-13.29,1.14,1.07,0.19,-3.31,
3.768,2.88,-13.39,1.07,1.07,0.19,-3.31,
3.769,2.88,-13.39,1.07,1.06,0.20,-3.41,
3.77,2.88,-13.39,1.07,1.05,0.21,-3.51,
3.773,2.65,-13.52,1.03,1.05,0.21,-3.51,
3.773,2.65,-13.52,1.03,1.04,0.22,-3.60,
3.778,2.38,-13.72,0.95,1.04,0.22,-3.60,
3.78,2.38,-13.72,0.95,1.03,0.23,-3.70,
3.78,2.38,-13.72,0.95,1.01,0.25,-3.80,
3.781,2.38,-13.72,0.95,0.99,0.26,-3.90,
3.782,2.38,-13.72,0.95,0.97,0.28,-4.00,
3.782,2.06,-14.00,0.91,0.97,0.28,-4.00,
3.785,2.06,-14.00,0.91,0.94,0.30,-4.11,
3.787,2.06,-14.00,0.91,0.92,0.31,-4.22,
3.787,1.70,-14.31,0.91,0.92,0.31,-4.22,
3.79,1.70,-14.31,0.91,0.89,0.33,-4.33,
3.792,1.70,-14.31,0.91,0.86,0.34,-4.44,
3.792,1.36,-14.55,0.94,0.86,0.34,-4.44,
3.794,1.36,-14.55,0.94,0.84,0.36,-4.56,
3.797,1.36,-14.55,0.94,0.81,0.36,-4.68,
3.797,1.05,-14.66,1.06,0.81,0.36,-4.68,
3.799,1.05,-14.66,1.06,0.79,0.37,-4.80,
3.802,1.05,-14.66,1.06,0.77,0.37,-4.92,
3.802,0.71,-14.66,1.21,0.77,0.37,-4.92,
3.805,0.71,-14.66,1.21,0.75,0.37,-5.05,
3.807,0.31,-14.64,1.29,0.75,0.37,-5.05,
3.807,0.31,-14.64,1.29,0.74,0.36,-5.17,
3.809,0.31,-14.64,1.29,0.74,0.36,-5.31,
3.812,0.31,-14.64,1.29,0.74,0.35,-5.44,
3.812,-0.11,-14.61,1.37,0.74,0.35,-5.44,
3.814,-0.11,-14.61,1.37,0.74,0.34,-5.57,
3.817,-0.11,-14.61,1.37,0.75,0.33,-5.70,
3.817,-0.64,-14.45,1.39,0.75,0.33,-5.70,
3.819,-0.64,-14.45,1.39,0.76,0.32,-5.83,
3.827,-0.64,-14.45,1.39,0.77,0.31,-5.96,
3.848,-1.30,-14.12,1.30,0.77,0.31,-5.96,
3.848,-1.30,-14.12,1.30,0.79,0.31,-6.07,
3.848,-1.30,-14.12,1.30,0.81,0.31,-6.19,
3.848,-2.14,-13.72,1.19,0.81,0.31,-6.19,
3.849,-2.14,-13.72,1.19,0.83,0.31,-6.29,
3.849,-3.09,-13.32,1.03,0.83,0.31,-6.29,
3.849,-3.09,-13.32,1.03,0.85,0.30,-6.38,
3.849,-3.09,-13.32,1.03,0.88,0.29,-6.47,
3.849,-4.06,-12.86,0.84,0.88,0.29,-6.47,
3.85,-4.06,-12.86,0.84,0.90,0.28,-6.54,
3.85,-4.06,-12.86,0.84,0.93,0.27,-6.59,
3.85,-4.06,-12.86,0.84,0.95,0.26,-6.64,
3.85,-5.06,-12.29,0.56,0.95,0.26,-6.64,
3.851,-5.06,-12.29,0.56,0.97,0.25,-6.66,
3.851,-6.01,-11.66,0.24,0.97,0.25,-6.66,
3.852,-6.01,-11.66,0.24,0.99,0.25,-6.67,
3.852,-6.01,-11.66,0.24,1.00,0.24,-6.67,
3.852,-6.92,-10.99,-0.10,1.00,0.24,-6.67,
3.853,-6.92,-10.99,-0.10,1.01,0.25,-6.65,
3.854,-6.92,-10.99,-0.10,1.01,0.26,-6.62,
3.859,-7.76,-10.37,-0.44,1.01,0.26,-6.62,
3.859,-7.76,-10.37,-0.44,1.00,0.27,-6.57,
3.859,-7.76,-10.37,-0.44,0.99,0.28,-6.52,
3.862,-7.76,-10.37,-0.44,0.97,0.30,-6.45,
3.862,-8.46,-9.77,-0.76,0.97,0.30,-6.45,
3.864,-8.46,-9.77,-0.76,0.94,0.31,-6.37,
3.866,-8.46,-9.77,-0.76,0.90,0.33,-6.29,
3.867,-8.98,-9.19,-1.02,0.90,0.33,-6.29,
3.869,-8.98,-9.19,-1.02,0.86,0.34,-6.20,
3.872,-9.35,-8.71,-1.25,0.86,0.34,-6.20,
3.873,-9.35,-8.71,-1.25,0.81,0.36,-6.11,
3.875,-9.35,-8.71,-1.25,0.74,0.36,-6.01,
3.876,-9.57,-8.33,-1.38,0.74,0.36,-6.01,
3.877,-9.57,-8.33,-1.38,0.68,0.37,-5.92,
3.879,-9.57,-8.33,-1.38,0.60,0.37,-5.83,
3.882,-9.65,-8.03,-1.39,0.60,0.37,-5.83,
3.883,-9.65,-8.03,-1.39,0.52,0.36,-5.74,
3.885,-9.65,-8.03,-1.39,0.43,0.35,-5.66,
3.886,-9.65,-8.03,-1.39,0.34,0.33,-5.59,
3.886,-9.67,-7.81,-1.35,0.34,0.33,-5.59,
3.89,-9.67,-7.81,-1.35,0.25,0.30,-5.52,
3.891,-9.67,-7.61,-1.25,0.25,0.30,-5.52,
3.891,-9.67,-7.61,-1.25,0.15,0.27,-5.46,
3.893,-9.67,-7.61,-1.25,0.05,0.24,-5.40,
3.896,-9.67,-7.61,-1.25,-0.05,0.20,-5.35,
3.896,-9.65,-7.40,-1.06,-0.05,0.20,-5.35,
3.898,-9.65,-7.40,-1.06,-0.15,0.16,-5.31,
3.901,-9.65,-7.40,-1.06,-0.26,0.12,-5.26,
3.902,-9.62,-7.17,-0.89,-0.26,0.12,-5.26,
3.904,-9.62,-7.17,-0.89,-0.36,0.07,-5.22,
3.907,-9.59,-6.99,-0.67,-0.36,0.07,-5.22,
3.907,-9.59,-6.99,-0.67,-0.47,0.03,-5.18,
3.909,-9.59,-6.99,-0.67,-0.58,-0.02,-5.15,
3.911,-9.59,-6.99,-0.67,-0.69,-0.07,-5.12,
3.911,-9.56,-6.79,-0.43,-0.69,-0.07,-5.12,
3.913,-9.56,-6.79,-0.43,-0.81,-0.13,-5.08,
3.916,-9.56,-6.79,-0.43,-0.92,-0.18,-5.05,
3.916,-9.54,-6.59,-0.17,-0.92,-0.18,-5.05,
3.919,-9.54,-6.59,-0.17,-1.03,-0.24,-5.03,
3.921,-9.52,-6.36,0.09,-1.03,-0.24,-5.03,
3.922,-9.52,-6.36,0.09,-1.15,-0.30,-5.00,
3.928,-9.52,-6.36,0.09,-1.26,-0.36,-4.98,
3.929,-9.52,-6.36,0.09,-1.37,-0.42,-4.95,
3.929,-9.44,-6.10,0.40,-1.37,-0.42,-4.95,
3.929,-9.44,-6.10,0.40,-1.48,-0.50,-4.93,
3.938,-9.33,-5.82,0.73,-1.48,-0.50,-4.93,
3.938,-9.20,-5.50,1.10,-1.48,-0.50,-4.93,
3.939,-9.20,-5.50,1.10,-1.59,-0.57,-4.91,
3.939,-9.20,-5.50,1.10,-1.70,-0.64,-4.89,
3.939,-9.20,-5.50,1.10,-1.80,-0.71,-4.88,
3.939,-9.20,-5.50,1.10,-1.90,-0.78,-4.86,
3.95,-9.20,-5.50,1.10,-2.00,-0.86,-4.84,
3.951,-9.09,-5.16,1.46,-2.00,-0.86,-4.84,
3.951,-9.09,-5.16,1.46,-2.09,-0.93,-4.83,
3.952,-9.09,-5.16,1.46,-2.18,-1.00,-4.82,
3.952,-8.98,-4.85,1.82,-2.18,-1.00,-4.82,
3.952,-8.98,-4.85,1.82,-2.27,-1.08,-4.80,
3.952,-8.98,-4.85,1.82,-2.35,-1.15,-4.79,
3.953,-8.88,-4.54,2.17,-2.35,-1.15,-4.79,
3.953,-8.88,-4.54,2.17,-2.42,-1.22,-4.78,
3.956,-8.80,-4.21,2.55,-2.42,-1.22,-4.78,
3.956,-8.80,-4.21,2.55,-2.49,-1.29,-4.77,
3.958,-8.80,-4.21,2.55,-2.55,-1.36,-4.76,
3.961,-8.80,-4.21,2.55,-2.61,-1.43,-4.75,
3.961,-8.78,-3.82,2.97,-2.61,-1.43,-4.75,
3.963,-8.78,-3.82,2.97,-2.65,-1.50,-4.75,
3.965,-8.78,-3.82,2.97,-2.69,-1.57,-4.73,
3.965,-8.77,-3.37,3.37,-2.69,-1.57,-4.73,
3.968,-8.77,-3.37,3.37,-2.72,-1.65,-4.72,
3.97,-8.76,-2.90,3.75,-2.72,-1.65,-4.72,
3.971,-8.76,-2.90,3.75,-2.74,-1.72,-4.71,
3.973,-8.76,-2.90,3.75,-2.74,-1.79,-4.70,
3.975,-8.80,-2.45,4.07,-2.74,-1.79,-4.70,
3.975,-8.80,-2.45,4.07,-2.74,-1.86,-4.68,
3.978,-8.80,-2.45,4.07,-2.73,-1.94,-4.67,
3.981,-8.80,-2.45,4.07,-2.71,-2.01,-4.66,
3.981,-8.83,-1.98,4.36,-2.71,-2.01,-4.66,
3.983,-8.83,-1.98,4.36,-2.68,-2.08,-4.64,
3.985,-8.87,-1.50,4.57,-2.68,-2.08,-4.64,
3.989,-8.87,-1.50,4.57,-2.64,-2.15,-4.62,
4.001,-8.87,-1.50,4.57,-2.59,-2.22,-4.61,
4.001,-8.91,-1.00,4.73,-2.59,-2.22,-4.61,
4.001,-8.91,-1.00,4.73,-2.53,-2.28,-4.59,
4.002,-8.91,-1.00,4.73,-2.47,-2.35,-4.57,
4.002,-8.91,-1.00,4.73,-2.39,-2.41,-4.55,
4.002,-9.01,-0.43,4.71,-2.39,-2.41,-4.55,
4.002,-9.01,-0.43,4.71,-2.32,-2.46,-4.53,
4.003,-9.01,-0.43,4.71,-2.23,-2.51,-4.51,
4.003,-9.08,0.13,4.63,-2.23,-2.51,-4.51,
4.003,-9.08,0.13,4.63,-2.15,-2.56,-4.49,
4.006,-9.16,0.73,4.42,-2.15,-2.56,-4.49,
4.006,-9.16,0.73,4.42,-2.06,-2.60,-4.46,
4.009,-9.16,0.73,4.42,-1.97,-2.64,-4.43,
4.01,-9.27,1.33,4.14,-1.97,-2.64,-4.43,
4.01,-9.27,1.33,4.14,-1.88,-2.66,-4.40,
4.013,-9.27,1.33,4.14,-1.79,-2.68,-4.37,
4.015,-9.38,1.94,3.77,-1.79,-2.68,-4.37,
4.016,-9.38,1.94,3.77,-1.70,-2.70,-4.34,
4.018,-9.38,1.94,3.77,-1.61,-2.70,-4.29,
4.02,-9.38,1.94,3.77,-1.53,-2.70,-4.25,
4.02,-9.48,2.55,3.39,-1.53,-2.70,-4.25,
4.026,-9.48,2.55,3.39,-1.45,-2.69,-4.20,
4.026,-9.57,3.14,2.96,-1.45,-2.69,-4.20,
4.027,-9.57,3.14,2.96,-1.37,-2.68,-4.15,
4.027,-9.57,3.14,2.96,-1.29,-2.65,-4.09,
4.03,-9.65,3.71,2.55,-1.29,-2.65,-4.09,
4.03,-9.65,3.71,2.55,-1.22,-2.62,-4.02,
4.032,-9.65,3.71,2.55,-1.16,-2.59,-3.96,
4.036,-9.63,4.24,2.16,-1.16,-2.59,-3.96,
4.036,-9.63,4.24,2.16,-1.09,-2.55,-3.89,
4.038,-9.63,4.24,2.16,-1.03,-2.50,-3.81,
4.042,-9.56,4.75,1.82,-1.03,-2.50,-3.81,
4.042,-9.56,4.75,1.82,-0.98,-2.45,-3.74,
4.043,-9.56,4.75,1.82,-0.93,-2.40,-3.66,
4.046,-9.56,4.75,1.82,-0.89,-2.33,-3.58,
4.047,-9.56,4.75,1.82,-0.85,-2.27,-3.49,
4.048,-9.43,5.23,1.47,-0.85,-2.27,-3.49,
4.05,-9.24,5.71,1.19,-0.85,-2.27,-3.49,
4.05,-9.24,5.71,1.19,-0.81,-2.20,-3.41,
4.052,-9.24,5.71,1.19,-0.78,-2.12,-3.32,
4.054,-9.24,5.71,1.19,-0.75,-2.04,-3.23,
4.055,-9.05,6.15,0.95,-0.75,-2.04,-3.23,
4.058,-9.05,6.15,0.95,-0.72,-1.96,-3.15,
4.06,-9.05,6.15,0.95,-0.70,-1.88,-3.06,
4.06,-8.82,6.55,0.81,-0.70,-1.88,-3.06,
4.062,-8.82,6.55,0.81,-0.68,-1.80,-2.97,
4.065,-8.82,6.55,0.81,-0.66,-1.73,-2.89,
4.065,-8.65,6.87,0.69,-0.66,-1.73,-2.89,
4.067,-8.65,6.87,0.69,-0.64,-1.66,-2.80,
4.07,-8.65,6.87,0.69,-0.62,-1.60,-2.72,
4.07,-8.54,7.14,0.70,-0.62,-1.60,-2.72,
4.072,-8.54,7.14,0.70,-0.61,-1.54,-2.64,
4.075,-8.44,7.35,0.67,-0.61,-1.54,-2.64,
4.075,-8.44,7.35,0.67,-0.60,-1.50,-2.56,
4.077,-8.44,7.35,0.67,-0.59,-1.46,-2.48,
4.079,-8.44,7.35,0.67,-0.58,-1.43,-2.40,
4.08,-8.35,7.46,0.69,-0.58,-1.43,-2.40,
4.082,-8.35,7.46,0.69,-0.59,-1.42,-2.32,
4.084,-8.35,7.46,0.69,-0.59,-1.40,-2.24,
4.085,-8.26,7.49,0.66,-0.59,-1.40,-2.24,
4.087,-8.26,7.49,0.66,-0.61,-1.40,-2.17,
4.09,-8.26,7.49,0.66,-0.62,-1.40,-2.10,
4.09,-8.14,7.50,0.60,-0.62,-1.40,-2.10,
4.092,-8.14,7.50,0.60,-0.64,-1.41,-2.02,
4.094,-8.14,7.50,0.60,-0.67,-1.42,-1.95,
4.095,-8.01,7.50,0.53,-0.67,-1.42,-1.95,
4.097,-8.01,7.50,0.53,-0.70,-1.44,-1.88,
4.099,-8.01,7.50,0.53,-0.73,-1.46,-1.81,
4.1,-7.87,7.56,0.47,-0.73,-1.46,-1.81,
4.102,-7.87,7.56,0.47,-0.77,-1.49,-1.74,
4.104,-7.87,7.56,0.47,-0.81,-1.52,-1.67,
4.105,-7.72,7.59,0.41,-0.81,-1.52,-1.67,
4.107,-7.72,7.59,0.41,-0.86,-1.56,-1.60,
4.11,-7.72,7.59,0.41,-0.91,-1.60,-1.54,
4.11,-7.54,7.60,0.35,-0.91,-1.60,-1.54,
4.112,-7.54,7.60,0.35,-0.97,-1.64,-1.47,
4.114,-7.54,7.60,0.35,-1.02,-1.68,-1.42,
4.115,-7.33,7.61,0.33,-1.02,-1.68,-1.42,
4.117,-7.33,7.61,0.33,-1.08,-1.72,-1.36,
4.121,-7.11,7.61,0.30,-1.08,-1.72,-1.36,
4.121,-7.11,7.61,0.30,-1.14,-1.75,-1.30,
4.122,-7.11,7.61,0.30,-1.20,-1.79,-1.25,
4.126,-6.92,7.57,0.30,-1.20,-1.79,-1.25,
4.129,-6.92,7.57,0.30,-1.26,-1.82,-1.21,
4.129,-6.92,7.57,0.30,-1.32,-1.85,-1.16,
4.129,-6.76,7.55,0.35,-1.32,-1.85,-1.16,
4.129,-6.76,7.55,0.35,-1.38,-1.88,-1.12,
4.132,-6.76,7.55,0.35,-1.44,-1.90,-1.08,
4.134,-6.66,7.50,0.43,-1.44,-1.90,-1.08,
4.134,-6.66,7.50,0.43,-1.49,-1.93,-1.04,
4.137,-6.66,7.50,0.43,-1.54,-1.95,-1.00,
4.157,-6.66,7.50,0.43,-1.59,-1.97,-0.96,
4.157,-6.61,7.44,0.56,-1.59,-1.97,-0.96,
4.157,-6.61,7.44,0.56,-1.63,-1.99,-0.92,
4.158,-6.61,7.44,0.56,-1.67,-2.01,-0.89,
4.158,-6.60,7.41,0.68,-1.67,-2.01,-0.89,
4.158,-6.60,7.41,0.68,-1.70,-2.03,-0.85,
4.158,-6.60,7.41,0.68,-1.73,-2.04,-0.81,
4.158,-6.59,7.41,0.80,-1.73,-2.04,-0.81,
4.158,-6.59,7.41,0.80,-1.76,-2.05,-0.77,
4.173,-6.59,7.41,0.80,-1.78,-2.06,-0.72,
4.174,-6.56,7.42,0.91,-1.78,-2.06,-0.72,
4.174,-6.56,7.42,0.91,-1.79,-2.06,-0.68,
4.174,-6.56,7.42,0.91,-1.80,-2.06,-0.64,
4.174,-6.48,7.42,1.03,-1.80,-2.06,-0.64,
4.174,-6.48,7.42,1.03,-1.81,-2.06,-0.59,
4.174,-6.48,7.42,1.03,-1.81,-2.05,-0.54,
4.175,-6.45,7.40,1.09,-1.81,-2.05,-0.54,
4.175,-6.45,7.40,1.09,-1.81,-2.04,-0.50,
4.175,-6.45,7.40,1.09,-1.81,-2.02,-0.45,
4.175,-6.36,7.36,1.15,-1.81,-2.02,-0.45,
4.175,-6.36,7.36,1.15,-1.80,-2.01,-0.41,
4.175,-6.36,7.36,1.15,-1.79,-1.98,-0.37,
4.176,-6.24,7.33,1.18,-1.79,-1.98,-0.37,
4.177,-6.24,7.33,1.18,-1.78,-1.96,-0.33,
4.179,-6.24,7.33,1.18,-1.77,-1.93,-0.29,
4.18,-6.12,7.29,1.23,-1.77,-1.93,-0.29,
4.182,-6.12,7.29,1.23,-1.75,-1.90,-0.25,
4.184,-6.12,7.29,1.23,-1.74,-1.87,-0.21,
4.184,-5.98,7.28,1.27,-1.74,-1.87,-0.21,
4.186,-5.98,7.28,1.27,-1.72,-1.83,-0.18,
4.19,-5.98,7.28,1.27,-1.71,-1.79,-0.14,
4.19,-5.84,7.25,1.28,-1.71,-1.79,-0.14,
4.192,-5.84,7.25,1.28,-1.69,-1.75,-0.10,
4.194,-5.84,7.25,1.28,-1.68,-1.70,-0.07,
4.194,-5.71,7.16,1.33,-1.68,-1.70,-0.07,
4.196,-5.71,7.16,1.33,-1.66,-1.66,-0.04,
4.199,-5.71,7.16,1.33,-1.65,-1.61,-0.01,
4.199,-5.56,7.03,1.45,-1.65,-1.61,-0.01,
4.202,-5.56,7.03,1.45,-1.64,-1.56,0.01,
4.204,-5.56,7.03,1.45,-1.63,-1.52,0.03,
4.205,-5.39,6.86,1.58,-1.63,-1.52,0.03,
4.21,-5.39,6.86,1.58,-1.61,-1.48,0.05,
4.211,-5.25,6.68,1.76,-1.61,-1.48,0.05,
4.212,-5.25,6.68,1.76,-1.60,-1.43,0.06,
4.213,-5.25,6.68,1.76,-1.59,-1.39,0.07,
4.214,-5.25,6.68,1.76,-1.58,-1.33,0.08,
4.214,-5.11,6.58,1.97,-1.58,-1.33,0.08,
4.216,-5.11,6.58,1.97,-1.56,-1.28,0.09,
4.219,-5.11,6.58,1.97,-1.54,-1.22,0.10,
4.219,-5.01,6.48,2.24,-1.54,-1.22,0.10,
4.221,-5.01,6.48,2.24,-1.52,-1.17,0.10,
4.233,-5.01,6.48,2.24,-1.50,-1.11,0.11,
4.241,-4.96,6.42,2.51,-1.50,-1.11,0.11,
4.241,-4.96,6.42,2.51,-1.47,-1.06,0.11,
4.242,-4.97,6.34,2.84,-1.47,-1.06,0.11,
4.242,-4.97,6.34,2.84,-1.44,-1.00,0.11,
4.243,-4.97,6.34,2.84,-1.41,-0.95,0.12,
4.243,-4.97,6.34,2.84,-1.37,-0.90,0.12,
4.243,-5.02,6.23,3.16,-1.37,-0.90,0.12,
4.244,-5.02,6.23,3.16,-1.33,-0.85,0.11,
4.244,-5.02,6.23,3.16,-1.29,-0.80,0.11,
4.244,-5.08,6.10,3.49,-1.29,-0.80,0.11,
4.244,-5.13,5.97,3.78,-1.29,-0.80,0.11,
4.246,-5.13,5.97,3.78,-1.24,-0.75,0.11,
4.246,-5.13,5.97,3.78,-1.19,-0.71,0.11,
4.246,-5.13,5.97,3.78,-1.13,-0.66,0.11,
4.249,-5.13,5.97,3.78,-1.07,-0.62,0.12,
4.249,-5.26,5.85,4.03,-1.07,-0.62,0.12,
4.251,-5.26,5.85,4.03,-1.01,-0.57,0.12,
4.254,-5.26,5.85,4.03,-0.94,-0.52,0.12,
4.254,-5.41,5.76,4.25,-0.94,-0.52,0.12,
4.265,-5.41,5.76,4.25,-0.87,-0.48,0.13,
4.266,-5.41,5.76,4.25,-0.80,-0.43,0.14,
4.266,-5.59,5.66,4.45,-0.80,-0.43,0.14,
4.266,-5.59,5.66,4.45,-0.72,-0.38,0.14,
4.267,-5.59,5.66,4.45,-0.65,-0.33,0.15,
4.267,-5.81,5.63,4.59,-0.65,-0.33,0.15,
4.267,-5.81,5.63,4.59,-0.56,-0.28,0.17,
4.268,-5.81,5.63,4.59,-0.48,-0.23,0.18,
4.269,-6.03,5.56,4.69,-0.48,-0.23,0.18,
4.271,-6.03,5.56,4.69,-0.40,-0.18,0.20,
4.273,-6.22,5.51,4.74,-0.40,-0.18,0.20,
4.274,-6.22,5.51,4.74,-0.31,-0.13,0.22,
4.279,-6.22,5.51,4.74,-0.23,-0.07,0.25,
4.279,-6.22,5.51,4.74,-0.14,-0.02,0.27,
4.28,-6.41,5.39,4.74,-0.14,-0.02,0.27,
4.28,-6.41,5.39,4.74,-0.06,0.04,0.30,
4.283,-6.41,5.39,4.74,0.03,0.09,0.32,
4.283,-6.61,5.24,4.73,0.03,0.09,0.32,
4.285,-6.61,5.24,4.73,0.11,0.15,0.35,
4.288,-6.61,5.24,4.73,0.19,0.21,0.38,
4.288,-6.87,5.02,4.71,0.19,0.21,0.38,
4.29,-6.87,5.02,4.71,0.27,0.26,0.40,
4.293,-6.87,5.02,4.71,0.34,0.32,0.43,
4.293,-7.15,4.75,4.69,0.34,0.32,0.43,
4.295,-7.15,4.75,4.69,0.42,0.38,0.45,
4.298,-7.15,4.75,4.69,0.49,0.43,0.47,
4.298,-7.45,4.46,4.66,0.49,0.43,0.47,
4.3,-7.45,4.46,4.66,0.56,0.48,0.49,
4.302,-7.45,4.46,4.66,0.64,0.53,0.51,
4.303,-7.74,4.13,4.65,0.64,0.53,0.51,
4.305,-7.74,4.13,4.65,0.71,0.58,0.53,
4.308,-7.74,4.13,4.65,0.77,0.62,0.55,
4.309,-8.02,3.83,4.63,0.77,0.62,0.55,
4.31,-8.02,3.83,4.63,0.84,0.66,0.57,
4.312,-8.02,3.83,4.63,0.91,0.70,0.58,
4.313,-8.30,3.55,4.59,0.91,0.70,0.58,
4.315,-8.30,3.55,4.59,0.98,0.74,0.60,
4.317,-8.30,3.55,4.59,1.05,0.78,0.61,
4.332,-8.52,3.34,4.58,1.05,0.78,0.61,
4.332,-8.52,3.34,4.58,1.13,0.81,0.63,
4.332,-8.73,3.13,4.55,1.13,0.81,0.63,
4.332,-8.73,3.13,4.55,1.20,0.85,0.64,
4.333,-8.73,3.13,4.55,1.28,0.88,0.65,
4.333,-8.73,3.13,4.55,1.36,0.92,0.66,
4.333,-8.95,2.97,4.53,1.36,0.92,0.66,
4.333,-8.95,2.97,4.53,1.44,0.95,0.67,
4.334,-8.95,2.97,4.53,1.52,0.99,0.68,
4.334,-9.10,2.86,4.50,1.52,0.99,0.68,
4.339,-9.10,2.86,4.50,1.61,1.03,0.68,
4.34,-9.10,2.86,4.50,1.70,1.06,0.69,
4.34,-9.26,2.79,4.46,1.70,1.06,0.69,
4.343,-9.26,2.79,4.46,1.79,1.10,0.69,
4.344,-9.26,2.79,4.46,1.88,1.14,0.70,
4.344,-9.46,2.78,4.38,1.88,1.14,0.70,
4.345,-9.46,2.78,4.38,1.98,1.18,0.70,
4.347,-9.46,2.78,4.38,2.07,1.22,0.71,
4.348,-9.69,2.77,4.27,2.07,1.22,0.71,
4.35,-9.69,2.77,4.27,2.17,1.26,0.71,
4.353,-9.69,2.77,4.27,2.26,1.30,0.72,
4.353,-9.93,2.82,4.14,2.26,1.30,0.72,
4.355,-9.93,2.82,4.14,2.36,1.35,0.73,
4.358,-9.93,2.82,4.14,2.46,1.39,0.75,
4.359,-10.21,2.88,3.92,2.46,1.39,0.75,
4.362,-10.21,2.88,3.92,2.55,1.43,0.76,
4.363,-10.21,2.88,3.92,2.65,1.48,0.79,
4.363,-10.55,2.95,3.68,2.65,1.48,0.79,
4.364,-10.55,2.95,3.68,2.74,1.52,0.81,
4.367,-10.55,2.95,3.68,2.83,1.57,0.84,
4.367,-10.90,3.02,3.41,2.83,1.57,0.84,
4.369,-10.90,3.02,3.41,2.91,1.62,0.87,
4.372,-10.90,3.02,3.41,3.00,1.66,0.91,
4.372,-11.30,3.12,3.10,3.00,1.66,0.91,
4.375,-11.30,3.12,3.10,3.07,1.71,0.96,
4.378,-11.30,3.12,3.10,3.15,1.75,1.02,
4.378,-11.68,3.24,2.75,3.15,1.75,1.02,
4.379,-11.68,3.24,2.75,3.21,1.80,1.08,
4.383,-11.68,3.24,2.75,3.27,1.84,1.15,
4.383,-12.04,3.36,2.37,3.27,1.84,1.15,
4.385,-12.04,3.36,2.37,3.33,1.88,1.23,
4.389,-12.04,3.36,2.37,3.37,1.92,1.32,
4.389,-12.43,3.42,2.00,3.37,1.92,1.32,
4.39,-12.43,3.42,2.00,3.41,1.96,1.41,
4.393,-12.85,3.37,1.65,3.41,1.96,1.41,
4.393,-12.85,3.37,1.65,3.45,2.00,1.52,
4.394,-12.85,3.37,1.65,3.47,2.04,1.63,
4.397,-12.85,3.37,1.65,3.49,2.07,1.75,
4.398,-13.20,3.23,1.32,3.49,2.07,1.75,
4.401,-13.20,3.23,1.32,3.49,2.09,1.88,
4.402,-13.20,3.23,1.32,3.49,2.11,2.01,
4.402,-13.45,3.01,1.01,3.49,2.11,2.01,
4.404,-13.45,3.01,1.01,3.48,2.13,2.15,
4.407,-13.58,2.67,0.69,3.48,2.13,2.15,
4.408,-13.58,2.67,0.69,3.46,2.14,2.30,
4.409,-13.58,2.67,0.69,3.43,2.14,2.45,
4.412,-13.58,2.67,0.69,3.40,2.15,2.60,
4.412,-13.57,2.25,0.40,3.40,2.15,2.60,
4.414,-13.57,2.25,0.40,3.36,2.16,2.76,
4.417,-13.57,2.25,0.40,3.31,2.17,2.91,
4.417,-13.37,1.74,0.18,3.31,2.17,2.91,
4.419,-13.37,1.74,0.18,3.25,2.18,3.06,
4.422,-13.37,1.74,0.18,3.19,2.18,3.21,
4.422,-13.05,1.19,-0.01,3.19,2.18,3.21,
4.425,-13.05,1.19,-0.01,3.13,2.20,3.35,
4.431,-13.05,1.19,-0.01,3.06,2.21,3.48,
4.431,-12.62,0.60,-0.14,3.06,2.21,3.48,
4.432,-12.62,0.60,-0.14,2.99,2.22,3.60,
4.432,-12.62,0.60,-0.14,2.92,2.23,3.72,
4.432,-12.12,0.01,-0.18,2.92,2.23,3.72,
4.435,-12.12,0.01,-0.18,2.85,2.25,3.83,
4.436,-12.12,0.01,-0.18,2.77,2.26,3.93,
4.437,-11.70,-0.57,-0.13,2.77,2.26,3.93,
4.441,-11.70,-0.57,-0.13,2.69,2.27,4.03,
4.444,-11.70,-0.57,-0.13,2.61,2.28,4.11,
4.445,-11.31,-1.21,-0.02,2.61,2.28,4.11,
4.445,-11.31,-1.21,-0.02,2.54,2.28,4.20,
4.447,-11.31,-1.21,-0.02,2.46,2.29,4.27,
4.447,-10.97,-1.87,0.13,2.46,2.29,4.27,
4.45,-10.97,-1.87,0.13,2.39,2.29,4.35,
4.452,-10.97,-1.87,0.13,2.31,2.29,4.42,
4.452,-10.73,-2.50,0.29,2.31,2.29,4.42,
4.454,-10.73,-2.50,0.29,2.24,2.29,4.48,
4.457,-10.54,-3.15,0.44,2.24,2.29,4.48,
4.458,-10.54,-3.15,0.44,2.17,2.28,4.55,
4.46,-10.54,-3.15,0.44,2.10,2.27,4.61,
4.462,-10.54,-3.15,0.44,2.04,2.25,4.67,
4.464,-10.54,-3.15,0.44,1.97,2.23,4.73,
4.465,-10.39,-3.80,0.62,1.97,2.23,4.73,
4.466,-10.39,-3.80,0.62,1.90,2.21,4.78,
4.467,-10.27,-4.45,0.75,1.90,2.21,4.78,
4.468,-10.27,-4.45,0.75,1.83,2.18,4.84,
4.471,-10.27,-4.45,0.75,1.77,2.15,4.89,
4.471,-10.15,-5.09,0.87,1.77,2.15,4.89,
4.474,-10.15,-5.09,0.87,1.70,2.12,4.94,
4.477,-10.15,-5.09,0.87,1.63,2.07,4.99,
4.477,-10.02,-5.69,0.94,1.63,2.07,4.99,
4.479,-10.02,-5.69,0.94,1.55,2.03,5.04,
4.481,-9.90,-6.28,0.97,1.55,2.03,5.04,
4.482,-9.90,-6.28,0.97,1.48,1.99,5.08,
4.496,-9.90,-6.28,0.97,1.40,1.95,5.12,
4.496,-9.81,-6.90,1.02,1.40,1.95,5.12,
4.497,-9.81,-6.90,1.02,1.31,1.90,5.16,
4.497,-9.81,-6.90,1.02,1.23,1.85,5.20,
4.497,-9.65,-7.47,1.10,1.23,1.85,5.20,
4.497,-9.65,-7.47,1.10,1.14,1.79,5.23,
4.498,-9.65,-7.47,1.10,1.04,1.73,5.26,
4.498,-9.65,-7.47,1.10,0.95,1.66,5.29,
4.499,-9.37,-7.93,1.23,0.95,1.66,5.29,
4.501,-9.37,-7.93,1.23,0.85,1.59,5.31,
4.502,-9.37,-7.93,1.23,0.75,1.51,5.33,
4.502,-9.00,-8.27,1.39,0.75,1.51,5.33,
4.504,-9.00,-8.27,1.39,0.65,1.42,5.34,
4.509,-9.00,-8.27,1.39,0.54,1.33,5.35,
4.509,-8.47,-8.47,1.58,0.54,1.33,5.35,
4.511,-8.47,-8.47,1.58,0.44,1.24,5.36,
4.514,-7.88,-8.57,1.75,0.44,1.24,5.36,
4.515,-7.88,-8.57,1.75,0.34,1.14,5.37,
4.515,-7.88,-8.57,1.75,0.23,1.05,5.37,
4.517,-7.88,-8.57,1.75,0.13,0.95,5.37,
4.519,-7.88,-8.57,1.75,0.03,0.85,5.37,
4.521,-7.25,-8.60,1.92,0.03,0.85,5.37,
4.522,-6.65,-8.56,2.04,0.03,0.85,5.37,
4.522,-6.65,-8.56,2.04,-0.07,0.76,5.36,
4.535,-6.65,-8.56,2.04,-0.16,0.66,5.36,
4.535,-6.09,-8.53,2.20,-0.16,0.66,5.36,
4.535,-6.09,-8.53,2.20,-0.25,0.57,5.36,
4.536,-6.09,-8.53,2.20,-0.34,0.48,5.35,
4.536,-5.55,-8.51,2.40,-0.34,0.48,5.35,
4.536,-5.55,-8.51,2.40,-0.42,0.40,5.35,
4.536,-5.55,-8.51,2.40,-0.50,0.31,5.34,
4.537,-5.55,-8.51,2.40,-0.57,0.22,5.34,
4.537,-5.05,-8.51,2.55,-0.57,0.22,5.34,
4.538,-5.05,-8.51,2.55,-0.64,0.14,5.34,
4.573,-4.61,-8.55,2.71,-0.64,0.14,5.34,
4.574,-4.61,-8.55,2.71,-0.70,0.05,5.34,
4.581,-4.61,-8.55,2.71,-0.76,-0.03,5.34,
4.581,-4.61,-8.55,2.71,-0.81,-0.12,5.34,
4.581,-4.19,-8.65,2.83,-0.81,-0.12,5.34,
4.581,-4.19,-8.65,2.83,-0.85,-0.20,5.35,
4.581,-4.19,-8.65,2.83,-0.89,-0.28,5.35,
4.581,-3.80,-8.80,2.92,-0.89,-0.28,5.35,
4.581,-3.80,-8.80,2.92,-0.92,-0.37,5.35,
4.582,-3.80,-8.80,2.92,-0.95,-0.45,5.35,
4.582,-3.38,-8.99,2.98,-0.95,-0.45,5.35,
4.582,-3.38,-8.99,2.98,-0.96,-0.53,5.35,
4.582,-3.38,-8.99,2.98,-0.97,-0.61,5.35,
4.582,-2.95,-9.18,3.00,-0.97,-0.61,5.35,
4.582,-2.95,-9.18,3.00,-0.98,-0.69,5.35,
4.583,-2.95,-9.18,3.00,-0.97,-0.78,5.35,
4.583,-2.46,-9.35,2.96,-0.97,-0.78,5.35,
4.583,-2.46,-9.35,2.96,-0.96,-0.85,5.35,
4.583,-2.46,-9.35,2.96,-0.95,-0.93,5.34,
4.583,-1.97,-9.48,2.89,-0.95,-0.93,5.34,
4.583,-1.97,-9.48,2.89,-0.93,-0.99,5.33,
4.583,-1.97,-9.48,2.89,-0.91,-1.06,5.32,
4.584,-1.43,-9.61,2.70,-0.91,-1.06,5.32,
4.584,-1.43,-9.61,2.70,-0.88,-1.12,5.30,
4.584,-1.43,-9.61,2.70,-0.85,-1.17,5.28,
4.584,-0.90,-9.71,2.47,-0.85,-1.17,5.28,
4.584,-0.90,-9.71,2.47,-0.82,-1.21,5.26,
4.585,-0.90,-9.71,2.47,-0.79,-1.24,5.24,
4.585,-0.38,-9.82,2.19,-0.79,-1.24,5.24,
4.588,-0.38,-9.82,2.19,-0.75,-1.27,5.21,
4.593,0.10,-9.93,1.94,-0.75,-1.27,5.21,
4.593,0.10,-9.93,1.94,-0.72,-1.29,5.18,
4.593,0.10,-9.93,1.94,-0.69,-1.30,5.15,
4.596,0.10,-9.93,1.94,-0.65,-1.31,5.12,
4.596,0.52,-10.00,1.69,-0.65,-1.31,5.12,
4.598,0.52,-10.00,1.69,-0.62,-1.31,5.08,
4.6,0.90,-10.11,1.47,-0.62,-1.31,5.08,
4.601,0.90,-10.11,1.47,-0.59,-1.30,5.05,
4.603,0.90,-10.11,1.47,-0.56,-1.29,5.01,
4.605,0.90,-10.11,1.47,-0.53,-1.27,4.97,
4.605,1.24,-10.24,1.35,-0.53,-1.27,4.97,
4.608,1.24,-10.24,1.35,-0.50,-1.25,4.92,
4.61,1.24,-10.24,1.35,-0.47,-1.23,4.88,
4.613,1.24,-10.24,1.35,-0.44,-1.20,4.84,
4.614,1.55,-10.38,1.28,-0.44,-1.20,4.84,
4.615,1.55,-10.38,1.28,-0.40,-1.18,4.79,
4.616,1.89,-10.51,1.32,-0.40,-1.18,4.79,
4.618,1.89,-10.51,1.32,-0.36,-1.15,4.75,
4.62,2.18,-10.59,1.37,-0.36,-1.15,4.75,
4.62,2.18,-10.59,1.37,-0.32,-1.13,4.70,
4.623,2.18,-10.59,1.37,-0.27,-1.10,4.66,
4.63,2.18,-10.59,1.37,-0.22,-1.07,4.61,
4.63,2.45,-10.62,1.48,-0.22,-1.07,4.61,
4.631,2.45,-10.62,1.48,-0.16,-1.03,4.56,
4.631,2.73,-10.66,1.56,-0.16,-1.03,4.56,
4.631,2.73,-10.66,1.56,-0.10,-1.00,4.51,
4.633,2.73,-10.66,1.56,-0.04,-0.97,4.46,
4.636,2.73,-10.66,1.56,0.03,-0.94,4.41,
4.637,2.96,-10.68,1.64,0.03,-0.94,4.41,
4.64,2.96,-10.68,1.64,0.10,-0.92,4.36,
4.658,2.96,-10.68,1.64,0.17,-0.89,4.32,
4.659,3.19,-10.69,1.67,0.17,-0.89,4.32,
4.66,3.19,-10.69,1.67,0.24,-0.87,4.27,
4.66,3.19,-10.69,1.67,0.31,-0.84,4.22,
4.66,3.36,-10.71,1.65,0.31,-0.84,4.22,
4.661,3.36,-10.71,1.65,0.39,-0.82,4.18,
4.683,3.54,-10.74,1.59,0.39,-0.82,4.18,
4.683,3.54,-10.74,1.59,0.46,-0.80,4.13,
4.684,3.54,-10.74,1.59,0.53,-0.77,4.09,
4.684,3.54,-10.74,1.59,0.60,-0.75,4.05,
4.684,3.72,-10.75,1.51,0.60,-0.75,4.05,
4.684,3.72,-10.75,1.51,0.67,-0.73,4.02,
4.685,3.72,-10.75,1.51,0.74,-0.70,3.98,
4.685,3.90,-10.77,1.37,0.74,-0.70,3.98,
4.685,3.90,-10.77,1.37,0.80,-0.68,3.94,
4.685,3.90,-10.77,1.37,0.86,-0.66,3.91,
4.686,4.08,-10.79,1.24,0.86,-0.66,3.91,
4.686,4.08,-10.79,1.24,0.92,-0.63,3.87,
4.686,4.08,-10.79,1.24,0.97,-0.61,3.84,
4.686,4.25,-10.79,1.08,0.97,-0.61,3.84,
4.687,4.25,-10.79,1.08,1.02,-0.59,3.81,
4.687,4.44,-10.83,0.91,1.02,-0.59,3.81,
4.687,4.44,-10.83,0.91,1.06,-0.56,3.78,
4.688,4.44,-10.83,0.91,1.10,-0.54,3.74,
4.688,4.64,-10.86,0.75,1.10,-0.54,3.74,
4.688,4.64,-10.86,0.75,1.14,-0.52,3.71,
4.688,4.64,-10.86,0.75,1.17,-0.50,3.67,
4.689,4.64,-10.86,0.75,1.20,-0.47,3.64,
4.689,4.80,-10.94,0.56,1.20,-0.47,3.64,
4.689,4.80,-10.94,0.56,1.23,-0.44,3.60,
4.689,4.80,-10.94,0.56,1.24,-0.41,3.56,
4.69,4.98,-11.02,0.39,1.24,-0.41,3.56,
4.695,4.98,-11.02,0.39,1.26,-0.39,3.52,
4.699,5.10,-11.12,0.23,1.26,-0.39,3.52,
4.699,5.10,-11.12,0.23,1.27,-0.36,3.48,
4.7,5.10,-11.12,0.23,1.28,-0.33,3.43,
4.7,5.10,-11.12,0.23,1.28,-0.31,3.38,
4.7,5.26,-11.25,0.11,1.28,-0.31,3.38,
4.702,5.26,-11.25,0.11,1.28,-0.28,3.32,
4.704,5.26,-11.25,0.11,1.28,-0.25,3.27,
4.705,5.40,-11.41,-0.02,1.28,-0.25,3.27,
4.709,5.40,-11.41,-0.02,1.27,-0.23,3.21,
4.709,5.40,-11.41,-0.02,1.26,-0.20,3.15,
4.71,5.53,-11.53,-0.13,1.26,-0.20,3.15,
4.712,5.53,-11.53,-0.13,1.24,-0.18,3.08,
4.715,5.53,-11.53,-0.13,1.23,-0.15,3.01,
4.715,5.62,-11.68,-0.21,1.23,-0.15,3.01,
4.717,5.62,-11.68,-0.21,1.21,-0.12,2.94,
4.719,5.62,-11.68,-0.21,1.19,-0.10,2.87,
4.719,5.73,-11.78,-0.25,1.19,-0.10,2.87,
4.722,5.73,-11.78,-0.25,1.17,-0.07,2.79,
4.734,5.84,-11.90,-0.26,1.17,-0.07,2.79,
4.735,5.84,-11.90,-0.26,1.14,-0.05,2.71,
4.735,5.84,-11.90,-0.26,1.12,-0.03,2.63,
4.735,5.84,-11.90,-0.26,1.09,-0.01,2.54,
4.735,5.97,-11.95,-0.25,1.09,-0.01,2.54,
4.735,5.97,-11.95,-0.25,1.06,0.01,2.45,
4.736,5.97,-11.95,-0.25,1.04,0.03,2.36,
4.736,6.08,-11.98,-0.21,1.04,0.03,2.36,
4.742,6.08,-11.98,-0.21,1.01,0.05,2.26,
4.742,6.08,-11.98,-0.21,0.98,0.06,2.16,
4.742,6.19,-11.99,-0.16,0.98,0.06,2.16,
4.743,6.19,-11.99,-0.16,0.96,0.08,2.06,
4.744,6.19,-11.99,-0.16,0.93,0.09,1.96,
4.747,6.28,-11.95,-0.07,0.93,0.09,1.96,
4.747,6.28,-11.95,-0.07,0.91,0.10,1.86,
4.75,6.28,-11.95,-0.07,0.88,0.10,1.75,
4.75,6.31,-11.90,0.01,0.88,0.10,1.75,
4.752,6.31,-11.90,0.01,0.86,0.12,1.65,
4.754,6.31,-11.90,0.01,0.84,0.12,1.55,
4.754,6.29,-11.87,0.07,0.84,0.12,1.55,
4.756,6.29,-11.87,0.07,0.81,0.13,1.45,
4.762,6.25,-11.85,0.11,0.81,0.13,1.45,
4.763,6.25,-11.85,0.11,0.79,0.14,1.35,
4.763,6.25,-11.85,0.11,0.77,0.15,1.24,
4.764,6.25,-11.85,0.11,0.75,0.15,1.14,
4.764,6.21,-11.83,0.17,0.75,0.15,1.14,
4.766,6.21,-11.83,0.17,0.73,0.16,1.04,
4.769,6.21,-11.83,0.17,0.71,0.16,0.95,
4.769,6.17,-11.79,0.22,0.71,0.16,0.95,
4.772,6.17,-11.79,0.22,0.69,0.16,0.85,
4.775,6.12,-11.76,0.29,0.69,0.16,0.85,
4.775,6.12,-11.76,0.29,0.67,0.16,0.75,
4.777,6.12,-11.76,0.29,0.65,0.16,0.66,
4.779,6.06,-11.70,0.34,0.65,0.16,0.66,
4.779,6.06,-11.70,0.34,0.63,0.17,0.56,
4.781,6.06,-11.70,0.34,0.61,0.17,0.47,
4.784,5.97,-11.64,0.40,0.61,0.17,0.47,
4.784,5.97,-11.64,0.40,0.60,0.17,0.38,
4.786,5.97,-11.64,0.40,0.58,0.17,0.29,
4.789,5.97,-11.64,0.40,0.57,0.17,0.19,
4.79,5.88,-11.66,0.46,0.57,0.17,0.19,
4.792,5.88,-11.66,0.46,0.57,0.17,0.10,
4.795,5.77,-11.68,0.54,0.57,0.17,0.10,
4.795,5.77,-11.68,0.54,0.56,0.17,0.01,
4.796,5.77,-11.68,0.54,0.56,0.17,-0.08,
4.799,5.77,-11.68,0.54,0.56,0.17,-0.17,
4.799,5.69,-11.70,0.61,0.56,0.17,-0.17,
4.801,5.69,-11.70,0.61,0.56,0.16,-0.26,
4.804,5.69,-11.70,0.61,0.56,0.16,-0.36,
4.804,5.59,-11.72,0.65,0.56,0.16,-0.36,
4.806,5.59,-11.72,0.65,0.56,0.16,-0.45,
4.809,5.52,-11.72,0.68,0.56,0.16,-0.45,
4.81,5.52,-11.72,0.68,0.57,0.15,-0.54,
4.812,5.52,-11.72,0.68,0.57,0.15,-0.63,
4.814,5.52,-11.72,0.68,0.58,0.15,-0.72,
4.832,5.42,-11.71,0.68,0.58,0.15,-0.72,
4.832,5.42,-11.71,0.68,0.59,0.14,-0.81,
4.832,5.42,-11.71,0.68,0.60,0.14,-0.90,
4.832,5.32,-11.71,0.66,0.60,0.14,-0.90,
4.832,5.32,-11.71,0.66,0.61,0.14,-0.99,
4.833,5.32,-11.71,0.66,0.62,0.14,-1.09,
4.833,5.21,-11.76,0.60,0.62,0.14,-1.09,
4.833,5.21,-11.76,0.60,0.63,0.15,-1.18,
4.833,5.21,-11.76,0.60,0.64,0.15,-1.27,
4.833,5.11,-11.77,0.52,0.64,0.15,-1.27,
4.833,5.11,-11.77,0.52,0.65,0.16,-1.36,
4.84,4.99,-11.81,0.42,0.65,0.16,-1.36,
4.84,4.99,-11.81,0.42,0.66,0.17,-1.45,
4.841,4.99,-11.81,0.42,0.67,0.18,-1.55,
4.841,4.85,-11.86,0.35,0.67,0.18,-1.55,
4.844,4.68,-11.97,0.25,0.67,0.18,-1.55,
4.845,4.68,-11.97,0.25,0.67,0.19,-1.64,
4.846,4.68,-11.97,0.25,0.68,0.20,-1.73,
4.846,4.68,-11.97,0.25,0.68,0.22,-1.83,
4.849,4.53,-12.06,0.17,0.68,0.22,-1.83,
4.851,4.53,-12.06,0.17,0.68,0.23,-1.93,
4.851,4.53,-12.06,0.17,0.69,0.25,-2.03,
4.851,4.53,-12.06,0.17,0.69,0.27,-2.13,
4.854,4.35,-12.17,0.13,0.69,0.27,-2.13,
4.854,4.35,-12.17,0.13,0.69,0.28,-2.23,
4.856,4.35,-12.17,0.13,0.69,0.30,-2.33,
4.873,4.35,-12.17,0.13,0.69,0.33,-2.44,
4.874,4.17,-12.28,0.11,0.69,0.33,-2.44,
4.875,4.17,-12.28,0.11,0.69,0.34,-2.55,
4.876,4.17,-12.28,0.11,0.69,0.36,-2.65,
4.876,3.92,-12.40,0.14,0.69,0.36,-2.65,
4.876,3.92,-12.40,0.14,0.70,0.38,-2.76,
4.877,3.64,-12.56,0.11,0.70,0.38,-2.76,
4.877,3.64,-12.56,0.11,0.70,0.40,-2.88,
4.878,3.64,-12.56,0.11,0.70,0.42,-2.99,
4.878,3.64,-12.56,0.11,0.70,0.45,-3.10,
4.879,3.27,-12.69,0.10,0.70,0.45,-3.10,
4.879,3.27,-12.69,0.10,0.70,0.47,-3.21,
4.879,2.90,-12.76,0.08,0.70,0.47,-3.21,
4.88,2.90,-12.76,0.08,0.70,0.49,-3.32,
4.881,2.90,-12.76,0.08,0.70,0.51,-3.44,
