
time,ax,ay,az,wx,wy,wz,
0.003,-0.04,-0.18,0.34,0.03,-0.01,-0.00,
0.003,-0.04,-0.18,0.34,0.03,-0.01,-0.00,
0.003,-0.25,-0.12,0.38,0.03,-0.01,-0.00,
0.003,-0.25,-0.12,0.38,0.04,-0.02,0.00,
0.004,-0.25,-0.12,0.38,0.04,-0.03,0.01,
0.004,-0.35,-0.08,0.33,0.04,-0.03,0.01,
0.006,-0.35,-0.08,0.33,0.05,-0.04,0.02,
0.008,-0.35,-0.08,0.33,0.05,-0.05,0.02,
0.009,-0.34,-0.08,0.20,0.05,-0.05,0.02,
0.011,-0.34,-0.08,0.20,0.05,-0.06,0.03,
0.013,-0.34,-0.08,0.20,0.05,-0.06,0.03,
0.014,-0.24,-0.08,0.04,0.05,-0.06,0.03,
0.016,-0.24,-0.08,0.04,0.05,-0.06,0.04,
0.019,-0.24,-0.08,0.04,0.05,-0.07,0.04,
0.019,-0.14,-0.10,-0.05,0.05,-0.07,0.04,
0.02,-0.14,-0.10,-0.05,0.05,-0.07,0.05,
0.024,-0.14,-0.10,-0.05,0.05,-0.07,0.05,
0.024,-0.09,-0.11,-0.13,0.05,-0.07,0.05,
0.026,-0.09,-0.11,-0.13,0.05,-0.07,0.05,
0.029,-0.09,-0.11,-0.13,0.05,-0.07,0.05,
0.029,-0.04,-0.13,-0.14,0.05,-0.07,0.05,
0.031,-0.04,-0.13,-0.14,0.04,-0.07,0.05,
0.033,-0.04,-0.13,-0.14,0.04,-0.07,0.05,
0.033,-0.02,-0.11,-0.10,0.04,-0.07,0.05,
0.037,-0.02,-0.11,-0.10,0.04,-0.07,0.05,
0.038,-0.02,-0.11,-0.10,0.04,-0.08,0.06,
0.038,0.07,-0.11,-0.09,0.04,-0.08,0.06,
0.04,0.07,-0.11,-0.09,0.03,-0.08,0.06,
0.044,0.07,-0.11,-0.09,0.03,-0.08,0.05,
0.044,0.20,-0.08,-0.13,0.03,-0.08,0.05,
0.046,0.20,-0.08,-0.13,0.03,-0.08,0.05,
0.049,0.27,-0.03,-0.15,0.03,-0.08,0.05,
0.049,0.27,-0.03,-0.15,0.03,-0.08,0.05,
0.05,0.27,-0.03,-0.15,0.02,-0.08,0.05,
0.053,0.27,-0.03,-0.15,0.02,-0.07,0.04,
0.053,0.30,-0.02,-0.16,0.02,-0.07,0.04,
0.055,0.30,-0.02,-0.16,0.02,-0.06,0.04,
0.058,0.30,-0.02,-0.16,0.02,-0.05,0.03,
0.058,0.32,-0.05,-0.18,0.02,-0.05,0.03,
0.06,0.32,-0.05,-0.18,0.02,-0.04,0.03,
0.065,0.32,-0.05,-0.18,0.02,-0.03,0.03,
0.066,0.27,-0.08,-0.19,0.02,-0.03,0.03,
0.066,0.27,-0.08,-0.19,0.02,-0.01,0.03,
0.068,0.27,-0.08,-0.19,0.01,-0.01,0.02,
0.068,0.29,-0.06,-0.09,0.01,-0.01,0.02,
0.071,0.29,-0.06,-0.09,0.01,0.01,0.02,
0.073,0.29,-0.06,-0.09,0.01,0.01,0.01,
0.073,0.35,-0.06,-0.00,0.01,0.01,0.01,
0.075,0.35,-0.06,-0.00,0.01,0.01,0.01,
0.078,0.37,-0.11,0.09,0.01,0.01,0.01,
0.078,0.37,-0.11,0.09,0.01,0.02,0.00,
0.08,0.37,-0.11,0.09,0.02,0.02,0.00,
0.083,0.37,-0.11,0.09,0.02,0.02,-0.00,
0.083,0.35,-0.15,0.09,0.02,0.02,-0.00,
0.085,0.35,-0.15,0.09,0.02,0.02,-0.01,
0.088,0.35,-0.15,0.09,0.02,0.03,-0.01,
0.088,0.24,-0.13,0.12,0.02,0.03,-0.01,
0.091,0.24,-0.13,0.12,0.02,0.03,-0.01,
0.094,0.14,-0.11,0.16,0.02,0.03,-0.01,
0.094,0.14,-0.11,0.16,0.02,0.02,-0.02,
0.097,0.14,-0.11,0.16,0.02,0.02,-0.01,
0.098,0.08,-0.09,0.19,0.02,0.02,-0.01,
0.098,0.08,-0.09,0.19,0.03,0.01,-0.01,
0.1,0.08,-0.09,0.19,0.03,0.01,-0.02,
0.103,0.08,-0.09,0.19,0.03,0.00,-0.02,
0.103,0.06,-0.10,0.17,0.03,0.00,-0.02,
0.105,0.06,-0.10,0.17,0.03,-0.01,-0.02,
0.107,0.06,-0.10,0.17,0.03,-0.01,-0.02,
0.108,0.11,-0.12,0.10,0.03,-0.01,-0.02,
0.11,0.11,-0.12,0.10,0.03,-0.02,-0.02,
0.113,0.14,-0.06,0.09,0.03,-0.02,-0.02,
0.113,0.14,-0.06,0.09,0.03,-0.02,-0.02,
0.115,0.14,-0.06,0.09,0.04,-0.02,-0.02,
0.117,0.14,-0.06,0.09,0.04,-0.02,-0.02,
0.118,0.20,-0.02,0.02,0.04,-0.02,-0.02,
0.12,0.20,-0.02,0.02,0.04,-0.02,-0.03,
0.123,0.20,-0.02,0.02,0.04,-0.02,-0.03,
0.124,0.33,-0.00,-0.04,0.04,-0.02,-0.03,
0.125,0.33,-0.00,-0.04,0.04,-0.02,-0.03,
0.127,0.33,-0.00,-0.04,0.03,-0.01,-0.04,
0.128,0.42,-0.06,-0.09,0.03,-0.01,-0.04,
0.13,0.42,-0.06,-0.09,0.03,-0.00,-0.05,
0.132,0.42,-0.06,-0.09,0.03,0.01,-0.05,
0.133,0.40,-0.15,-0.13,0.03,0.01,-0.05,
0.135,0.40,-0.15,-0.13,0.03,0.01,-0.06,
0.137,0.40,-0.15,-0.13,0.03,0.02,-0.06,
0.138,0.35,-0.17,-0.09,0.03,0.02,-0.06,
0.139,0.35,-0.17,-0.09,0.03,0.02,-0.07,
0.143,0.35,-0.17,-0.09,0.03,0.03,-0.08,
0.143,0.36,-0.18,-0.06,0.03,0.03,-0.08,
0.145,0.36,-0.18,-0.06,0.03,0.03,-0.08,
0.147,0.36,-0.18,-0.06,0.02,0.03,-0.08,
0.148,0.40,-0.09,-0.03,0.02,0.03,-0.08,
0.151,0.40,-0.09,-0.03,0.03,0.04,-0.09,
0.152,0.40,-0.09,-0.03,0.03,0.04,-0.09,
0.153,0.42,-0.03,-0.06,0.03,0.04,-0.09,
0.155,0.42,-0.03,-0.06,0.03,0.05,-0.10,
0.158,0.25,-0.01,-0.07,0.03,0.05,-0.10,
0.158,0.25,-0.01,-0.07,0.03,0.05,-0.10,
0.161,0.25,-0.01,-0.07,0.02,0.05,-0.10,
0.171,0.11,-0.02,-0.03,0.02,0.05,-0.10,
0.172,0.11,-0.02,-0.03,0.02,0.05,-0.10,
0.172,0.11,-0.02,-0.03,0.02,0.06,-0.10,
0.172,0.11,-0.02,-0.03,0.02,0.05,-0.10,
0.173,0.09,-0.03,0.14,0.02,0.05,-0.10,
0.173,0.09,-0.03,0.14,0.02,0.05,-0.10,
0.173,-0.05,-0.00,0.25,0.02,0.05,-0.10,
0.173,-0.05,-0.00,0.25,0.03,0.04,-0.10,
0.174,-0.05,-0.00,0.25,0.03,0.03,-0.09,
0.177,-0.14,-0.06,0.34,0.03,0.03,-0.09,
0.177,-0.14,-0.06,0.34,0.03,0.02,-0.09,
0.18,-0.14,-0.06,0.34,0.04,0.01,-0.08,
0.183,-0.22,-0.09,0.34,0.04,0.01,-0.08,
0.183,-0.22,-0.09,0.34,0.04,0.00,-0.08,
0.185,-0.22,-0.09,0.34,0.05,-0.01,-0.08,
0.187,-0.22,-0.09,0.34,0.05,-0.02,-0.07,
0.187,-0.28,-0.08,0.29,0.05,-0.02,-0.07,
0.205,-0.28,-0.08,0.29,0.05,-0.02,-0.07,
0.206,-0.41,0.01,0.21,0.05,-0.02,-0.07,
0.206,-0.41,0.01,0.21,0.06,-0.03,-0.06,
0.206,-0.41,0.01,0.21,0.06,-0.04,-0.05,
0.206,-0.41,0.01,0.21,0.06,-0.05,-0.04,
0.207,-0.41,0.06,0.25,0.06,-0.05,-0.04,
0.207,-0.41,0.06,0.25,0.07,-0.05,-0.04,
0.207,-0.41,0.06,0.25,0.07,-0.05,-0.03,
0.207,-0.33,0.04,0.15,0.07,-0.05,-0.03,
0.208,-0.33,0.04,0.15,0.07,-0.05,-0.02,
0.208,-0.33,0.04,0.15,0.07,-0.04,-0.02,
0.208,-0.08,-0.06,-0.03,0.07,-0.04,-0.02,
0.21,-0.08,-0.06,-0.03,0.07,-0.04,-0.02,
0.212,-0.08,-0.06,-0.03,0.07,-0.03,-0.02,
0.214,0.18,-0.15,-0.11,0.07,-0.03,-0.02,
0.215,0.18,-0.15,-0.11,0.07,-0.03,-0.02,
0.216,0.18,-0.15,-0.11,0.07,-0.02,-0.03,
0.217,0.33,-0.16,-0.14,0.07,-0.02,-0.03,
0.219,0.33,-0.16,-0.14,0.06,-0.02,-0.03,
0.221,0.33,-0.16,-0.14,0.06,-0.01,-0.03,
0.222,0.40,-0.15,-0.14,0.06,-0.01,-0.03,
0.224,0.40,-0.15,-0.14,0.06,0.00,-0.04,
0.226,0.40,-0.15,-0.14,0.06,0.02,-0.04,
0.227,0.31,-0.20,-0.08,0.06,0.02,-0.04,
0.23,0.31,-0.20,-0.08,0.05,0.03,-0.05,
0.232,0.31,-0.20,-0.13,0.05,0.03,-0.05,
0.232,0.31,-0.20,-0.13,0.05,0.03,-0.05,
0.234,0.31,-0.20,-0.13,0.05,0.03,-0.05,
0.236,0.31,-0.20,-0.13,0.04,0.03,-0.05,
0.237,0.04,0.07,-0.12,0.04,0.03,-0.05,
0.239,0.04,0.07,-0.12,0.04,0.03,-0.05,
0.242,0.04,0.07,-0.12,0.05,0.03,-0.04,
0.242,-0.23,0.20,-0.02,0.05,0.03,-0.04,
0.244,-0.23,0.20,-0.02,0.05,0.03,-0.03,
0.247,-0.23,0.20,-0.02,0.05,0.02,-0.03,
0.247,-0.35,0.17,0.02,0.05,0.02,-0.03,
0.248,-0.35,0.17,0.02,0.04,0.01,-0.02,
0.252,-0.59,0.16,-0.08,0.04,0.01,-0.02,
0.253,-0.59,0.16,-0.08,0.04,-0.01,-0.01,
0.255,-0.59,0.16,-0.08,0.04,-0.03,0.01,
0.256,-0.59,0.16,-0.08,0.03,-0.04,0.02,
0.256,-0.53,-0.03,-0.23,0.03,-0.04,0.02,
0.259,-0.53,-0.03,-0.23,0.02,-0.06,0.02,
0.261,-0.53,-0.03,-0.23,0.02,-0.08,0.03,
0.261,-0.32,-0.23,-0.05,0.02,-0.08,0.03,
0.27,-0.32,-0.23,-0.05,0.01,-0.11,0.03,
0.27,-0.32,-0.23,-0.05,0.01,-0.13,0.03,
0.27,-0.26,-0.37,0.27,0.01,-0.13,0.03,
0.27,-0.26,-0.37,0.27,0.02,-0.14,0.04,
0.271,-0.26,-0.37,0.27,0.02,-0.14,0.05,
0.271,-0.31,-0.38,0.36,0.02,-0.14,0.05,
0.273,-0.31,-0.38,0.36,0.03,-0.14,0.06,
0.276,-0.31,-0.38,0.36,0.03,-0.14,0.06,
0.276,-0.24,-0.27,0.38,0.03,-0.14,0.06,
0.278,-0.24,-0.27,0.38,0.04,-0.14,0.07,
0.281,-0.24,-0.27,0.38,0.05,-0.14,0.06,
0.281,-0.09,-0.16,0.36,0.05,-0.14,0.06,
0.284,-0.09,-0.16,0.36,0.05,-0.14,0.07,
0.286,-0.09,-0.16,0.36,0.05,-0.14,0.07,
0.287,0.05,-0.08,0.16,0.05,-0.14,0.07,
0.288,0.05,-0.08,0.16,0.06,-0.15,0.07,
0.291,0.05,-0.08,0.16,0.05,-0.14,0.07,
0.291,0.13,-0.07,-0.09,0.05,-0.14,0.07,
0.293,0.13,-0.07,-0.09,0.05,-0.14,0.06,
0.296,0.13,-0.07,-0.09,0.04,-0.13,0.06,
0.297,0.27,-0.17,-0.27,0.04,-0.13,0.06,
0.298,0.27,-0.17,-0.27,0.04,-0.12,0.06,
0.301,0.27,-0.17,-0.27,0.03,-0.11,0.05,
0.301,0.36,-0.15,-0.19,0.03,-0.11,0.05,
0.303,0.36,-0.15,-0.19,0.03,-0.10,0.05,
0.306,0.36,-0.15,-0.19,0.04,-0.09,0.05,
0.306,0.37,0.04,-0.03,0.04,-0.09,0.05,
0.308,0.37,0.04,-0.03,0.04,-0.08,0.05,
0.311,0.37,0.04,-0.03,0.04,-0.07,0.05,
0.311,0.31,0.18,-0.13,0.04,-0.07,0.05,
0.313,0.31,0.18,-0.13,0.04,-0.07,0.04,
0.316,0.31,0.18,-0.13,0.04,-0.07,0.04,
0.317,0.19,0.14,-0.20,0.04,-0.07,0.04,
0.318,0.19,0.14,-0.20,0.03,-0.07,0.04,
0.321,0.19,0.14,-0.20,0.03,-0.07,0.04,
0.321,0.08,-0.02,-0.30,0.03,-0.07,0.04,
0.325,0.08,-0.02,-0.30,0.03,-0.07,0.04,
0.326,0.08,-0.02,-0.30,0.02,-0.07,0.03,
0.326,0.06,-0.16,-0.29,0.02,-0.07,0.03,
0.328,0.06,-0.16,-0.29,0.02,-0.07,0.03,
0.331,0.06,-0.16,-0.29,0.01,-0.07,0.03,
0.331,0.09,-0.22,-0.13,0.01,-0.07,0.03,
0.333,0.09,-0.22,-0.13,0.01,-0.07,0.03,
0.337,0.10,-0.15,0.05,0.01,-0.07,0.03,
0.337,0.10,-0.15,0.05,0.01,-0.08,0.03,
0.338,0.10,-0.15,0.05,0.01,-0.09,0.03,
0.341,0.10,-0.15,0.05,0.01,-0.10,0.03,
0.341,0.13,-0.08,0.12,0.01,-0.10,0.03,
0.343,0.13,-0.08,0.12,0.01,-0.11,0.03,
0.347,0.13,-0.08,0.12,0.01,-0.11,0.02,
0.347,0.15,-0.08,0.06,0.01,-0.11,0.02,
0.348,0.15,-0.08,0.06,0.01,-0.12,0.02,
0.351,0.15,-0.08,0.06,0.01,-0.12,0.02,
0.351,0.26,-0.08,-0.03,0.01,-0.12,0.02,
0.354,0.26,-0.08,-0.03,0.01,-0.12,0.01,
0.371,0.26,-0.08,-0.03,0.01,-0.11,0.01,
0.371,0.42,-0.12,-0.06,0.01,-0.11,0.01,
0.371,0.42,-0.12,-0.06,0.01,-0.10,0.00,
0.372,0.42,-0.12,-0.06,0.00,-0.09,-0.00,
0.372,0.62,-0.18,-0.09,0.00,-0.09,-0.00,
0.372,0.62,-0.18,-0.09,0.00,-0.06,-0.01,
0.372,0.62,-0.18,-0.09,0.00,-0.04,-0.02,
0.372,0.69,-0.19,-0.05,0.00,-0.04,-0.02,
0.372,0.69,-0.19,-0.05,0.01,-0.02,-0.03,
0.373,0.69,-0.19,-0.05,0.01,0.00,-0.03,
0.373,0.62,-0.17,0.02,0.01,0.00,-0.03,
0.373,0.62,-0.17,0.02,0.01,0.02,-0.04,
0.375,0.62,-0.17,0.02,0.01,0.03,-0.04,
0.375,0.41,-0.12,0.07,0.01,0.03,-0.04,
0.377,0.41,-0.12,0.07,0.01,0.04,-0.05,
0.386,0.41,-0.12,0.07,0.01,0.04,-0.05,
0.386,0.09,-0.05,0.09,0.01,0.04,-0.05,
0.386,0.09,-0.05,0.09,0.02,0.04,-0.05,
0.386,0.09,-0.05,0.09,0.02,0.03,-0.05,
0.387,-0.21,0.02,0.09,0.02,0.03,-0.05,
0.387,-0.21,0.02,0.09,0.02,0.02,-0.04,
0.39,-0.21,0.02,0.09,0.02,0.01,-0.03,
0.39,-0.35,0.02,0.09,0.02,0.01,-0.03,
0.392,-0.35,0.02,0.09,0.02,-0.01,-0.03,
0.395,-0.35,-0.01,0.08,0.02,-0.01,-0.03,
0.396,-0.35,-0.01,0.08,0.02,-0.03,-0.02,
0.397,-0.35,-0.01,0.08,0.02,-0.04,-0.02,
0.4,-0.35,-0.01,0.08,0.02,-0.05,-0.01,
0.401,-0.27,-0.04,0.10,0.02,-0.05,-0.01,
0.403,-0.27,-0.04,0.10,0.02,-0.06,-0.01,
0.405,-0.27,-0.04,0.10,0.02,-0.07,-0.00,
0.405,-0.17,-0.04,0.11,0.02,-0.07,-0.00,
0.407,-0.17,-0.04,0.11,0.02,-0.08,0.00,
0.41,-0.17,-0.04,0.11,0.03,-0.09,0.00,
0.41,-0.10,-0.05,0.19,0.03,-0.09,0.00,
0.413,-0.10,-0.05,0.19,0.03,-0.10,0.01,
0.415,-0.10,-0.05,0.19,0.03,-0.10,0.01,
0.415,-0.07,-0.06,0.22,0.03,-0.10,0.01,
0.417,-0.07,-0.06,0.22,0.03,-0.11,0.01,
0.421,-0.07,-0.06,0.22,0.04,-0.12,0.01,
0.421,-0.00,-0.10,0.23,0.04,-0.12,0.01,
0.423,-0.00,-0.10,0.23,0.04,-0.13,0.01,
0.425,-0.00,-0.10,0.23,0.04,-0.14,0.02,
0.426,0.05,-0.13,0.15,0.04,-0.14,0.02,
0.427,0.05,-0.13,0.15,0.04,-0.15,0.01,
0.431,0.16,-0.14,0.06,0.04,-0.15,0.01,
0.431,0.16,-0.14,0.06,0.04,-0.15,0.01,
0.432,0.16,-0.14,0.06,0.04,-0.14,0.01,
0.435,0.16,-0.14,0.06,0.04,-0.13,0.01,
0.435,0.27,-0.19,0.03,0.04,-0.13,0.01,
0.437,0.27,-0.19,0.03,0.04,-0.11,0.01,
0.44,0.27,-0.19,0.03,0.04,-0.08,0.01,
0.44,0.30,-0.35,0.05,0.04,-0.08,0.01,
0.442,0.30,-0.35,0.05,0.04,-0.06,0.01,
0.445,0.30,-0.35,0.05,0.04,-0.04,0.01,
0.445,0.52,-0.27,-0.06,0.04,-0.04,0.01,
0.447,0.52,-0.27,-0.06,0.03,-0.02,-0.00,
0.45,0.61,-0.05,-0.28,0.03,-0.02,-0.00,
0.45,0.61,-0.05,-0.28,0.03,-0.01,-0.02,
0.452,0.61,-0.05,-0.28,0.02,0.01,-0.02,
0.455,0.34,0.02,-0.46,0.02,0.01,-0.02,
0.456,0.34,0.02,-0.46,0.02,0.03,-0.03,
0.457,0.34,0.02,-0.46,0.01,0.05,-0.03,
0.46,0.34,0.02,-0.46,0.01,0.07,-0.03,
0.46,0.22,0.01,-0.44,0.01,0.07,-0.03,
0.462,0.22,0.01,-0.44,0.00,0.09,-0.03,
0.466,0.22,0.01,-0.44,-0.00,0.10,-0.03,
0.467,0.09,0.07,-0.31,-0.00,0.10,-0.03,
0.467,0.09,0.07,-0.31,-0.01,0.11,-0.03,
0.47,-0.02,0.08,-0.18,-0.01,0.11,-0.03,
0.47,-0.02,0.08,-0.18,-0.00,0.11,-0.03,
0.472,-0.02,0.08,-0.18,-0.01,0.11,-0.03,
0.475,-0.11,0.04,-0.15,-0.01,0.11,-0.03,
0.475,-0.11,0.04,-0.15,-0.01,0.11,-0.03,
0.477,-0.11,0.04,-0.15,-0.01,0.11,-0.03,
0.483,-0.11,0.04,-0.15,-0.01,0.11,-0.02,
0.483,-0.15,-0.10,-0.13,-0.01,0.11,-0.02,
0.483,-0.15,-0.10,-0.13,-0.01,0.11,-0.02,
0.485,-0.21,-0.30,0.10,-0.01,0.11,-0.02,
0.485,-0.21,-0.30,0.10,-0.01,0.10,-0.02,
0.486,-0.21,-0.30,0.10,-0.01,0.09,-0.01,
0.489,-0.21,-0.30,0.10,-0.01,0.06,-0.01,
0.489,-0.03,-0.15,0.24,-0.01,0.06,-0.01,
0.491,-0.03,-0.15,0.24,-0.01,0.04,-0.01,
0.495,0.22,-0.02,0.14,-0.01,0.04,-0.01,
0.495,0.22,-0.02,0.14,-0.01,0.03,-0.01,
0.498,0.22,-0.02,0.14,-0.01,0.03,-0.02,
0.499,0.30,0.03,0.03,-0.01,0.03,-0.02,
0.499,0.30,0.03,0.03,-0.01,0.03,-0.02,
0.501,0.30,0.03,0.03,-0.00,0.03,-0.02,
0.505,0.37,-0.01,0.03,-0.00,0.03,-0.02,
0.505,0.37,-0.01,0.03,-0.00,0.03,-0.02,
0.506,0.37,-0.01,0.03,-0.00,0.03,-0.03,
0.509,0.37,-0.01,0.03,-0.00,0.04,-0.03,
0.509,0.30,-0.00,0.05,-0.00,0.04,-0.03,
0.511,0.30,-0.00,0.05,-0.00,0.03,-0.03,
0.515,0.30,-0.00,0.05,-0.00,0.03,-0.03,
0.516,0.25,-0.04,0.09,-0.00,0.03,-0.03,
0.516,0.25,-0.04,0.09,-0.00,0.03,-0.04,
0.52,0.25,-0.04,0.09,-0.00,0.03,-0.04,
0.531,0.09,-0.07,0.12,-0.00,0.03,-0.04,
0.531,0.09,-0.07,0.12,0.00,0.02,-0.04,
0.531,0.09,-0.07,0.12,0.00,0.02,-0.04,
0.531,-0.06,-0.09,0.04,0.00,0.02,-0.04,
0.532,-0.06,-0.09,0.04,-0.00,0.02,-0.04,
0.532,-0.06,-0.09,0.04,-0.00,0.01,-0.03,
0.532,-0.18,-0.07,-0.03,-0.00,0.01,-0.03,
0.532,-0.18,-0.07,-0.03,-0.01,0.01,-0.03,
0.535,-0.29,-0.06,0.12,-0.01,0.01,-0.03,
0.535,-0.29,-0.06,0.12,-0.00,-0.01,-0.03,
0.536,-0.29,-0.06,0.12,0.00,-0.02,-0.02,
0.539,-0.29,-0.06,0.12,0.00,-0.04,-0.01,
0.539,-0.31,0.02,0.14,0.00,-0.04,-0.01,
0.541,-0.31,0.02,0.14,0.00,-0.05,-0.00,
0.544,-0.31,0.02,0.14,0.01,-0.05,-0.00,
0.544,-0.20,0.06,-0.07,0.01,-0.05,-0.00,
0.546,-0.20,0.06,-0.07,0.00,-0.05,-0.00,
0.549,-0.20,0.06,-0.07,-0.00,-0.05,0.00,
0.549,-0.00,0.02,-0.32,-0.00,-0.05,0.00,
0.551,-0.00,0.02,-0.32,-0.01,-0.04,0.00,
0.556,-0.00,0.02,-0.32,-0.02,-0.03,0.00,
0.556,0.13,-0.04,-0.37,-0.02,-0.03,0.00,
0.557,0.13,-0.04,-0.37,-0.02,-0.02,0.00,
0.559,0.13,-0.04,-0.37,-0.03,-0.01,0.00,
0.56,0.19,-0.02,-0.08,-0.03,-0.01,0.00,
0.561,0.19,-0.02,-0.08,-0.02,-0.02,0.00,
0.566,0.02,-0.07,0.25,-0.02,-0.02,0.00,
0.566,0.02,-0.07,0.25,-0.01,-0.03,0.00,
0.567,0.02,-0.07,0.25,-0.01,-0.04,0.00,
0.575,0.02,-0.07,0.25,-0.01,-0.05,0.00,
0.576,-0.19,-0.16,0.36,-0.01,-0.05,0.00,
0.577,-0.19,-0.16,0.36,-0.00,-0.06,0.01,
0.578,-0.23,-0.19,0.21,-0.00,-0.06,0.01,
0.579,-0.23,-0.19,0.21,-0.00,-0.08,0.01,
0.58,-0.23,-0.19,0.21,-0.00,-0.08,0.01,
0.581,-0.23,-0.19,0.21,-0.01,-0.08,0.01,
0.581,0.06,-0.12,-0.19,-0.01,-0.08,0.01,
0.594,0.06,-0.12,-0.19,-0.01,-0.07,0.01,
0.595,0.06,-0.12,-0.19,-0.02,-0.05,0.01,
0.595,0.41,-0.09,-0.34,-0.02,-0.05,0.01,
0.595,0.41,-0.09,-0.34,-0.03,-0.04,0.01,
0.595,0.41,-0.09,-0.34,-0.03,-0.04,0.00,
0.596,0.63,-0.09,-0.25,-0.03,-0.04,0.00,
0.596,0.63,-0.09,-0.25,-0.03,-0.02,-0.01,
0.596,0.65,-0.05,-0.06,-0.03,-0.02,-0.01,
0.596,0.65,-0.05,-0.06,-0.03,-0.01,-0.02,
0.596,0.65,-0.05,-0.06,-0.03,0.00,-0.03,
0.602,0.65,-0.05,-0.06,-0.02,0.02,-0.04,
0.603,0.46,-0.04,0.12,-0.02,0.02,-0.04,
0.604,0.46,-0.04,0.12,-0.02,0.04,-0.04,
0.605,0.46,-0.04,0.12,-0.02,0.05,-0.04,
0.605,0.20,-0.10,0.13,-0.02,0.05,-0.04,
0.606,0.20,-0.10,0.13,-0.02,0.05,-0.04,
0.609,0.20,-0.10,0.13,-0.01,0.05,-0.04,
0.61,0.06,-0.14,0.12,-0.01,0.05,-0.04,
0.611,0.06,-0.14,0.12,-0.01,0.04,-0.04,
0.617,0.10,-0.17,0.03,-0.01,0.04,-0.04,
0.618,0.10,-0.17,0.03,-0.02,0.04,-0.04,
0.619,0.10,-0.17,0.03,-0.02,0.03,-0.05,
0.619,0.22,-0.12,0.15,-0.02,0.03,-0.05,
0.62,0.22,-0.12,0.15,-0.02,0.02,-0.05,
0.621,0.22,-0.12,0.15,-0.02,0.02,-0.05,
0.623,0.22,-0.12,0.15,-0.02,0.04,-0.05,
0.623,0.38,-0.03,-0.04,-0.02,0.04,-0.05,
0.625,0.38,-0.03,-0.04,-0.02,0.07,-0.06,
0.628,0.48,0.00,-0.06,-0.02,0.07,-0.06,
0.629,0.48,0.00,-0.06,-0.02,0.08,-0.06,
0.631,0.48,0.00,-0.06,-0.01,0.09,-0.06,
0.633,0.48,0.00,-0.06,-0.01,0.10,-0.07,
0.633,0.32,-0.08,0.21,-0.01,0.10,-0.07,
0.636,0.32,-0.08,0.21,-0.00,0.10,-0.07,
0.638,0.32,-0.08,0.21,0.00,0.10,-0.07,
0.638,0.03,-0.15,0.40,0.00,0.10,-0.07,
0.64,0.03,-0.15,0.40,0.01,0.09,-0.07,
0.643,0.03,-0.15,0.40,0.01,0.09,-0.07,
0.643,-0.16,-0.11,0.29,0.01,0.09,-0.07,
0.645,-0.16,-0.11,0.29,0.02,0.07,-0.07,
0.649,-0.48,-0.04,0.33,0.02,0.07,-0.07,
0.65,-0.48,-0.04,0.33,0.02,0.04,-0.06,
0.651,-0.48,-0.04,0.33,0.02,0.02,-0.04,
0.653,-0.48,-0.04,0.33,0.02,0.01,-0.04,
0.654,-0.35,-0.04,0.05,0.02,0.01,-0.04,
0.656,-0.35,-0.04,0.05,0.02,0.00,-0.03,
0.659,-0.35,-0.04,0.05,0.01,0.00,-0.03,
0.659,0.03,-0.12,0.02,0.01,0.00,-0.03,
0.66,0.03,-0.12,0.02,0.02,0.01,-0.04,
0.663,0.03,-0.12,0.02,0.01,0.03,-0.04,
0.663,0.59,-0.06,-0.18,0.01,0.03,-0.04,
0.67,0.59,-0.06,-0.18,0.02,0.05,-0.05,
0.671,0.59,-0.06,-0.18,0.02,0.08,-0.06,
0.671,0.80,-0.06,-0.25,0.02,0.08,-0.06,
0.671,0.80,-0.06,-0.25,0.01,0.10,-0.07,
0.674,0.80,-0.06,-0.25,0.01,0.12,-0.09,
0.674,0.77,-0.17,-0.28,0.01,0.12,-0.09,
0.676,0.77,-0.17,-0.28,0.00,0.14,-0.10,
0.678,0.67,-0.07,-0.21,0.00,0.14,-0.10,
0.679,0.67,-0.07,-0.21,0.00,0.16,-0.11,
0.714,0.67,-0.07,-0.21,-0.00,0.18,-0.11,
0.715,0.50,-0.02,0.16,-0.00,0.18,-0.11,
0.72,0.50,-0.02,0.16,0.00,0.20,-0.11,
0.743,0.50,-0.02,0.16,0.01,0.20,-0.12,
0.744,0.50,-0.02,0.16,0.02,0.20,-0.12,
0.744,0.28,-0.05,0.26,0.02,0.20,-0.12,
0.745,0.28,-0.05,0.26,0.02,0.20,-0.12,
0.745,0.28,-0.05,0.26,0.02,0.20,-0.13,
0.745,0.12,-0.14,0.12,0.02,0.20,-0.13,
0.746,0.12,-0.14,0.12,0.02,0.20,-0.13,
0.746,0.21,-0.47,0.10,0.02,0.20,-0.13,
0.747,0.21,-0.47,0.10,0.02,0.20,-0.14,
0.748,0.21,-0.47,0.10,0.01,0.20,-0.15,
0.748,0.21,-0.47,0.10,0.01,0.20,-0.15,
0.749,0.29,-0.51,0.11,0.01,0.20,-0.15,
0.749,0.29,-0.51,0.11,0.02,0.21,-0.15,
0.75,0.29,-0.51,0.11,0.02,0.22,-0.15,
0.75,0.41,-0.31,0.31,0.02,0.22,-0.15,
0.75,0.41,-0.31,0.31,0.03,0.23,-0.15,
0.751,0.41,-0.31,0.31,0.04,0.23,-0.14,
0.751,0.30,0.13,0.68,0.04,0.23,-0.14,
0.751,0.30,0.13,0.68,0.06,0.24,-0.14,
0.752,0.30,0.13,0.68,0.07,0.27,-0.16,
0.752,0.73,0.11,0.61,0.07,0.27,-0.16,
0.753,0.73,0.11,0.61,0.09,0.31,-0.18,
0.754,0.73,0.11,0.61,0.10,0.35,-0.20,
0.755,0.96,-0.07,0.28,0.10,0.35,-0.20,
0.755,0.96,-0.07,0.28,0.10,0.39,-0.21,
0.755,0.96,-0.07,0.28,0.10,0.42,-0.23,
0.755,0.97,-0.23,0.04,0.10,0.42,-0.23,
0.756,0.97,-0.23,0.04,0.10,0.43,-0.24,
0.756,0.97,-0.23,0.04,0.10,0.43,-0.24,
0.756,0.74,-0.34,-0.14,0.10,0.43,-0.24,
0.756,0.74,-0.34,-0.14,0.09,0.44,-0.25,
0.757,0.74,-0.34,-0.14,0.09,0.44,-0.26,
0.757,0.73,-0.23,-0.13,0.09,0.44,-0.26,
0.757,0.73,-0.23,-0.13,0.09,0.43,-0.27,
0.757,0.73,-0.23,-0.13,0.09,0.42,-0.31,
0.758,1.17,0.08,0.05,0.09,0.42,-0.31,
0.758,1.17,0.08,0.05,0.09,0.39,-0.34,
0.758,0.95,0.14,0.13,0.09,0.39,-0.34,
0.758,0.95,0.14,0.13,0.09,0.35,-0.36,
0.758,0.95,0.14,0.13,0.09,0.30,-0.37,
0.759,0.95,0.14,0.13,0.09,0.26,-0.38,
0.759,0.41,0.02,0.11,0.09,0.26,-0.38,
0.759,0.41,0.02,0.11,0.08,0.23,-0.38,
0.759,0.41,0.02,0.11,0.08,0.21,-0.38,
0.76,-0.13,-0.04,-0.02,0.08,0.21,-0.38,
0.76,-0.13,-0.04,-0.02,0.08,0.20,-0.37,
0.765,-0.13,-0.04,-0.02,0.08,0.20,-0.36,
0.766,-0.69,-0.04,-0.02,0.08,0.20,-0.36,
0.766,-0.69,-0.04,-0.02,0.08,0.19,-0.35,
0.767,-0.69,-0.04,-0.02,0.08,0.18,-0.33,
0.767,-1.31,-0.00,0.03,0.08,0.18,-0.33,
0.769,-1.31,-0.00,0.03,0.08,0.16,-0.30,
0.772,-1.31,-0.00,0.03,0.08,0.13,-0.26,
0.772,-1.91,0.04,0.10,0.08,0.13,-0.26,
0.774,-1.91,0.04,0.10,0.08,0.11,-0.23,
0.777,-1.91,0.04,0.10,0.08,0.08,-0.18,
0.777,-2.39,0.06,0.13,0.08,0.08,-0.18,
0.779,-2.39,0.06,0.13,0.08,0.06,-0.13,
0.786,-2.39,0.06,0.13,0.08,0.04,-0.09,
0.787,-2.30,0.04,0.19,0.08,0.04,-0.09,
0.787,-2.30,0.04,0.19,0.08,0.01,-0.05,
0.787,-2.30,0.04,0.19,0.08,-0.04,-0.04,
0.791,-1.30,0.14,0.28,0.08,-0.04,-0.04,
0.792,-1.30,0.14,0.28,0.08,-0.10,-0.03,
0.792,-1.30,0.14,0.28,0.09,-0.15,-0.01,
0.792,-0.75,0.17,0.29,0.09,-0.15,-0.01,
0.796,-0.75,0.17,0.29,0.09,-0.19,-0.00,
0.813,-0.75,0.17,0.29,0.09,-0.22,0.01,
0.814,-0.47,0.17,0.20,0.09,-0.22,0.01,
0.814,-0.47,0.17,0.20,0.09,-0.25,0.02,
0.815,-0.47,0.17,0.20,0.09,-0.26,0.03,
0.815,-0.40,0.17,0.08,0.09,-0.26,0.03,
0.815,-0.40,0.17,0.08,0.10,-0.27,0.03,
0.816,-0.40,0.17,0.08,0.10,-0.27,0.04,
0.816,-0.34,0.15,0.10,0.10,-0.27,0.04,
0.816,-0.34,0.15,0.10,0.10,-0.25,0.05,
0.816,-0.34,0.15,0.10,0.11,-0.24,0.05,
0.817,-0.25,0.07,0.20,0.11,-0.24,0.05,
0.818,-0.10,-0.06,0.25,0.11,-0.24,0.05,
0.818,-0.10,-0.06,0.25,0.12,-0.22,0.05,
0.819,-0.10,-0.06,0.25,0.13,-0.21,0.06,
0.819,-0.10,-0.06,0.25,0.13,-0.20,0.06,
0.821,-0.10,-0.06,0.25,0.13,-0.19,0.06,
0.822,0.07,-0.23,0.22,0.13,-0.19,0.06,
0.824,0.07,-0.23,0.22,0.13,-0.19,0.07,
0.826,0.07,-0.23,0.22,0.14,-0.19,0.06,
0.827,0.25,-0.34,0.19,0.14,-0.19,0.06,
0.829,0.25,-0.34,0.19,0.14,-0.18,0.06,
0.837,0.40,-0.30,0.16,0.14,-0.18,0.06,
0.837,0.40,-0.30,0.16,0.14,-0.17,0.05,
0.838,0.40,-0.30,0.16,0.14,-0.17,0.05,
0.838,0.49,-0.23,0.09,0.14,-0.17,0.05,
0.838,0.49,-0.23,0.09,0.14,-0.16,0.04,
0.839,0.49,-0.23,0.09,0.14,-0.14,0.03,
0.841,0.49,-0.23,0.09,0.14,-0.14,0.02,
0.842,0.54,-0.14,-0.08,0.14,-0.14,0.02,
0.844,0.54,-0.14,-0.08,0.13,-0.14,0.01,
0.847,0.54,-0.14,-0.08,0.13,-0.13,0.00,
0.847,0.61,-0.09,-0.12,0.13,-0.13,0.00,
0.85,0.61,-0.09,-0.12,0.13,-0.09,-0.01,
0.875,0.61,-0.09,-0.12,0.14,-0.04,-0.01,
0.875,0.63,-0.09,0.05,0.14,-0.04,-0.01,
0.876,0.63,-0.09,0.05,0.15,0.02,-0.02,
0.876,0.63,-0.09,0.05,0.16,0.05,-0.02,
0.876,0.66,-0.14,0.17,0.16,0.05,-0.02,
0.876,0.66,-0.14,0.17,0.16,0.07,-0.03,
0.877,0.66,-0.14,0.17,0.16,0.09,-0.03,
0.877,0.55,-0.24,0.09,0.16,0.09,-0.03,
0.877,0.55,-0.24,0.09,0.16,0.09,-0.03,
0.877,0.55,-0.21,-0.08,0.16,0.09,-0.03,
0.878,0.55,-0.21,-0.08,0.15,0.08,-0.05,
0.878,0.55,-0.21,-0.08,0.15,0.07,-0.06,
0.878,0.55,-0.21,-0.08,0.14,0.06,-0.07,
0.878,0.33,-0.08,-0.12,0.14,0.06,-0.07,
0.879,0.33,-0.08,-0.12,0.14,0.06,-0.08,
0.879,0.33,-0.08,-0.12,0.14,0.07,-0.06,
0.879,-0.19,-0.08,0.11,0.14,0.07,-0.06,
0.879,-0.19,-0.08,0.11,0.15,0.08,-0.06,
0.881,-0.19,-0.08,0.11,0.16,0.09,-0.05,
0.882,-0.29,-0.13,0.30,0.16,0.09,-0.05,
0.887,-0.29,-0.13,0.30,0.16,0.10,-0.04,
0.888,-0.29,-0.13,0.30,0.17,0.10,-0.03,
0.889,-0.38,-0.15,0.31,0.17,0.10,-0.03,
0.889,-0.38,-0.15,0.31,0.17,0.10,-0.02,
0.896,-0.38,-0.15,0.31,0.17,0.09,-0.01,
0.896,-0.41,-0.25,0.33,0.17,0.09,-0.01,
0.897,-0.41,-0.25,0.33,0.17,0.07,0.00,
0.897,-0.41,-0.25,0.33,0.17,0.04,0.01,
0.898,-0.59,-0.54,0.32,0.17,0.04,0.01,
0.907,-0.59,-0.54,0.32,0.17,0.00,0.03,
0.907,-0.59,-0.54,0.32,0.17,-0.03,0.03,
0.907,-0.57,-0.51,0.35,0.17,-0.03,0.03,
0.908,-0.57,-0.51,0.35,0.17,-0.05,0.03,
0.908,-0.38,-0.22,0.40,0.17,-0.05,0.03,
0.908,-0.38,-0.22,0.40,0.18,-0.07,0.03,
0.908,-0.38,-0.22,0.40,0.18,-0.09,0.03,
0.911,-0.38,-0.22,0.40,0.19,-0.10,0.03,
0.911,-0.23,0.13,0.43,0.19,-0.10,0.03,
0.913,-0.23,0.13,0.43,0.20,-0.12,0.04,
0.916,-0.23,0.13,0.43,0.20,-0.12,0.04,
0.916,0.01,0.28,0.37,0.20,-0.12,0.04,
0.919,0.01,0.28,0.37,0.21,-0.11,0.04,
0.921,0.01,0.28,0.37,0.21,-0.06,0.03,
0.921,0.63,-0.31,-0.13,0.21,-0.06,0.03,
0.923,0.63,-0.31,-0.13,0.21,-0.02,0.01,
0.926,0.63,-0.31,-0.13,0.22,-0.02,-0.01,
0.927,0.93,-0.38,0.57,0.22,-0.02,-0.01,
0.929,0.93,-0.38,0.57,0.23,-0.03,-0.01,
0.931,0.93,-0.38,0.57,0.25,-0.04,0.01,
0.932,0.07,0.05,0.80,0.25,-0.04,0.01,
0.934,0.07,0.05,0.80,0.26,-0.04,0.01,
0.936,0.07,0.05,0.80,0.26,-0.02,0.02,
0.936,0.06,0.06,0.08,0.26,-0.02,0.02,
0.938,0.06,0.06,0.08,0.26,0.00,0.01,
0.941,0.06,0.06,0.08,0.26,0.02,0.01,
0.941,-0.10,0.13,-0.23,0.26,0.02,0.01,
0.943,-0.10,0.13,-0.23,0.26,0.03,0.02,
0.946,-0.10,0.13,-0.23,0.26,0.03,0.02,
0.946,-0.05,0.15,0.02,0.26,0.03,0.02,
0.95,-0.05,0.15,0.02,0.26,0.03,0.02,
0.95,-0.05,0.15,0.02,0.26,0.02,0.02,
0.951,0.08,0.02,0.17,0.26,0.02,0.02,
0.953,0.08,0.02,0.17,0.27,0.01,0.02,
0.955,0.08,0.02,0.17,0.27,-0.00,0.02,
0.956,0.05,-0.04,0.19,0.27,-0.00,0.02,
0.958,0.05,-0.04,0.19,0.28,-0.01,0.02,
0.96,0.05,-0.04,0.19,0.28,-0.02,0.02,
0.96,-0.21,-0.05,0.06,0.28,-0.02,0.02,
0.963,-0.21,-0.05,0.06,0.27,-0.04,0.03,
0.967,-0.34,-0.08,-0.03,0.27,-0.04,0.03,
0.97,-0.34,-0.08,-0.03,0.27,-0.05,0.04,
0.971,-0.34,-0.08,-0.03,0.27,-0.06,0.05,
0.971,-0.34,-0.08,-0.03,0.27,-0.08,0.05,
0.972,-0.34,-0.14,0.01,0.27,-0.08,0.05,
0.973,-0.34,-0.14,0.01,0.27,-0.09,0.05,
0.979,-0.34,-0.14,0.01,0.27,-0.10,0.05,
0.979,-0.29,-0.23,0.09,0.27,-0.10,0.05,
0.979,-0.29,-0.23,0.09,0.27,-0.12,0.05,
0.98,-0.29,-0.23,0.09,0.27,-0.12,0.06,
0.994,-0.21,-0.22,0.11,0.27,-0.12,0.06,
0.994,-0.21,-0.22,0.11,0.28,-0.13,0.06,
0.995,-0.21,-0.22,0.11,0.28,-0.14,0.06,
0.995,-0.20,-0.15,0.08,0.28,-0.14,0.06,
0.995,-0.20,-0.15,0.08,0.28,-0.15,0.07,
0.996,-0.20,-0.15,0.08,0.28,-0.16,0.07,
0.996,-0.14,-0.06,0.10,0.28,-0.16,0.07,
0.996,-0.14,-0.06,0.10,0.28,-0.17,0.08,
1.003,-0.14,-0.06,0.10,0.28,-0.18,0.08,
1.004,-0.02,0.03,0.15,0.28,-0.18,0.08,
1.004,-0.02,0.03,0.15,0.28,-0.19,0.08,
1.005,-0.02,0.03,0.15,0.29,-0.19,0.08,
1.005,-0.02,0.03,0.15,0.29,-0.19,0.08,
1.005,0.01,-0.00,0.17,0.29,-0.19,0.08,
1.006,0.01,-0.00,0.17,0.30,-0.19,0.08,
1.006,0.04,-0.04,0.11,0.30,-0.19,0.08,
1.007,0.04,-0.04,0.11,0.29,-0.19,0.09,
1.01,-0.04,0.01,0.01,0.29,-0.19,0.09,
1.011,-0.04,0.01,0.01,0.29,-0.19,0.09,
1.012,-0.04,0.01,0.01,0.30,-0.18,0.09,
1.015,-0.21,0.28,-0.13,0.30,-0.18,0.09,
1.029,-0.21,0.28,-0.13,0.29,-0.17,0.10,
1.029,-0.21,0.28,-0.13,0.29,-0.15,0.12,
1.029,-0.21,0.28,-0.13,0.29,-0.13,0.14,
1.029,-0.26,0.54,-0.17,0.29,-0.13,0.14,
1.029,-0.26,0.54,-0.17,0.29,-0.12,0.14,
1.029,-0.10,0.29,0.13,0.29,-0.12,0.14,
1.03,-0.10,0.29,0.13,0.30,-0.12,0.15,
1.03,-0.10,0.29,0.13,0.30,-0.12,0.15,
1.03,-0.10,0.29,0.13,0.30,-0.13,0.15,
1.03,0.01,-0.14,0.39,0.30,-0.13,0.15,
1.033,0.01,-0.14,0.39,0.31,-0.14,0.14,
1.035,0.10,-0.48,0.52,0.31,-0.14,0.14,
1.035,0.10,-0.48,0.52,0.32,-0.14,0.13,
1.037,0.10,-0.48,0.52,0.32,-0.15,0.13,
1.039,0.10,-0.48,0.52,0.33,-0.15,0.13,
1.04,0.08,-0.60,0.46,0.33,-0.15,0.13,
1.042,0.08,-0.60,0.46,0.33,-0.16,0.14,
1.045,0.08,-0.60,0.46,0.33,-0.15,0.14,
1.045,-0.00,-0.50,0.36,0.33,-0.15,0.14,
1.047,-0.00,-0.50,0.36,0.34,-0.14,0.14,
1.051,-0.00,-0.50,0.36,0.34,-0.13,0.15,
1.051,-0.10,-0.34,0.32,0.34,-0.13,0.15,
1.052,-0.10,-0.34,0.32,0.34,-0.12,0.15,
1.055,-0.10,-0.34,0.32,0.35,-0.11,0.16,
1.056,-0.19,-0.20,0.25,0.35,-0.11,0.16,
1.057,-0.19,-0.20,0.25,0.35,-0.10,0.16,
1.059,-0.19,-0.20,0.25,0.36,-0.09,0.17,
1.059,-0.38,-0.13,0.37,0.36,-0.09,0.17,
1.062,-0.38,-0.13,0.37,0.36,-0.09,0.19,
1.067,-0.55,-0.09,0.48,0.36,-0.09,0.19,
1.069,-0.55,-0.09,0.48,0.37,-0.09,0.20,
1.07,-0.55,-0.09,0.48,0.38,-0.10,0.22,
1.071,-0.62,-0.01,0.51,0.38,-0.10,0.22,
1.071,-0.62,-0.01,0.51,0.39,-0.11,0.23,
1.072,-0.62,-0.01,0.51,0.39,-0.12,0.24,
1.076,-0.62,-0.01,0.51,0.40,-0.13,0.25,
1.076,-0.72,0.13,0.44,0.40,-0.13,0.25,
1.077,-0.72,0.13,0.44,0.41,-0.16,0.26,
1.079,-0.72,0.13,0.44,0.41,-0.17,0.27,
1.08,-0.89,0.14,0.33,0.41,-0.17,0.27,
1.083,-0.89,0.14,0.33,0.41,-0.19,0.29,
1.084,-0.89,0.14,0.33,0.42,-0.20,0.30,
1.085,-0.99,0.02,0.36,0.42,-0.20,0.30,
1.087,-0.99,0.02,0.36,0.43,-0.21,0.32,
1.089,-0.99,0.02,0.36,0.43,-0.23,0.33,
1.089,-0.98,-0.08,0.39,0.43,-0.23,0.33,
1.091,-0.98,-0.08,0.39,0.44,-0.24,0.35,
1.094,-0.98,-0.08,0.39,0.45,-0.25,0.36,
1.094,-0.91,-0.15,0.38,0.45,-0.25,0.36,
1.096,-0.91,-0.15,0.38,0.45,-0.27,0.38,
1.099,-0.91,-0.15,0.38,0.46,-0.28,0.40,
1.1,-0.81,-0.22,0.31,0.46,-0.28,0.40,
1.102,-0.81,-0.22,0.31,0.46,-0.30,0.41,
1.104,-0.81,-0.22,0.31,0.46,-0.31,0.42,
1.104,-0.63,-0.24,0.19,0.46,-0.31,0.42,
1.107,-0.63,-0.24,0.19,0.46,-0.32,0.42,
1.11,-0.63,-0.24,0.19,0.46,-0.33,0.43,
1.11,-0.53,-0.20,0.16,0.46,-0.33,0.43,
1.112,-0.53,-0.20,0.16,0.46,-0.34,0.43,
1.115,-0.53,-0.20,0.16,0.45,-0.35,0.44,
1.115,-0.42,-0.18,0.19,0.45,-0.35,0.44,
1.119,-0.42,-0.18,0.19,0.45,-0.36,0.44,
1.119,-0.42,-0.18,0.19,0.45,-0.37,0.46,
1.119,-0.36,0.01,0.33,0.45,-0.37,0.46,
1.121,-0.36,0.01,0.33,0.45,-0.38,0.47,
1.125,-0.36,0.01,0.33,0.45,-0.39,0.48,
1.125,-0.14,0.04,0.34,0.45,-0.39,0.48,
1.126,-0.14,0.04,0.34,0.45,-0.39,0.49,
1.129,-0.14,0.04,0.34,0.45,-0.39,0.50,
1.129,-0.02,0.15,0.24,0.45,-0.39,0.50,
1.132,-0.02,0.15,0.24,0.45,-0.39,0.51,
1.134,-0.04,0.24,0.13,0.45,-0.39,0.51,
1.135,-0.04,0.24,0.13,0.44,-0.39,0.52,
1.136,-0.04,0.24,0.13,0.44,-0.39,0.53,
1.139,-0.04,0.24,0.13,0.44,-0.39,0.54,
1.139,-0.17,0.20,0.14,0.44,-0.39,0.54,
1.141,-0.17,0.20,0.14,0.44,-0.39,0.55,
1.144,-0.17,0.20,0.14,0.43,-0.37,0.57,
1.144,-0.33,0.04,-0.02,0.43,-0.37,0.57,
1.146,-0.33,0.04,-0.02,0.43,-0.35,0.58,
1.15,-0.33,0.04,-0.02,0.43,-0.32,0.59,
1.15,-0.68,-0.09,0.00,0.43,-0.32,0.59,
1.152,-0.68,-0.09,0.00,0.44,-0.29,0.61,
1.154,-0.68,-0.09,0.00,0.44,-0.27,0.62,
1.154,-0.84,-0.33,0.16,0.44,-0.27,0.62,
1.156,-0.84,-0.33,0.16,0.45,-0.26,0.63,
1.159,-0.84,-0.33,0.16,0.46,-0.27,0.64,
1.159,-0.96,-0.44,0.15,0.46,-0.27,0.64,
1.161,-0.96,-0.44,0.15,0.47,-0.27,0.65,
1.164,-1.05,-0.39,-0.11,0.47,-0.27,0.65,
1.165,-1.05,-0.39,-0.11,0.47,-0.28,0.67,
1.174,-1.05,-0.39,-0.11,0.47,-0.29,0.68,
1.175,-1.05,-0.39,-0.11,0.47,-0.31,0.69,
1.175,-1.07,-0.31,-0.37,0.47,-0.31,0.69,
1.175,-1.07,-0.31,-0.37,0.46,-0.33,0.71,
1.192,-1.07,-0.31,-0.37,0.45,-0.36,0.72,
1.192,-1.07,-0.31,-0.37,0.43,-0.40,0.73,
1.192,-1.07,-0.31,-0.37,0.42,-0.43,0.75,
1.192,-1.07,-0.31,-0.37,0.40,-0.46,0.76,
1.193,-1.11,-0.25,-0.55,0.40,-0.46,0.76,
1.21,-1.02,-0.20,-0.51,0.40,-0.46,0.76,
1.211,-1.02,-0.20,-0.51,0.39,-0.49,0.77,
1.211,-1.02,-0.20,-0.51,0.38,-0.52,0.78,
1.211,-0.72,-0.13,-0.12,0.38,-0.52,0.78,
1.212,-0.72,-0.13,-0.12,0.38,-0.56,0.79,
1.212,-0.13,0.05,0.47,0.38,-0.56,0.79,
1.212,-0.13,0.05,0.47,0.38,-0.59,0.80,
1.213,-0.13,0.05,0.47,0.38,-0.62,0.80,
1.213,0.50,0.21,0.74,0.38,-0.62,0.80,
1.213,0.50,0.21,0.74,0.38,-0.64,0.80,
1.214,0.50,0.21,0.74,0.38,-0.65,0.80,
1.214,0.95,0.24,0.57,0.38,-0.65,0.80,
1.214,0.95,0.24,0.57,0.37,-0.65,0.80,
1.215,0.95,0.24,0.57,0.37,-0.64,0.80,
1.215,0.98,0.14,0.29,0.37,-0.64,0.80,
1.215,0.98,0.14,0.29,0.36,-0.62,0.80,
1.215,0.98,0.14,0.29,0.35,-0.58,0.81,
1.216,0.78,-0.02,0.23,0.35,-0.58,0.81,
1.216,0.78,-0.02,0.23,0.35,-0.52,0.81,
1.216,0.78,-0.02,0.23,0.36,-0.46,0.82,
1.216,0.39,-0.16,0.52,0.36,-0.46,0.82,
1.217,0.39,-0.16,0.52,0.37,-0.40,0.83,
1.218,0.39,-0.16,0.52,0.39,-0.35,0.83,
1.218,-0.07,-0.26,0.82,0.39,-0.35,0.83,
1.221,-0.07,-0.26,0.82,0.40,-0.31,0.84,
1.223,-0.07,-0.26,0.82,0.41,-0.28,0.85,
1.225,-0.59,-0.26,0.89,0.41,-0.28,0.85,
1.226,-0.59,-0.26,0.89,0.42,-0.27,0.86,
1.229,-0.59,-0.26,0.89,0.43,-0.28,0.88,
1.229,-1.02,-0.20,0.78,0.43,-0.28,0.88,
1.23,-1.02,-0.20,0.78,0.44,-0.29,0.90,
1.233,-1.25,-0.13,0.65,0.44,-0.29,0.90,
1.234,-1.25,-0.13,0.65,0.44,-0.33,0.93,
1.235,-1.25,-0.13,0.65,0.44,-0.38,0.95,
1.238,-1.25,-0.13,0.65,0.44,-0.44,0.98,
1.238,-1.25,-0.03,0.53,0.44,-0.44,0.98,
1.24,-1.25,-0.03,0.53,0.45,-0.49,1.00,
1.243,-1.25,-0.03,0.53,0.45,-0.54,1.01,
1.244,-0.99,0.06,0.29,0.45,-0.54,1.01,
1.245,-0.99,0.06,0.29,0.46,-0.58,1.01,
1.248,-0.99,0.06,0.29,0.45,-0.61,1.01,
1.248,-0.45,0.01,-0.15,0.45,-0.61,1.01,
1.25,-0.45,0.01,-0.15,0.44,-0.64,1.00,
1.253,-0.45,0.01,-0.15,0.43,-0.65,0.99,
1.253,0.24,-0.07,-0.42,0.43,-0.65,0.99,
1.255,0.24,-0.07,-0.42,0.42,-0.64,0.98,
1.258,0.24,-0.07,-0.42,0.41,-0.63,0.97,
1.258,1.00,-0.18,-0.36,0.41,-0.63,0.97,
1.26,1.00,-0.18,-0.36,0.41,-0.61,0.96,
1.263,1.00,-0.18,-0.36,0.41,-0.58,0.95,
1.263,1.53,-0.28,-0.36,0.41,-0.58,0.95,
1.27,1.53,-0.28,-0.36,0.42,-0.53,0.93,
1.27,1.53,-0.28,-0.36,0.42,-0.47,0.91,
1.27,1.72,-0.31,-0.50,0.42,-0.47,0.91,
1.27,1.72,-0.31,-0.50,0.43,-0.40,0.89,
1.273,1.72,-0.31,-0.50,0.43,-0.31,0.86,
1.276,1.72,-0.31,-0.50,0.44,-0.23,0.84,
1.279,1.72,-0.31,-0.50,0.44,-0.16,0.82,
1.279,1.56,-0.43,-0.69,0.44,-0.16,0.82,
1.279,1.16,-0.49,-0.75,0.44,-0.16,0.82,
1.281,1.16,-0.49,-0.75,0.45,-0.10,0.80,
1.293,0.62,-0.44,-0.65,0.45,-0.10,0.80,
1.293,0.62,-0.44,-0.65,0.45,-0.06,0.79,
1.293,0.62,-0.44,-0.65,0.44,-0.03,0.78,
1.293,0.62,-0.44,-0.65,0.44,-0.01,0.77,
1.293,0.23,-0.39,-0.36,0.44,-0.01,0.77,
1.294,0.23,-0.39,-0.36,0.44,-0.00,0.76,
1.294,0.04,-0.29,0.05,0.44,-0.00,0.76,
1.294,0.04,-0.29,0.05,0.44,-0.01,0.76,
1.295,0.04,-0.29,0.05,0.44,-0.03,0.76,
1.297,0.04,-0.29,0.05,0.44,-0.06,0.76,
1.299,0.15,-0.24,0.31,0.44,-0.06,0.76,
1.3,0.15,-0.24,0.31,0.45,-0.09,0.75,
1.303,0.44,-0.20,0.43,0.45,-0.09,0.75,
1.303,0.44,-0.20,0.43,0.45,-0.14,0.74,
1.306,0.44,-0.20,0.43,0.46,-0.17,0.74,
1.307,0.44,-0.20,0.43,0.46,-0.20,0.73,
1.307,0.67,-0.20,0.33,0.46,-0.20,0.73,
1.309,0.67,-0.20,0.33,0.46,-0.22,0.72,
1.312,0.67,-0.20,0.33,0.46,-0.24,0.72,
1.312,0.76,-0.21,0.18,0.46,-0.24,0.72,
1.315,0.76,-0.21,0.18,0.46,-0.24,0.71,
1.318,0.76,-0.21,0.18,0.46,-0.25,0.70,
1.32,0.89,-0.23,0.26,0.46,-0.25,0.70,
1.322,0.89,-0.23,0.26,0.47,-0.26,0.69,
1.323,0.89,-0.24,0.20,0.47,-0.26,0.69,
1.325,0.89,-0.24,0.20,0.48,-0.26,0.68,
1.325,0.89,-0.24,0.20,0.49,-0.22,0.67,
1.327,0.89,-0.24,0.20,0.49,-0.16,0.66,
1.327,0.78,-0.25,-0.37,0.49,-0.16,0.66,
1.329,0.78,-0.25,-0.37,0.49,-0.11,0.64,
1.333,0.78,-0.25,-0.37,0.49,-0.08,0.63,
1.334,0.78,-0.28,-0.23,0.49,-0.08,0.63,
1.336,0.78,-0.28,-0.23,0.49,-0.05,0.62,
1.337,0.78,-0.28,-0.23,0.49,-0.03,0.62,
1.338,0.74,-0.25,0.01,0.49,-0.03,0.62,
1.339,0.74,-0.25,0.01,0.49,-0.02,0.61,
1.342,0.74,-0.25,0.01,0.49,0.00,0.60,
1.342,0.69,-0.26,-0.01,0.49,0.00,0.60,
1.345,0.69,-0.26,-0.01,0.49,0.03,0.59,
1.361,0.69,-0.26,-0.01,0.48,0.05,0.58,
1.361,0.59,-0.26,0.12,0.48,0.05,0.58,
1.362,0.59,-0.26,0.12,0.48,0.07,0.58,
1.362,0.54,-0.21,0.38,0.48,0.07,0.58,
1.362,0.54,-0.21,0.38,0.49,0.09,0.57,
1.363,0.54,-0.21,0.38,0.50,0.09,0.56,
1.363,0.54,-0.21,0.38,0.50,0.10,0.56,
1.364,0.55,-0.18,0.41,0.50,0.10,0.56,
1.364,0.55,-0.18,0.41,0.51,0.10,0.55,
1.364,0.55,-0.18,0.41,0.51,0.11,0.54,
1.365,0.56,-0.16,0.22,0.51,0.11,0.54,
1.368,0.56,-0.16,0.22,0.50,0.10,0.53,
1.369,0.56,-0.16,0.22,0.50,0.10,0.53,
1.369,0.50,-0.11,-0.02,0.50,0.10,0.53,
1.37,0.50,-0.11,-0.02,0.49,0.09,0.53,
1.372,0.36,-0.09,-0.17,0.49,0.09,0.53,
1.373,0.36,-0.09,-0.17,0.49,0.08,0.53,
1.375,0.36,-0.09,-0.17,0.48,0.07,0.53,
1.377,0.22,-0.08,-0.24,0.48,0.07,0.53,
1.377,0.22,-0.08,-0.24,0.48,0.07,0.53,
1.379,0.22,-0.08,-0.24,0.48,0.07,0.53,
1.388,0.04,-0.14,-0.20,0.48,0.07,0.53,
1.389,0.04,-0.14,-0.20,0.47,0.07,0.53,
1.389,0.04,-0.14,-0.20,0.47,0.07,0.53,
1.389,-0.32,-0.22,-0.11,0.47,0.07,0.53,
1.39,-0.32,-0.22,-0.11,0.46,0.06,0.53,
1.39,-0.32,-0.22,-0.11,0.46,0.06,0.53,
1.392,-0.32,-0.22,-0.11,0.46,0.05,0.54,
1.392,-0.57,-0.28,0.03,0.46,0.05,0.54,
1.394,-0.57,-0.28,0.03,0.46,0.05,0.55,
1.397,-0.57,-0.28,0.03,0.46,0.04,0.56,
1.397,-0.45,-0.21,-0.03,0.46,0.04,0.56,
1.42,-0.45,-0.21,-0.03,0.45,0.02,0.57,
1.421,-0.45,-0.21,-0.03,0.45,-0.00,0.57,
1.421,-0.12,-0.12,-0.23,0.45,-0.00,0.57,
1.421,-0.12,-0.12,-0.23,0.44,-0.02,0.57,
1.421,-0.12,-0.12,-0.23,0.44,-0.03,0.57,
1.421,0.14,-0.07,-0.36,0.44,-0.03,0.57,
1.422,0.14,-0.07,-0.36,0.43,-0.04,0.56,
1.422,0.14,-0.07,-0.36,0.43,-0.03,0.56,
1.422,0.25,-0.06,-0.34,0.43,-0.03,0.56,
1.422,0.25,-0.06,-0.34,0.42,-0.01,0.55,
1.423,0.25,-0.06,-0.34,0.42,0.01,0.55,
1.423,0.31,-0.04,-0.26,0.42,0.01,0.55,
1.423,0.31,-0.04,-0.26,0.41,0.04,0.55,
1.423,0.31,-0.02,-0.13,0.41,0.04,0.55,
1.423,0.31,-0.02,-0.13,0.41,0.06,0.55,
1.424,0.31,-0.02,-0.13,0.41,0.08,0.56,
1.426,0.31,-0.02,-0.13,0.40,0.10,0.56,
1.427,0.24,-0.01,-0.19,0.40,0.10,0.56,
1.428,0.24,-0.01,-0.19,0.40,0.12,0.56,
1.431,0.24,-0.01,-0.19,0.39,0.13,0.56,
1.431,0.24,-0.01,-0.31,0.39,0.13,0.56,
1.435,0.24,-0.01,-0.31,0.39,0.15,0.56,
1.438,0.18,-0.09,-0.33,0.39,0.15,0.56,
1.438,0.18,-0.09,-0.33,0.39,0.15,0.56,
1.439,0.18,-0.09,-0.33,0.38,0.16,0.56,
1.443,0.18,-0.09,-0.33,0.38,0.16,0.55,
1.443,0.06,-0.20,-0.34,0.38,0.16,0.55,
1.446,0.06,-0.20,-0.34,0.38,0.17,0.55,
1.448,0.06,-0.20,-0.34,0.38,0.18,0.54,
1.448,-0.11,-0.21,-0.45,0.38,0.18,0.54,
1.449,-0.11,-0.21,-0.45,0.38,0.19,0.54,
1.452,-0.29,-0.23,-0.49,0.38,0.19,0.54,
1.453,-0.29,-0.23,-0.49,0.38,0.19,0.54,
1.455,-0.29,-0.23,-0.49,0.38,0.17,0.54,
1.457,-0.29,-0.23,-0.49,0.37,0.15,0.54,
1.457,-0.50,-0.24,-0.43,0.37,0.15,0.54,
1.459,-0.50,-0.24,-0.43,0.37,0.14,0.55,
1.462,-0.52,-0.20,-0.28,0.37,0.14,0.55,
1.462,-0.52,-0.20,-0.28,0.37,0.12,0.55,
1.468,-0.52,-0.20,-0.28,0.37,0.11,0.55,
1.469,-0.52,-0.20,-0.28,0.37,0.09,0.55,
1.469,-0.46,-0.14,-0.19,0.37,0.09,0.55,
1.472,-0.46,-0.14,-0.19,0.37,0.07,0.55,
1.474,-0.20,-0.12,-0.43,0.37,0.07,0.55,
1.474,-0.20,-0.12,-0.43,0.37,0.06,0.55,
1.476,-0.20,-0.12,-0.43,0.37,0.05,0.54,
1.476,0.10,-0.15,-0.52,0.37,0.05,0.54,
1.476,0.10,-0.15,-0.52,0.37,0.05,0.54,
1.478,0.10,-0.15,-0.52,0.37,0.06,0.53,
1.481,0.10,-0.15,-0.52,0.37,0.07,0.53,
1.482,0.22,-0.13,-0.36,0.37,0.07,0.53,
1.488,0.22,-0.13,-0.36,0.37,0.07,0.52,
1.489,0.22,-0.13,-0.36,0.37,0.08,0.52,
1.489,0.23,-0.02,-0.15,0.37,0.08,0.52,
1.49,0.23,-0.02,-0.15,0.37,0.09,0.52,
1.5,0.33,0.01,0.00,0.37,0.09,0.52,
1.501,0.33,0.01,0.00,0.38,0.10,0.51,
1.502,0.33,0.01,0.00,0.38,0.13,0.51,
1.502,0.33,0.01,0.00,0.38,0.16,0.51,
1.502,0.33,0.01,0.00,0.39,0.19,0.50,
1.503,0.14,-0.04,-0.09,0.39,0.19,0.50,
1.503,-0.14,-0.04,-0.38,0.39,0.19,0.50,
1.504,-0.14,-0.04,-0.38,0.39,0.22,0.50,
1.521,-0.14,-0.04,-0.38,0.38,0.23,0.51,
1.521,-0.14,-0.04,-0.38,0.38,0.25,0.52,
1.522,-0.46,0.00,-0.45,0.38,0.25,0.52,
1.522,-0.46,0.00,-0.45,0.38,0.24,0.53,
1.522,-0.46,0.00,-0.45,0.37,0.24,0.54,
1.542,-0.54,0.03,-0.31,0.37,0.24,0.54,
1.542,-0.54,0.03,-0.31,0.37,0.24,0.55,
1.543,-0.46,0.07,-0.36,0.37,0.24,0.55,
1.543,-0.46,0.07,-0.36,0.37,0.24,0.56,
1.543,-0.46,0.07,-0.36,0.36,0.26,0.56,
1.543,-0.46,0.07,-0.36,0.36,0.29,0.57,
1.544,-0.50,0.13,-0.43,0.36,0.29,0.57,
1.544,-0.50,0.13,-0.43,0.36,0.30,0.57,
1.544,-0.49,-0.02,-0.33,0.36,0.30,0.57,
1.544,-0.49,-0.02,-0.33,0.36,0.31,0.58,
1.545,-0.49,-0.02,-0.33,0.36,0.30,0.59,
1.545,-0.32,-0.25,-0.25,0.36,0.30,0.59,
1.545,-0.32,-0.25,-0.25,0.36,0.29,0.59,
1.545,-0.32,-0.25,-0.25,0.35,0.28,0.59,
1.546,-0.39,-0.27,-0.38,0.35,0.28,0.59,
1.546,-0.39,-0.27,-0.38,0.35,0.28,0.59,
1.546,-0.39,-0.27,-0.38,0.35,0.27,0.60,
1.546,-0.76,-0.04,-0.46,0.35,0.27,0.60,
1.547,-0.76,-0.04,-0.46,0.35,0.28,0.62,
1.547,-0.76,-0.04,-0.46,0.34,0.29,0.63,
1.547,-1.08,0.14,-0.80,0.34,0.29,0.63,
1.547,-1.08,0.14,-0.80,0.34,0.31,0.65,
1.547,-1.08,0.14,-0.80,0.34,0.33,0.66,
1.552,-1.26,0.18,-1.13,0.34,0.33,0.66,
1.552,-1.26,0.18,-1.13,0.33,0.34,0.67,
1.553,-1.26,0.18,-1.13,0.33,0.34,0.69,
1.556,-1.45,0.14,-1.11,0.33,0.34,0.69,
1.557,-1.45,0.14,-1.11,0.32,0.34,0.70,
1.559,-1.45,0.14,-1.11,0.32,0.33,0.72,
1.561,-1.45,0.14,-1.11,0.32,0.31,0.73,
1.561,-1.56,0.08,-0.90,0.32,0.31,0.73,
1.562,-1.56,0.08,-0.90,0.32,0.29,0.75,
1.566,-1.55,-0.07,-0.78,0.32,0.29,0.75,
1.566,-1.55,-0.07,-0.78,0.32,0.27,0.77,
1.571,-1.55,-0.07,-0.78,0.32,0.23,0.79,
1.574,-1.41,-0.19,-0.81,0.32,0.23,0.79,
1.574,-1.41,-0.19,-0.81,0.31,0.19,0.80,
1.593,-1.41,-0.19,-0.81,0.31,0.14,0.81,
1.594,-1.29,-0.18,-0.90,0.31,0.14,0.81,
1.594,-1.26,-0.04,-0.79,0.31,0.14,0.81,
1.594,-1.26,-0.04,-0.79,0.31,0.10,0.83,
1.594,-1.26,-0.04,-0.79,0.30,0.07,0.84,
1.595,-1.26,-0.04,-0.79,0.30,0.04,0.86,
1.595,-1.26,-0.04,-0.79,0.30,0.01,0.88,
1.595,-1.01,0.00,-0.72,0.30,0.01,0.88,
1.595,-1.01,0.00,-0.72,0.29,-0.01,0.90,
1.595,-1.01,0.00,-0.72,0.29,-0.03,0.91,
1.596,-1.01,0.00,-0.72,0.28,-0.04,0.92,
1.596,-0.68,0.04,-0.88,0.28,-0.04,0.92,
1.596,-0.68,0.04,-0.88,0.27,-0.05,0.93,
1.596,-0.28,0.25,-0.80,0.27,-0.05,0.93,
1.596,-0.28,0.25,-0.80,0.26,-0.06,0.94,
1.597,-0.28,0.25,-0.80,0.26,-0.04,0.96,
1.6,0.06,0.41,-0.84,0.26,-0.04,0.96,
1.601,0.06,0.41,-0.84,0.25,0.00,0.97,
1.603,0.06,0.41,-0.84,0.24,0.06,0.97,
1.605,0.06,0.41,-0.84,0.24,0.11,0.97,
1.605,0.30,0.29,-0.50,0.24,0.11,0.97,
1.608,0.30,0.29,-0.50,0.24,0.16,0.97,
1.61,0.30,0.29,-0.50,0.24,0.19,0.98,
1.611,0.17,0.17,-0.09,0.24,0.19,0.98,
1.613,0.17,0.17,-0.09,0.25,0.22,0.98,
1.616,0.17,0.17,-0.09,0.24,0.25,0.99,
1.616,-0.00,0.19,-0.19,0.24,0.25,0.99,
1.617,-0.00,0.19,-0.19,0.24,0.27,0.99,
1.62,-0.00,0.19,-0.19,0.24,0.29,1.00,
1.62,-0.25,0.24,-0.23,0.24,0.29,1.00,
1.622,-0.25,0.24,-0.23,0.23,0.31,1.00,
1.625,-0.25,0.24,-0.23,0.23,0.32,1.01,
1.625,-0.42,0.35,0.03,0.23,0.32,1.01,
1.627,-0.42,0.35,0.03,0.23,0.32,1.02,
1.629,-0.42,0.35,0.03,0.23,0.31,1.03,
1.63,-0.61,0.50,0.25,0.23,0.31,1.03,
1.632,-0.61,0.50,0.25,0.22,0.29,1.04,
1.637,-0.64,0.79,0.19,0.22,0.29,1.04,
1.638,-0.64,0.79,0.19,0.21,0.25,1.05,
1.638,-0.64,0.79,0.19,0.20,0.22,1.05,
1.64,-0.64,0.79,0.19,0.20,0.23,1.07,
1.64,-0.88,0.92,0.31,0.20,0.23,1.07,
1.642,-0.88,0.92,0.31,0.20,0.26,1.09,
1.644,-0.88,0.92,0.31,0.21,0.30,1.11,
1.645,-0.93,0.82,0.65,0.21,0.30,1.11,
1.647,-0.93,0.82,0.65,0.21,0.33,1.12,
1.65,-0.93,0.82,0.65,0.21,0.33,1.13,
1.651,-0.58,0.70,0.75,0.21,0.33,1.13,
1.652,-0.58,0.70,0.75,0.21,0.32,1.14,
1.655,-0.19,0.70,0.57,0.21,0.32,1.14,
1.656,-0.19,0.70,0.57,0.20,0.31,1.14,
1.657,-0.19,0.70,0.57,0.19,0.31,1.14,
1.66,-0.19,0.70,0.57,0.19,0.32,1.14,
1.66,-0.03,0.78,0.47,0.19,0.32,1.14,
1.662,-0.03,0.78,0.47,0.20,0.33,1.15,
1.664,-0.03,0.78,0.47,0.20,0.35,1.15,
1.665,0.02,0.91,0.23,0.20,0.35,1.15,
1.667,0.02,0.91,0.23,0.20,0.37,1.15,
1.669,0.02,0.91,0.23,0.20,0.40,1.14,
1.67,0.12,0.89,-0.32,0.20,0.40,1.14,
1.672,0.12,0.89,-0.32,0.19,0.43,1.14,
1.675,0.12,0.89,-0.32,0.18,0.46,1.13,
1.676,0.21,0.92,-0.46,0.18,0.46,1.13,
1.699,0.21,0.92,-0.46,0.17,0.49,1.12,
1.7,0.23,0.96,-0.35,0.17,0.49,1.12,
1.7,0.23,0.96,-0.35,0.17,0.53,1.12,
1.7,0.23,0.96,-0.35,0.16,0.57,1.12,
1.7,0.23,0.96,-0.35,0.16,0.60,1.11,
1.701,0.33,0.93,-0.14,0.16,0.60,1.11,
1.701,0.33,0.93,-0.14,0.15,0.61,1.11,
1.701,0.33,0.93,-0.14,0.15,0.63,1.10,
1.701,0.35,0.83,-0.02,0.15,0.63,1.10,
1.702,0.35,0.83,-0.02,0.14,0.66,1.09,
1.702,0.28,0.96,-0.16,0.14,0.66,1.09,
1.702,0.28,0.96,-0.16,0.13,0.69,1.08,
1.702,0.28,0.96,-0.16,0.12,0.72,1.07,
1.703,0.02,1.02,-0.00,0.12,0.72,1.07,
1.703,0.02,1.02,-0.00,0.11,0.74,1.07,
1.703,0.02,1.02,-0.00,0.10,0.76,1.07,
1.711,-0.08,0.89,0.06,0.10,0.76,1.07,
1.712,-0.08,0.89,0.06,0.10,0.79,1.08,
1.712,-0.08,0.89,0.06,0.10,0.81,1.09,
1.712,-0.08,0.89,0.06,0.09,0.82,1.09,
1.713,-0.25,0.82,-0.03,0.09,0.82,1.09,
1.713,-0.25,0.82,-0.03,0.09,0.84,1.10,
1.714,-0.25,0.82,-0.03,0.09,0.85,1.11,
1.715,-0.56,0.80,-0.24,0.09,0.85,1.11,
1.72,-0.56,0.80,-0.24,0.08,0.86,1.12,
1.72,-0.56,0.80,-0.24,0.06,0.87,1.13,
1.72,-0.63,0.88,-0.56,0.06,0.87,1.13,
1.739,-0.63,0.88,-0.56,0.05,0.88,1.12,
1.74,-0.63,0.88,-0.56,0.04,0.88,1.12,
1.741,-0.80,1.04,-0.43,0.04,0.88,1.12,
1.743,-0.80,1.04,-0.43,0.04,0.88,1.13,
1.744,-0.80,1.04,-0.43,0.04,0.89,1.14,
1.744,-1.29,1.21,-0.47,0.04,0.89,1.14,
1.744,-1.29,1.21,-0.47,0.03,0.90,1.16,
1.744,-1.29,1.21,-0.47,0.03,0.91,1.19,
1.745,-1.53,1.20,-0.87,0.03,0.91,1.19,
1.745,-1.53,1.20,-0.87,0.02,0.91,1.21,
1.745,-1.53,1.20,-0.87,0.00,0.90,1.22,
1.745,-1.35,1.08,-0.75,0.00,0.90,1.22,
1.746,-1.35,1.08,-0.75,-0.01,0.89,1.24,
1.746,-1.25,1.13,-0.34,-0.01,0.89,1.24,
1.746,-1.25,1.13,-0.34,-0.02,0.88,1.25,
1.747,-1.25,1.13,-0.34,-0.03,0.87,1.26,
1.748,-1.25,1.13,-0.34,-0.04,0.87,1.28,
1.748,-1.19,1.27,-0.67,-0.04,0.87,1.28,
1.752,-1.19,1.27,-0.67,-0.05,0.86,1.29,
1.753,-1.19,1.42,-1.07,-0.05,0.86,1.29,
1.754,-1.19,1.42,-1.07,-0.07,0.85,1.30,
1.756,-1.19,1.42,-1.07,-0.08,0.84,1.31,
1.759,-1.19,1.42,-1.07,-0.10,0.85,1.32,
1.759,-1.29,1.76,-1.28,-0.10,0.85,1.32,
1.762,-1.29,1.76,-1.28,-0.11,0.88,1.33,
1.764,-1.29,1.76,-1.28,-0.11,0.92,1.35,
1.764,-1.56,1.90,-1.21,-0.11,0.92,1.35,
1.767,-1.56,1.90,-1.21,-0.11,0.94,1.37,
1.769,-1.56,1.90,-1.21,-0.10,0.89,1.40,
1.771,-2.13,1.02,-0.47,-0.10,0.89,1.40,
1.771,-2.13,1.02,-0.47,-0.11,0.82,1.42,
1.781,-1.81,1.49,-1.92,-0.11,0.82,1.42,
1.782,-1.55,2.54,-2.08,-0.11,0.82,1.42,
1.782,-1.55,2.54,-2.08,-0.12,0.80,1.45,
1.782,-1.55,2.54,-2.08,-0.16,0.85,1.46,
1.783,-1.55,2.54,-2.08,-0.19,0.92,1.48,
1.783,-1.55,2.54,-2.08,-0.20,1.00,1.51,
1.79,-1.38,2.83,-0.48,-0.20,1.00,1.51,
1.791,-1.38,2.83,-0.48,-0.20,1.05,1.53,
1.791,-1.23,2.63,-0.44,-0.20,1.05,1.53,
1.791,-1.23,2.63,-0.44,-0.20,1.08,1.55,
1.792,-1.23,2.63,-0.44,-0.21,1.10,1.57,
1.792,-1.23,2.63,-0.44,-0.22,1.13,1.58,
1.793,-1.23,2.63,-0.44,-0.24,1.17,1.59,
1.794,-1.46,2.80,-0.65,-0.24,1.17,1.59,
1.796,-1.46,2.80,-0.65,-0.25,1.19,1.61,
1.798,-1.82,2.84,0.31,-0.25,1.19,1.61,
1.799,-1.82,2.84,0.31,-0.26,1.19,1.62,
1.801,-1.82,2.84,0.31,-0.27,1.20,1.63,
1.803,-2.26,3.05,0.51,-0.27,1.20,1.63,
1.804,-2.26,3.05,0.51,-0.28,1.20,1.65,
1.805,-2.26,3.05,0.51,-0.30,1.21,1.66,
1.808,-2.26,3.05,0.51,-0.32,1.22,1.67,
1.808,-2.53,3.29,0.55,-0.32,1.22,1.67,
1.81,-2.53,3.29,0.55,-0.35,1.24,1.68,
1.813,-2.53,3.29,0.55,-0.38,1.26,1.70,
1.813,-2.88,3.61,0.80,-0.38,1.26,1.70,
1.816,-2.88,3.61,0.80,-0.40,1.31,1.71,
1.819,-3.48,3.87,1.35,-0.40,1.31,1.71,
1.819,-3.48,3.87,1.35,-0.41,1.34,1.73,
1.82,-3.48,3.87,1.35,-0.43,1.32,1.77,
1.823,-3.48,3.87,1.35,-0.44,1.26,1.81,
1.823,-4.19,3.84,1.57,-0.44,1.26,1.81,
1.825,-4.19,3.84,1.57,-0.46,1.21,1.84,
1.828,-4.19,3.84,1.57,-0.48,1.18,1.87,
1.828,-4.34,3.86,0.71,-0.48,1.18,1.87,
1.83,-4.34,3.86,0.71,-0.50,1.15,1.90,
1.833,-4.34,3.86,0.71,-0.53,1.13,1.93,
1.833,-4.69,4.16,0.32,-0.53,1.13,1.93,
1.835,-4.69,4.16,0.32,-0.54,1.16,1.96,
1.838,-4.69,4.16,0.32,-0.56,1.20,2.00,
1.838,-5.16,4.47,0.17,-0.56,1.20,2.00,
1.84,-5.16,4.47,0.17,-0.59,1.23,2.05,
1.861,-5.16,4.47,0.17,-0.62,1.26,2.09,
1.861,-5.48,5.01,0.00,-0.62,1.26,2.09,
1.861,-5.48,5.01,0.00,-0.67,1.25,2.12,
1.861,-5.48,5.01,0.00,-0.74,1.22,2.13,
1.862,-5.52,6.18,-1.38,-0.74,1.22,2.13,
1.862,-5.52,6.18,-1.38,-0.81,1.21,2.14,
1.862,-5.52,6.18,-1.38,-0.86,1.20,2.14,
1.862,-6.25,7.71,-1.80,-0.86,1.20,2.14,
1.863,-6.25,7.71,-1.80,-0.88,1.20,2.15,
1.863,-6.25,7.71,-1.80,-0.88,1.24,2.17,
1.863,-7.50,8.98,-2.07,-0.88,1.24,2.17,
1.863,-7.50,8.98,-2.07,-0.88,1.32,2.21,
1.864,-7.50,8.98,-2.07,-0.87,1.41,2.28,
1.864,-8.89,9.58,-2.47,-0.87,1.41,2.28,
1.866,-8.89,9.58,-2.47,-0.87,1.52,2.36,
1.869,-8.89,9.58,-2.47,-0.88,1.65,2.46,
1.869,-10.29,9.62,-2.52,-0.88,1.65,2.46,
1.871,-10.29,9.62,-2.52,-0.89,1.79,2.58,
1.873,-11.20,9.23,-2.42,-0.89,1.79,2.58,
1.873,-11.20,9.23,-2.42,-0.93,1.93,2.69,
1.875,-11.20,9.23,-2.42,-0.97,2.06,2.79,
1.879,-11.20,9.23,-2.42,-1.02,2.16,2.85,
1.879,-10.82,9.03,-2.75,-1.02,2.16,2.85,
1.88,-10.82,9.03,-2.75,-1.09,2.23,2.87,
1.882,-10.82,9.03,-2.75,-1.17,2.28,2.87,
1.883,-11.06,9.51,-3.17,-1.17,2.28,2.87,
1.886,-11.06,9.51,-3.17,-1.22,2.30,2.85,
1.888,-12.76,10.75,-2.54,-1.22,2.30,2.85,
1.888,-12.76,10.75,-2.54,-1.27,2.30,2.85,
1.89,-12.76,10.75,-2.54,-1.31,2.27,2.87,
1.892,-12.76,10.75,-2.54,-1.35,2.21,2.92,
1.893,-14.53,11.86,-2.48,-1.35,2.21,2.92,
1.895,-14.53,11.86,-2.48,-1.38,2.12,3.00,
1.897,-14.53,11.86,-2.48,-1.41,1.99,3.11,
1.898,-15.51,12.80,-2.77,-1.41,1.99,3.11,
1.9,-15.51,12.80,-2.77,-1.43,1.82,3.25,
1.91,-15.73,14.05,-2.88,-1.43,1.82,3.25,
1.911,-15.73,14.05,-2.88,-1.46,1.58,3.42,
1.913,-15.73,14.05,-2.88,-1.48,1.30,3.63,
1.913,-15.73,14.05,-2.88,-1.46,0.98,3.86,
1.917,-14.71,14.62,-2.56,-1.46,0.98,3.86,
1.919,-14.71,14.62,-2.56,-1.44,0.67,4.08,
1.92,-14.71,14.62,-2.56,-1.41,0.38,4.30,
1.921,-12.50,14.03,-3.40,-1.41,0.38,4.30,
1.921,-12.50,14.03,-3.40,-1.37,0.12,4.49,
1.922,-12.50,14.03,-3.40,-1.34,-0.08,4.66,
1.923,-10.14,12.81,-4.94,-1.34,-0.08,4.66,
1.923,-10.14,12.81,-4.94,-1.34,-0.21,4.79,
1.941,-7.64,11.83,-6.32,-1.34,-0.21,4.79,
1.942,-4.56,10.73,-5.84,-1.34,-0.21,4.79,
1.942,-2.56,9.74,-4.30,-1.34,-0.21,4.79,
1.943,-2.56,9.74,-4.30,-1.38,-0.28,4.89,
1.943,-2.56,9.74,-4.30,-1.43,-0.28,4.96,
1.943,-2.56,9.74,-4.30,-1.46,-0.24,4.99,
1.943,-2.56,9.74,-4.30,-1.44,-0.15,5.00,
1.944,-2.56,9.74,-4.30,-1.41,-0.05,5.01,
1.944,-2.56,9.74,-4.30,-1.36,0.05,5.02,
1.945,-2.56,9.74,-4.30,-1.28,0.18,5.02,
1.945,-1.08,8.66,-4.03,-1.28,0.18,5.02,
1.945,-1.08,8.66,-4.03,-1.21,0.33,5.00,
1.945,-1.08,8.66,-4.03,-1.13,0.51,4.96,
1.946,-0.20,7.53,-4.73,-1.13,0.51,4.96,
1.946,-0.20,7.53,-4.73,-1.04,0.73,4.88,
1.948,-0.20,7.53,-4.73,-0.95,1.00,4.74,
1.948,0.52,6.91,-5.38,-0.95,1.00,4.74,
1.952,0.52,6.91,-5.38,-0.87,1.30,4.57,
1.952,0.63,7.21,-5.27,-0.87,1.30,4.57,
1.955,0.63,7.21,-5.27,-0.78,1.59,4.36,
1.955,0.63,7.21,-5.27,-0.70,1.88,4.12,
1.957,0.63,7.21,-5.27,-0.62,2.17,3.87,
1.957,0.39,7.37,-5.26,-0.62,2.17,3.87,
1.959,0.39,7.37,-5.26,-0.53,2.47,3.60,
1.962,0.39,7.37,-5.26,-0.45,2.77,3.34,
1.962,-0.08,6.83,-4.97,-0.45,2.77,3.34,
1.964,-0.08,6.83,-4.97,-0.37,3.07,3.09,
1.967,-0.08,6.83,-4.97,-0.28,3.35,2.86,
1.967,-1.11,5.52,-4.25,-0.28,3.35,2.86,
1.969,-1.11,5.52,-4.25,-0.19,3.60,2.67,
1.972,-1.11,5.52,-4.25,-0.12,3.79,2.53,
1.972,-2.81,3.83,-3.34,-0.12,3.79,2.53,
1.974,-2.81,3.83,-3.34,-0.04,3.94,2.42,
1.977,-2.81,3.83,-3.34,0.00,4.05,2.34,
1.977,-5.01,2.64,-2.55,0.00,4.05,2.34,
1.98,-5.01,2.64,-2.55,0.04,4.15,2.31,
1.982,-5.01,2.64,-2.55,0.07,4.28,2.34,
1.982,-6.19,1.30,-1.85,0.07,4.28,2.34,
1.986,-6.19,1.30,-1.85,0.10,4.47,2.42,
1.986,-5.07,-1.22,-0.89,0.10,4.47,2.42,
1.987,-5.07,-1.22,-0.89,0.11,4.68,2.52,
1.989,-5.07,-1.22,-0.89,0.15,4.85,2.62,
1.992,-2.52,-2.95,0.58,0.15,4.85,2.62,
1.992,-2.52,-2.95,0.58,0.21,4.97,2.71,
1.995,-2.52,-2.95,0.58,0.27,5.03,2.75,
1.997,-2.52,-2.95,0.58,0.33,5.04,2.71,
1.997,0.55,-3.25,0.29,0.33,5.04,2.71,
1.999,0.55,-3.25,0.29,0.37,5.01,2.56,
2.014,2.91,-2.70,-1.59,0.37,5.01,2.56,
2.015,2.91,-2.70,-1.59,0.38,4.96,2.31,
2.015,2.91,-2.70,-1.59,0.37,4.90,1.97,
2.015,2.91,-2.70,-1.59,0.34,4.85,1.55,
2.038,3.97,-2.33,-3.04,0.34,4.85,1.55,
2.038,3.97,-2.33,-3.04,0.30,4.82,1.08,
2.039,3.97,-2.33,-3.04,0.27,4.81,0.60,
2.039,2.88,-2.73,-3.42,0.27,4.81,0.60,
2.039,2.88,-2.73,-3.42,0.26,4.85,0.13,
2.039,2.88,-2.73,-3.42,0.25,4.93,-0.28,
2.04,-1.50,-2.69,-3.31,0.25,4.93,-0.28,
2.04,-1.50,-2.69,-3.31,0.26,5.04,-0.62,
2.04,-1.50,-2.69,-3.31,0.28,5.13,-0.91,
2.04,-5.77,-2.79,-2.50,0.28,5.13,-0.91,
2.041,-5.77,-2.79,-2.50,0.31,5.19,-1.13,
2.041,-5.77,-2.79,-2.50,0.34,5.21,-1.29,
2.041,-9.94,-3.16,-1.47,0.34,5.21,-1.29,
2.041,-9.94,-3.16,-1.47,0.38,5.19,-1.38,
2.042,-9.94,-3.16,-1.47,0.42,5.13,-1.42,
2.042,-13.88,-3.62,-1.17,0.42,5.13,-1.42,
2.042,-13.88,-3.62,-1.17,0.45,5.03,-1.41,
2.043,-13.88,-3.62,-1.17,0.47,4.89,-1.37,
2.043,-16.44,-3.97,-1.54,0.47,4.89,-1.37,
2.043,-16.44,-3.97,-1.54,0.48,4.70,-1.33,
2.044,-16.44,-3.97,-1.54,0.48,4.45,-1.30,
2.044,-17.34,-3.97,-1.64,0.48,4.45,-1.30,
2.045,-17.34,-3.97,-1.64,0.48,4.16,-1.27,
2.048,-17.34,-3.97,-1.64,0.49,3.82,-1.25,
2.048,-17.48,-4.12,-0.92,0.49,3.82,-1.25,
2.049,-17.48,-4.12,-0.92,0.51,3.43,-1.23,
2.056,-17.48,-4.12,-0.92,0.53,3.02,-1.21,
2.057,-17.09,-4.54,0.13,0.53,3.02,-1.21,
2.057,-17.09,-4.54,0.13,0.57,2.62,-1.20,
2.058,-17.09,-4.54,0.13,0.62,2.23,-1.19,
2.058,-15.70,-5.10,1.13,0.62,2.23,-1.19,
2.058,-15.70,-5.10,1.13,0.68,1.84,-1.19,
2.062,-15.70,-5.10,1.13,0.74,1.45,-1.18,
2.063,-13.66,-5.56,1.59,0.74,1.45,-1.18,
2.063,-13.66,-5.56,1.59,0.80,1.06,-1.18,
2.076,-13.66,-5.56,1.59,0.86,0.67,-1.20,
2.078,-13.66,-5.56,1.59,0.92,0.32,-1.24,
2.082,-10.56,-5.42,1.29,0.92,0.32,-1.24,
2.083,-10.56,-5.42,1.29,0.98,0.01,-1.30,
2.083,-8.30,-5.25,0.72,0.98,0.01,-1.30,
2.083,-8.30,-5.25,0.72,1.03,-0.22,-1.37,
2.083,-6.64,-5.16,0.22,1.03,-0.22,-1.37,
2.084,-6.64,-5.16,0.22,1.10,-0.41,-1.46,
2.084,-6.64,-5.16,0.22,1.16,-0.55,-1.55,
2.084,-6.64,-5.16,0.22,1.21,-0.67,-1.65,
2.084,-5.37,-5.06,-0.21,1.21,-0.67,-1.65,
2.089,-5.37,-5.06,-0.21,1.26,-0.78,-1.75,
2.089,-5.37,-5.06,-0.21,1.30,-0.90,-1.85,
2.089,-4.62,-4.89,-0.61,1.30,-0.90,-1.85,
2.09,-4.62,-4.89,-0.61,1.33,-1.00,-1.95,
2.094,-4.11,-4.82,-0.92,1.33,-1.00,-1.95,
2.094,-4.11,-4.82,-0.92,1.37,-1.09,-2.05,
2.094,-4.11,-4.82,-0.92,1.40,-1.16,-2.15,
2.096,-4.11,-4.82,-0.92,1.43,-1.21,-2.25,
2.096,-3.75,-4.89,-1.03,1.43,-1.21,-2.25,
2.098,-3.75,-4.89,-1.03,1.46,-1.24,-2.35,
2.102,-3.75,-4.89,-1.03,1.50,-1.27,-2.46,
2.102,-3.51,-5.10,-0.90,1.50,-1.27,-2.46,
2.103,-3.51,-5.10,-0.90,1.53,-1.32,-2.57,
2.106,-3.42,-5.30,-0.71,1.53,-1.32,-2.57,
2.106,-3.42,-5.30,-0.71,1.57,-1.37,-2.68,
2.108,-3.42,-5.30,-0.71,1.61,-1.43,-2.79,
2.111,-3.72,-5.44,-0.73,1.61,-1.43,-2.79,
2.111,-3.72,-5.44,-0.73,1.65,-1.50,-2.90,
2.113,-3.72,-5.44,-0.73,1.69,-1.58,-3.01,
2.116,-3.72,-5.44,-0.73,1.73,-1.66,-3.12,
2.117,-4.31,-5.44,-0.88,1.73,-1.66,-3.12,
2.118,-4.31,-5.44,-0.88,1.77,-1.75,-3.22,
2.122,-4.96,-5.23,-1.18,1.77,-1.75,-3.22,
2.122,-4.96,-5.23,-1.18,1.80,-1.83,-3.31,
2.124,-4.96,-5.23,-1.18,1.84,-1.92,-3.40,
2.125,-5.38,-4.92,-1.50,1.84,-1.92,-3.40,
2.125,-5.38,-4.92,-1.50,1.87,-1.99,-3.49,
2.128,-5.38,-4.92,-1.50,1.90,-2.05,-3.56,
2.133,-5.38,-4.92,-1.50,1.93,-2.11,-3.63,
2.133,-5.66,-4.59,-1.67,1.93,-2.11,-3.63,
2.133,-5.66,-4.59,-1.67,1.96,-2.15,-3.69,
2.139,-5.66,-4.59,-1.67,1.99,-2.18,-3.75,
2.139,-5.67,-4.33,-1.82,1.99,-2.18,-3.75,
2.14,-5.67,-4.33,-1.82,2.02,-2.20,-3.81,
2.141,-5.67,-4.33,-1.82,2.04,-2.22,-3.86,
2.141,-5.50,-4.13,-1.94,2.04,-2.22,-3.86,
2.143,-5.50,-4.13,-1.94,2.06,-2.24,-3.91,
2.145,-5.50,-4.13,-1.94,2.07,-2.25,-3.96,
2.146,-5.12,-3.98,-2.14,2.07,-2.25,-3.96,
2.148,-5.12,-3.98,-2.14,2.08,-2.25,-4.01,
2.15,-5.12,-3.98,-2.14,2.08,-2.25,-4.06,
2.15,-4.64,-3.90,-2.27,2.08,-2.25,-4.06,
2.153,-4.64,-3.90,-2.27,2.09,-2.24,-4.11,
2.155,-4.15,-3.79,-2.31,2.09,-2.24,-4.11,
2.156,-4.15,-3.79,-2.31,2.09,-2.23,-4.17,
2.158,-4.15,-3.79,-2.31,2.09,-2.20,-4.22,
2.16,-4.15,-3.79,-2.31,2.09,-2.18,-4.28,
2.161,-3.78,-3.69,-2.17,2.09,-2.18,-4.28,
2.162,-3.78,-3.69,-2.17,2.09,-2.15,-4.34,
2.165,-3.78,-3.69,-2.17,2.09,-2.12,-4.40,
2.165,-3.41,-3.58,-2.04,2.09,-2.12,-4.40,
2.17,-3.41,-3.58,-2.04,2.09,-2.09,-4.46,
2.17,-3.41,-3.58,-2.04,2.09,-2.05,-4.53,
2.171,-3.11,-3.49,-1.93,2.09,-2.05,-4.53,
2.182,-3.11,-3.49,-1.93,2.09,-2.03,-4.60,
2.182,-2.88,-3.36,-1.86,2.09,-2.03,-4.60,
2.182,-2.88,-3.36,-1.86,2.09,-2.01,-4.67,
2.182,-2.88,-3.36,-1.86,2.09,-2.00,-4.74,
2.182,-2.88,-3.36,-1.86,2.09,-1.99,-4.81,
2.182,-2.71,-3.21,-1.92,2.09,-1.99,-4.81,
2.183,-2.71,-3.21,-1.92,2.08,-1.97,-4.88,
2.185,-2.71,-3.21,-1.92,2.08,-1.95,-4.95,
2.185,-2.41,-3.07,-2.04,2.08,-1.95,-4.95,
2.187,-2.41,-3.07,-2.04,2.07,-1.94,-5.02,
2.19,-2.41,-3.07,-2.04,2.06,-1.93,-5.10,
2.19,-2.25,-2.78,-1.78,2.06,-1.93,-5.10,
2.192,-2.25,-2.78,-1.78,2.05,-1.97,-5.16,
2.196,-2.32,-2.57,-1.64,2.05,-1.97,-5.16,
2.196,-2.32,-2.57,-1.64,2.04,-2.02,-5.23,
2.197,-2.32,-2.57,-1.64,2.03,-2.02,-5.30,
2.2,-2.32,-2.57,-1.64,2.02,-1.98,-5.37,
2.2,-1.65,-2.38,-2.08,2.02,-1.98,-5.37,
2.202,-1.65,-2.38,-2.08,2.01,-1.93,-5.44,
2.205,-1.65,-2.38,-2.08,2.00,-1.88,-5.50,
2.206,-1.09,-2.08,-2.08,2.00,-1.88,-5.50,
2.207,-1.09,-2.08,-2.08,1.98,-1.83,-5.57,
2.21,-1.09,-2.08,-2.08,1.97,-1.78,-5.63,
2.21,-0.41,-1.77,-1.99,1.97,-1.78,-5.63,
2.212,-0.41,-1.77,-1.99,1.96,-1.74,-5.70,
2.215,-0.41,-1.77,-1.99,1.95,-1.70,-5.77,
2.217,0.21,-1.48,-1.93,1.95,-1.70,-5.77,
2.217,0.21,-1.48,-1.93,1.94,-1.66,-5.85,
2.22,0.21,-1.48,-1.93,1.93,-1.62,-5.93,
2.221,0.77,-1.12,-1.93,1.93,-1.62,-5.93,
2.222,0.77,-1.12,-1.93,1.92,-1.58,-6.02,
2.225,0.77,-1.12,-1.93,1.91,-1.54,-6.11,
2.226,1.16,-0.73,-1.78,1.91,-1.54,-6.11,
2.227,1.16,-0.73,-1.78,1.91,-1.51,-6.19,
2.229,1.16,-0.73,-1.78,1.92,-1.49,-6.27,
2.23,1.04,-0.34,-1.47,1.92,-1.49,-6.27,
2.232,1.04,-0.34,-1.47,1.93,-1.48,-6.35,
2.236,0.78,0.02,-1.19,1.93,-1.48,-6.35,
2.236,0.78,0.02,-1.19,1.94,-1.48,-6.42,
2.237,0.78,0.02,-1.19,1.95,-1.46,-6.48,
2.24,0.78,0.02,-1.19,1.97,-1.42,-6.54,
2.24,0.86,0.66,-1.34,1.97,-1.42,-6.54,
2.242,0.86,0.66,-1.34,1.99,-1.38,-6.59,
2.245,0.86,0.66,-1.34,2.01,-1.34,-6.63,
2.245,1.02,1.29,-1.24,2.01,-1.34,-6.63,
2.247,1.02,1.29,-1.24,2.03,-1.31,-6.68,
2.249,1.02,1.29,-1.24,2.06,-1.27,-6.72,
2.249,1.28,1.97,-1.17,2.06,-1.27,-6.72,
2.253,1.28,1.97,-1.17,2.09,-1.25,-6.76,
2.255,1.28,1.97,-1.17,2.12,-1.23,-6.80,
2.256,1.45,2.73,-1.00,2.12,-1.23,-6.80,
2.258,1.45,2.73,-1.00,2.16,-1.23,-6.84,
2.259,1.45,2.73,-1.00,2.19,-1.24,-6.87,
2.261,1.61,3.53,-0.90,2.19,-1.24,-6.87,
2.261,1.61,3.53,-0.90,2.23,-1.26,-6.89,
2.265,1.88,4.53,-0.99,2.23,-1.26,-6.89,
2.265,1.88,4.53,-0.99,2.28,-1.27,-6.91,
2.267,1.88,4.53,-0.99,2.32,-1.29,-6.93,
2.27,1.88,4.53,-0.99,2.37,-1.30,-6.93,
2.271,2.13,5.74,-1.16,2.37,-1.30,-6.93,
2.275,2.13,5.74,-1.16,2.42,-1.32,-6.93,
2.276,2.40,6.94,-1.32,2.42,-1.32,-6.93,
2.276,2.40,6.94,-1.32,2.47,-1.34,-6.91,
2.277,2.40,6.94,-1.32,2.52,-1.37,-6.89,
2.28,2.60,8.03,-1.44,2.52,-1.37,-6.89,
2.28,2.60,8.03,-1.44,2.57,-1.40,-6.86,
2.281,2.60,8.03,-1.44,2.61,-1.45,-6.83,
2.289,2.60,8.03,-1.44,2.66,-1.50,-6.78,
2.29,2.78,9.01,-1.40,2.66,-1.50,-6.78,
2.29,2.78,9.01,-1.40,2.70,-1.56,-6.73,
2.29,2.78,9.01,-1.40,2.75,-1.64,-6.67,
2.29,3.05,10.04,-1.09,2.75,-1.64,-6.67,
2.291,3.05,10.04,-1.09,2.79,-1.72,-6.61,
2.295,3.56,11.24,-0.63,2.79,-1.72,-6.61,
2.295,3.56,11.24,-0.63,2.82,-1.80,-6.55,
2.297,3.56,11.24,-0.63,2.85,-1.88,-6.47,
2.299,4.32,12.48,-0.19,2.85,-1.88,-6.47,
2.3,4.32,12.48,-0.19,2.88,-1.95,-6.38,
2.303,4.32,12.48,-0.19,2.91,-2.00,-6.29,
2.307,4.32,12.48,-0.19,2.92,-2.04,-6.19,
2.308,4.32,12.48,-0.19,2.93,-2.06,-6.08,
2.308,5.33,13.51,-0.09,2.93,-2.06,-6.08,
2.309,5.33,13.51,-0.09,2.91,-2.07,-5.97,
2.309,6.26,14.07,-0.57,2.91,-2.07,-5.97,
2.312,6.26,14.07,-0.57,2.87,-2.08,-5.85,
2.314,6.26,14.07,-0.57,2.80,-2.10,-5.71,
2.315,6.57,13.93,-1.51,2.80,-2.10,-5.71,
2.316,6.57,13.93,-1.51,2.71,-2.14,-5.56,
2.319,6.57,13.93,-1.51,2.61,-2.14,-5.44,
2.32,6.70,14.28,-2.92,2.61,-2.14,-5.44,
2.323,6.70,14.28,-2.92,2.44,-2.09,-5.29,
2.324,6.70,14.28,-2.92,2.25,-2.06,-5.08,
2.324,7.83,15.46,-4.18,2.25,-2.06,-5.08,
2.326,7.83,15.46,-4.18,2.02,-2.05,-4.83,
2.329,7.83,15.46,-4.18,1.83,-2.04,-4.56,
2.329,9.25,17.15,-2.48,1.83,-2.04,-4.56,
2.331,9.25,17.15,-2.48,1.70,-2.01,-4.26,
2.334,9.25,17.15,-2.48,1.64,-1.88,-3.92,
2.34,9.55,15.51,1.04,1.64,-1.88,-3.92,
2.341,9.55,15.51,1.04,1.62,-1.67,-3.58,
2.352,9.55,15.51,1.04,1.62,-1.44,-3.25,
2.353,12.38,11.87,3.22,1.62,-1.44,-3.25,
2.353,12.38,11.87,3.22,1.63,-1.23,-2.94,
2.353,12.38,11.87,3.22,1.59,-1.13,-2.63,
2.353,15.93,8.44,4.42,1.59,-1.13,-2.63,
2.353,15.93,8.44,4.42,1.53,-1.20,-2.33,
2.354,18.73,5.72,4.31,1.53,-1.20,-2.33,
2.354,18.73,5.72,4.31,1.44,-1.38,-2.03,
2.354,18.73,5.72,4.31,1.31,-1.49,-1.70,
2.355,18.73,5.72,4.31,1.10,-1.40,-1.35,
2.356,19.62,4.68,-2.22,1.10,-1.40,-1.35,
2.356,19.62,4.68,-2.22,0.86,-1.04,-0.95,
2.36,19.62,4.68,-2.22,0.67,-0.80,-0.52,
2.361,19.62,4.68,-2.22,0.53,-0.82,-0.10,
2.362,20.00,5.46,-1.09,0.53,-0.82,-0.10,
2.363,20.00,5.46,-1.09,0.41,-0.97,0.31,
2.363,19.92,5.82,4.38,0.41,-0.97,0.31,
2.366,19.92,5.82,4.38,0.35,-1.00,0.72,
2.369,18.62,5.23,5.31,0.35,-1.00,0.72,
2.37,18.62,5.23,5.31,0.27,-0.95,1.11,
2.371,18.62,5.23,5.31,0.15,-0.93,1.47,
2.373,18.62,5.23,5.31,-0.01,-0.96,1.81,
2.374,17.00,5.47,4.23,-0.01,-0.96,1.81,
2.376,17.00,5.47,4.23,-0.20,-1.05,2.16,
2.379,17.00,5.47,4.23,-0.35,-1.21,2.52,
2.379,14.87,6.61,4.37,-0.35,-1.21,2.52,
2.381,14.87,6.61,4.37,-0.48,-1.43,2.87,
2.383,14.87,6.61,4.37,-0.62,-1.70,3.19,
2.383,14.18,7.64,4.67,-0.62,-1.70,3.19,
2.39,14.18,7.64,4.67,-0.77,-2.00,3.48,
2.39,14.18,7.64,4.67,-0.95,-2.30,3.76,
2.391,13.89,8.68,4.92,-0.95,-2.30,3.76,
2.394,13.89,8.68,4.92,-1.09,-2.57,4.05,
2.394,13.89,8.68,4.92,-1.18,-2.76,4.31,
2.394,14.07,9.36,5.34,-1.18,-2.76,4.31,
2.397,14.07,9.36,5.34,-1.23,-2.81,4.42,
2.398,14.07,9.36,5.34,-1.31,-2.68,4.33,
2.398,13.52,9.56,1.97,-1.31,-2.68,4.33,
2.401,13.52,9.56,1.97,-1.42,-2.35,4.01,
2.404,9.27,9.89,-1.98,-1.42,-2.35,4.01,
2.404,9.27,9.89,-1.98,-1.55,-1.83,3.49,
2.409,-1.54,12.25,2.93,-1.55,-1.83,3.49,
2.413,-1.54,12.25,2.93,-1.62,-1.11,2.84,
2.413,-1.54,12.25,2.93,-1.55,-0.17,2.25,
2.414,-1.54,12.25,2.93,-1.41,0.86,1.87,
2.414,-1.54,12.25,2.93,-1.13,1.69,1.86,
2.414,-12.12,17.26,11.72,-1.13,1.69,1.86,
2.415,-12.12,17.26,11.72,-0.53,2.01,2.22,
2.419,-12.12,17.26,11.72,0.10,1.65,2.84,
2.419,-15.27,18.48,13.30,0.10,1.65,2.84,
2.42,-15.27,18.48,13.30,0.75,0.60,3.62,
2.423,-15.27,18.48,13.30,1.06,-0.94,4.52,
2.424,-13.73,18.70,5.03,1.06,-0.94,4.52,
2.425,-13.73,18.70,5.03,0.90,-2.65,5.45,
2.428,-13.73,18.70,5.03,0.45,-4.20,6.28,
2.429,-7.51,19.22,-4.49,0.45,-4.20,6.28,
2.43,-7.51,19.22,-4.49,0.00,-5.39,6.90,
2.433,-7.51,19.22,-4.49,-0.32,-6.12,7.25,
2.433,1.35,16.19,-6.43,-0.32,-6.12,7.25,
2.435,1.35,16.19,-6.43,-0.45,-6.35,7.33,
2.438,1.35,16.19,-6.43,-0.40,-6.15,7.13,
2.439,10.05,8.53,-4.46,-0.40,-6.15,7.13,
2.44,10.05,8.53,-4.46,-0.27,-5.71,6.68,
2.443,10.05,8.53,-4.46,-0.18,-5.15,6.03,
2.443,16.82,-2.72,-1.94,-0.18,-5.15,6.03,
2.446,16.82,-2.72,-1.94,-0.06,-4.59,5.28,
2.448,16.82,-2.72,-1.94,0.22,-4.14,4.54,
2.448,16.64,-10.73,2.97,0.22,-4.14,4.54,
2.45,16.64,-10.73,2.97,0.49,-3.78,3.93,
2.453,11.92,-15.03,0.36,0.49,-3.78,3.93,
2.454,11.92,-15.03,0.36,0.66,-3.52,3.51,
2.455,11.92,-15.03,0.36,0.79,-3.33,3.31,
2.458,11.92,-15.03,0.36,0.73,-3.13,3.33,
2.458,7.74,-16.78,-8.34,0.73,-3.13,3.33,
2.46,7.74,-16.78,-8.34,0.47,-2.87,3.52,
2.462,7.74,-16.78,-8.34,0.10,-2.52,3.81,
2.463,7.12,-16.42,-14.15,0.10,-2.52,3.81,
2.465,7.12,-16.42,-14.15,-0.32,-2.09,4.12,
2.47,7.12,-16.42,-14.15,-0.76,-1.60,4.36,
2.48,10.35,-14.69,-11.40,-0.76,-1.60,4.36,
2.481,10.35,-14.69,-11.40,-1.15,-1.14,4.42,
2.481,10.35,-14.69,-11.40,-1.39,-0.73,4.26,
2.481,16.10,-10.35,-0.99,-1.39,-0.73,4.26,
2.481,16.10,-10.35,-0.99,-1.42,-0.31,3.91,
2.481,16.10,-10.35,-0.99,-1.28,0.14,3.45,
2.481,20.68,-4.23,9.60,-1.28,0.14,3.45,
2.482,20.68,-4.23,9.60,-0.99,0.60,2.95,
2.482,20.68,-4.23,9.60,-0.62,1.06,2.50,
2.483,21.90,1.45,14.85,-0.62,1.06,2.50,
2.487,21.90,1.45,14.85,-0.23,1.42,2.13,
2.488,21.90,1.45,14.85,0.10,1.69,1.86,
2.488,19.85,4.78,11.07,0.10,1.69,1.86,
2.489,19.85,4.78,11.07,0.35,1.87,1.66,
2.492,19.85,4.78,11.07,0.49,2.01,1.48,
2.493,17.32,6.11,4.24,0.49,2.01,1.48,
2.495,17.32,6.11,4.24,0.52,2.11,1.30,
2.497,17.32,6.11,4.24,0.48,2.19,1.10,
2.498,13.07,5.69,-0.18,0.48,2.19,1.10,
2.5,13.07,5.69,-0.18,0.42,2.22,0.93,
2.502,7.18,3.86,0.20,0.42,2.22,0.93,
2.514,7.18,3.86,0.20,0.36,2.10,0.79,
2.514,7.18,3.86,0.20,0.32,1.88,0.71,
2.514,7.18,3.86,0.20,0.34,1.69,0.68,
2.514,1.28,1.72,3.65,0.34,1.69,0.68,
2.514,1.28,1.72,3.65,0.42,1.59,0.70,
2.514,1.28,1.72,3.65,0.52,1.56,0.76,
2.515,-3.76,-0.02,5.58,0.52,1.56,0.76,
2.515,-3.76,-0.02,5.58,0.62,1.54,0.86,
2.517,-3.76,-0.02,5.58,0.70,1.55,0.99,
2.517,-6.62,-2.09,3.88,0.70,1.55,0.99,
2.522,-6.62,-2.09,3.88,0.73,1.58,1.11,
2.522,-6.62,-2.09,3.88,0.71,1.58,1.22,
2.522,-7.03,-3.55,0.69,0.71,1.58,1.22,
2.524,-7.03,-3.55,0.69,0.65,1.51,1.31,
2.527,-6.94,-3.73,-0.95,0.65,1.51,1.31,
2.527,-6.94,-3.73,-0.95,0.56,1.32,1.38,
2.529,-6.94,-3.73,-0.95,0.45,1.00,1.43,
2.532,-6.94,-3.73,-0.95,0.34,0.55,1.47,
2.533,-6.59,-2.80,-0.27,0.34,0.55,1.47,
2.535,-6.59,-2.80,-0.27,0.24,0.03,1.51,
2.539,-4.87,-1.38,1.21,0.24,0.03,1.51,
2.539,-4.87,-1.38,1.21,0.18,-0.47,1.52,
2.541,-4.87,-1.38,1.21,0.15,-0.89,1.53,
2.542,-4.87,-1.38,1.21,0.14,-1.20,1.54,
2.542,-2.58,-0.36,1.76,0.14,-1.20,1.54,
2.544,-2.58,-0.36,1.76,0.15,-1.38,1.55,
2.547,-0.42,0.01,1.02,0.15,-1.38,1.55,
2.547,-0.42,0.01,1.02,0.16,-1.47,1.56,
2.549,-0.42,0.01,1.02,0.17,-1.48,1.57,
2.555,1.50,0.06,-0.40,0.17,-1.48,1.57,
2.555,1.50,0.06,-0.40,0.18,-1.43,1.57,
2.555,1.50,0.06,-0.40,0.19,-1.35,1.56,
2.557,3.01,0.24,-1.49,0.19,-1.35,1.56,
2.557,3.01,0.24,-1.49,0.20,-1.25,1.54,
2.559,3.01,0.24,-1.49,0.20,-1.17,1.50,
2.562,3.01,0.24,-1.49,0.20,-1.06,1.45,
2.562,4.43,0.28,-2.67,0.20,-1.06,1.45,
2.564,4.43,0.28,-2.67,0.20,-0.87,1.37,
2.567,4.43,0.28,-2.67,0.19,-0.65,1.27,
2.567,5.67,0.25,-3.69,0.19,-0.65,1.27,
2.57,5.67,0.25,-3.69,0.18,-0.43,1.16,
2.572,6.68,0.24,-3.58,0.18,-0.43,1.16,
2.572,6.68,0.24,-3.58,0.17,-0.22,1.04,
2.574,6.68,0.24,-3.58,0.16,-0.01,0.91,
2.579,7.25,0.24,-3.27,0.16,-0.01,0.91,
2.579,7.25,0.24,-3.27,0.14,0.18,0.79,
2.579,7.25,0.24,-3.27,0.13,0.37,0.68,
2.582,7.25,0.24,-3.27,0.13,0.54,0.56,
2.582,7.08,0.18,-2.70,0.13,0.54,0.56,
2.584,7.08,0.18,-2.70,0.12,0.71,0.46,
2.587,6.00,0.02,-2.10,0.12,0.71,0.46,
2.588,6.00,0.02,-2.10,0.12,0.86,0.37,
2.589,6.00,0.02,-2.10,0.13,1.01,0.29,
2.592,6.00,0.02,-2.10,0.13,1.16,0.22,
2.592,4.50,-0.15,-1.63,0.13,1.16,0.22,
2.594,4.50,-0.15,-1.63,0.14,1.30,0.16,
2.596,4.50,-0.15,-1.63,0.14,1.40,0.11,
2.597,2.83,-0.27,-0.97,0.14,1.40,0.11,
2.599,2.83,-0.27,-0.97,0.15,1.49,0.08,
2.602,2.83,-0.27,-0.97,0.16,1.54,0.05,
2.603,1.02,-0.24,-0.33,0.16,1.54,0.05,
2.606,1.02,-0.24,-0.33,0.17,1.56,0.05,
2.607,-0.88,-0.08,0.02,0.17,1.56,0.05,
2.609,-0.88,-0.08,0.02,0.17,1.56,0.06,
2.61,-0.88,-0.08,0.02,0.16,1.55,0.09,
2.612,-0.88,-0.08,0.02,0.16,1.52,0.13,
2.612,-2.68,0.08,0.16,0.16,1.52,0.13,
2.614,-2.68,0.08,0.16,0.15,1.47,0.18,
2.616,-2.68,0.08,0.16,0.14,1.39,0.25,
2.616,-4.18,0.20,0.55,0.14,1.39,0.25,
2.621,-4.18,0.20,0.55,0.13,1.29,0.33,
2.621,-4.18,0.20,0.55,0.12,1.16,0.41,
2.621,-5.25,0.23,0.91,0.12,1.16,0.41,
2.623,-5.25,0.23,0.91,0.11,1.01,0.49,
2.626,-5.25,0.23,0.91,0.09,0.84,0.57,
2.627,-5.68,0.26,1.10,0.09,0.84,0.57,
2.629,-5.68,0.26,1.10,0.07,0.66,0.65,
2.631,-5.68,0.26,1.10,0.06,0.47,0.72,
2.632,-5.54,0.37,1.12,0.06,0.47,0.72,
2.634,-5.54,0.37,1.12,0.04,0.30,0.78,
2.637,-4.56,0.45,0.86,0.04,0.30,0.78,
2.637,-4.56,0.45,0.86,0.03,0.14,0.84,
2.638,-4.56,0.45,0.86,0.02,0.00,0.88,
2.641,-4.56,0.45,0.86,0.01,-0.10,0.92,
2.641,-3.23,0.48,0.44,0.01,-0.10,0.92,
2.643,-3.23,0.48,0.44,0.00,-0.18,0.96,
2.646,-3.23,0.48,0.44,-0.00,-0.23,0.99,
2.646,-1.82,0.51,0.11,-0.00,-0.23,0.99,
2.648,-1.82,0.51,0.11,-0.00,-0.25,1.01,
2.651,-1.82,0.51,0.11,-0.00,-0.24,1.02,
2.651,-0.42,0.45,-0.08,-0.00,-0.24,1.02,
2.654,-0.42,0.45,-0.08,0.00,-0.22,1.02,
2.656,-0.42,0.45,-0.08,0.01,-0.17,1.01,
2.656,0.79,0.33,-0.27,0.01,-0.17,1.01,
2.658,0.79,0.33,-0.27,0.01,-0.11,1.00,
2.661,0.79,0.33,-0.27,0.02,-0.03,0.97,
2.661,1.76,0.22,-0.43,0.02,-0.03,0.97,
2.663,1.76,0.22,-0.43,0.02,0.06,0.94,
2.666,2.33,0.12,-0.52,0.02,0.06,0.94,
2.671,2.33,0.12,-0.52,0.03,0.15,0.91,
2.681,2.33,0.12,-0.52,0.03,0.24,0.87,
2.682,2.44,0.01,-0.57,0.03,0.24,0.87,
2.682,2.44,0.01,-0.57,0.04,0.34,0.84,
2.682,2.44,0.01,-0.57,0.04,0.43,0.81,
2.682,1.95,-0.07,-0.54,0.04,0.43,0.81,
2.682,1.95,-0.07,-0.54,0.05,0.53,0.78,
2.683,1.95,-0.07,-0.54,0.05,0.61,0.76,
2.683,1.00,-0.06,-0.45,0.05,0.61,0.76,
2.683,1.00,-0.06,-0.45,0.05,0.67,0.75,
2.683,1.00,-0.06,-0.45,0.06,0.73,0.74,
2.711,-0.07,0.05,-0.42,0.06,0.73,0.74,
2.711,-0.07,0.05,-0.42,0.05,0.76,0.74,
2.712,-0.07,0.05,-0.42,0.05,0.78,0.75,
2.714,-0.07,0.05,-0.42,0.05,0.79,0.77,
2.715,-1.11,0.27,-0.48,0.05,0.79,0.77,
2.715,-1.11,0.27,-0.48,0.03,0.79,0.79,
2.715,-2.41,0.88,-1.22,0.03,0.79,0.79,
2.715,-2.41,0.88,-1.22,0.01,0.84,0.82,
2.716,-2.41,0.88,-1.22,-0.00,0.90,0.88,
2.716,-2.84,1.21,-0.27,-0.00,0.90,0.88,
2.716,-2.84,1.21,-0.27,-0.01,0.89,0.93,
2.716,-2.84,1.21,-0.27,-0.01,0.80,0.97,
2.717,-2.84,1.21,-0.27,-0.01,0.67,1.00,
2.717,-2.30,0.75,0.71,-0.01,0.67,1.00,
2.717,-2.30,0.75,0.71,-0.01,0.54,1.02,
2.717,-1.85,0.44,-0.06,-0.01,0.54,1.02,
2.718,-1.85,0.44,-0.06,-0.02,0.45,1.04,
2.718,-1.85,0.44,-0.06,-0.04,0.40,1.06,
2.718,-1.58,0.65,-0.80,-0.04,0.40,1.06,
2.718,-1.58,0.65,-0.80,-0.07,0.38,1.08,
2.719,-1.58,0.65,-0.80,-0.10,0.39,1.09,
2.722,-1.36,1.04,-0.31,-0.10,0.39,1.09,
2.723,-1.36,1.04,-0.31,-0.12,0.40,1.11,
2.723,-1.36,1.04,-0.31,-0.13,0.40,1.13,
2.725,-1.36,1.04,-0.31,-0.13,0.41,1.15,
2.726,-1.18,1.19,-0.09,-0.13,0.41,1.15,
2.728,-1.18,1.19,-0.09,-0.13,0.42,1.17,
2.73,-1.18,1.19,-0.09,-0.14,0.45,1.19,
2.731,-0.77,1.14,-0.49,-0.14,0.45,1.19,
2.733,-0.77,1.14,-0.49,-0.14,0.46,1.21,
2.736,-0.77,1.14,-0.49,-0.16,0.48,1.21,
2.737,-0.33,0.93,-0.65,-0.16,0.48,1.21,
2.739,-0.33,0.93,-0.65,-0.17,0.49,1.22,
2.74,-0.33,0.93,-0.65,-0.18,0.47,1.22,
2.74,-0.23,0.89,-0.70,-0.18,0.47,1.22,
2.744,-0.23,0.89,-0.70,-0.20,0.43,1.22,
2.745,-0.23,0.89,-0.70,-0.22,0.36,1.22,
2.745,-0.60,1.18,-1.04,-0.22,0.36,1.22,
2.747,-0.60,1.18,-1.04,-0.25,0.30,1.23,
2.75,-0.60,1.18,-1.04,-0.27,0.27,1.24,
2.75,-0.88,1.27,-0.73,-0.27,0.27,1.24,
2.754,-0.88,1.27,-0.73,-0.27,0.30,1.25,
2.755,-0.87,1.05,0.03,-0.27,0.30,1.25,
2.756,-0.87,1.05,0.03,-0.26,0.37,1.26,
2.758,-0.87,1.05,0.03,-0.25,0.46,1.27,
2.76,-0.87,1.05,0.03,-0.24,0.57,1.28,
2.76,-0.57,0.71,0.38,-0.24,0.57,1.28,
2.762,-0.57,0.71,0.38,-0.22,0.68,1.29,
2.765,-0.57,0.71,0.38,-0.22,0.77,1.29,
2.765,-0.19,0.69,-0.19,-0.22,0.77,1.29,
2.767,-0.19,0.69,-0.19,-0.22,0.82,1.30,
2.771,-0.19,0.69,-0.19,-0.24,0.85,1.31,
2.771,-0.16,1.00,-0.65,-0.24,0.85,1.31,
2.779,-0.16,1.00,-0.65,-0.26,0.85,1.31,
2.78,-0.16,1.00,-0.65,-0.27,0.85,1.31,
2.78,-0.38,1.37,-0.32,-0.27,0.85,1.31,
2.78,-0.38,1.37,-0.32,-0.28,0.84,1.31,
2.78,-1.19,1.70,0.14,-0.28,0.84,1.31,
2.78,-1.19,1.70,0.14,-0.28,0.81,1.32,
2.782,-1.19,1.70,0.14,-0.28,0.79,1.34,
2.786,-2.18,1.63,-0.41,-0.28,0.79,1.34,
2.787,-2.18,1.63,-0.41,-0.30,0.77,1.36,
2.788,-2.18,1.63,-0.41,-0.31,0.75,1.39,
2.79,-2.18,1.63,-0.41,-0.33,0.71,1.42,
2.79,-2.82,1.67,-0.68,-0.33,0.71,1.42,
2.792,-2.82,1.67,-0.68,-0.36,0.67,1.45,
2.795,-2.82,1.67,-0.68,-0.37,0.62,1.49,
2.795,-3.19,1.89,-0.32,-0.37,0.62,1.49,
2.797,-3.19,1.89,-0.32,-0.38,0.57,1.52,
2.8,-3.19,1.89,-0.32,-0.40,0.52,1.56,
2.8,-2.98,1.89,-0.19,-0.40,0.52,1.56,
2.805,-2.55,1.80,-0.17,-0.40,0.52,1.56,
2.806,-2.55,1.80,-0.17,-0.42,0.49,1.59,
2.806,-2.55,1.80,-0.17,-0.43,0.47,1.62,
2.81,-2.55,1.80,-0.17,-0.45,0.44,1.64,
2.81,-2.55,1.80,-0.17,-0.47,0.38,1.67,
2.81,-2.32,1.65,0.27,-0.47,0.38,1.67,
2.812,-2.32,1.65,0.27,-0.49,0.33,1.69,
2.815,-2.32,1.65,0.27,-0.52,0.29,1.69,
2.815,-1.59,2.19,0.23,-0.52,0.29,1.69,
2.817,-1.59,2.19,0.23,-0.55,0.30,1.71,
2.822,-1.50,3.26,0.19,-0.55,0.30,1.71,
2.823,-1.50,3.26,0.19,-0.56,0.35,1.73,
2.823,-1.50,3.26,0.19,-0.56,0.41,1.76,
2.825,-1.62,2.98,1.34,-0.56,0.41,1.76,
2.825,-1.62,2.98,1.34,-0.55,0.45,1.78,
2.827,-1.62,2.98,1.34,-0.55,0.43,1.79,
2.83,-2.19,2.17,1.40,-0.55,0.43,1.79,
2.83,-2.19,2.17,1.40,-0.56,0.37,1.81,
2.832,-2.19,2.17,1.40,-0.59,0.34,1.81,
2.846,-2.30,2.36,0.17,-0.59,0.34,1.81,
2.846,-2.30,2.36,0.17,-0.63,0.34,1.82,
2.846,-2.30,2.36,0.17,-0.65,0.33,1.83,
2.846,-3.23,2.74,1.32,-0.65,0.33,1.83,
2.846,-3.23,2.74,1.32,-0.67,0.29,1.86,
2.847,-3.23,2.74,1.32,-0.68,0.26,1.90,
2.847,-3.68,2.99,0.97,-0.68,0.26,1.90,
2.847,-3.68,2.99,0.97,-0.69,0.25,1.94,
2.847,-3.68,2.99,0.97,-0.71,0.25,1.98,
2.85,-3.68,2.99,0.97,-0.73,0.24,2.02,
2.851,-3.80,2.98,0.14,-0.73,0.24,2.02,
2.853,-3.80,2.98,0.14,-0.77,0.23,2.05,
2.855,-3.51,3.15,-0.36,-0.77,0.23,2.05,
2.856,-3.51,3.15,-0.36,-0.81,0.22,2.07,
2.857,-3.51,3.15,-0.36,-0.84,0.19,2.09,
2.859,-3.56,3.50,0.06,-0.84,0.19,2.09,
2.86,-3.56,3.50,0.06,-0.86,0.15,2.11,
2.862,-3.56,3.50,0.06,-0.88,0.13,2.14,
2.864,-3.56,3.50,0.06,-0.90,0.11,2.18,
2.864,-4.10,3.81,-0.31,-0.90,0.11,2.18,
2.866,-4.10,3.81,-0.31,-0.92,0.09,2.22,
2.873,-4.10,3.81,-0.31,-0.95,0.07,2.26,
2.873,-4.18,3.74,-0.95,-0.95,0.07,2.26,
2.873,-4.18,3.74,-0.95,-0.98,0.06,2.29,
2.88,-4.18,3.74,-0.95,-1.01,0.07,2.32,
2.88,-4.33,3.93,-1.16,-1.01,0.07,2.32,
2.88,-4.33,3.93,-1.16,-1.03,0.08,2.35,
2.881,-4.50,4.15,-0.83,-1.03,0.08,2.35,
2.881,-4.50,4.15,-0.83,-1.05,0.08,2.39,
2.881,-4.50,4.15,-0.83,-1.08,0.07,2.42,
2.884,-4.58,4.16,-1.45,-1.08,0.07,2.42,
2.885,-4.58,4.16,-1.45,-1.11,0.08,2.45,
2.892,-4.58,4.16,-1.45,-1.14,0.12,2.49,
2.893,-4.58,4.16,-1.45,-1.17,0.18,2.52,
2.893,-4.83,4.38,-2.04,-1.17,0.18,2.52,
2.893,-4.83,4.38,-2.04,-1.19,0.22,2.56,
2.894,-5.22,4.67,-2.00,-1.19,0.22,2.56,
2.894,-5.22,4.67,-2.00,-1.22,0.24,2.61,
2.896,-5.22,4.67,-2.00,-1.24,0.29,2.66,
2.899,-5.22,4.67,-2.00,-1.26,0.38,2.71,
2.899,-5.66,5.04,-3.02,-1.26,0.38,2.71,
2.901,-5.66,5.04,-3.02,-1.27,0.47,2.76,
2.904,-5.81,5.21,-3.66,-1.27,0.47,2.76,
2.904,-5.81,5.21,-3.66,-1.29,0.56,2.81,
2.906,-5.81,5.21,-3.66,-1.32,0.66,2.84,
2.91,-5.85,5.67,-4.90,-1.32,0.66,2.84,
2.91,-5.85,5.67,-4.90,-1.35,0.77,2.88,
2.911,-5.85,5.67,-4.90,-1.39,0.88,2.91,
2.914,-5.85,5.67,-4.90,-1.43,0.96,2.93,
2.914,-6.11,6.27,-4.84,-1.43,0.96,2.93,
2.916,-6.11,6.27,-4.84,-1.47,1.02,2.94,
2.92,-6.38,6.94,-5.61,-1.47,1.02,2.94,
2.92,-6.38,6.94,-5.61,-1.52,1.09,2.95,
2.922,-6.38,6.94,-5.61,-1.57,1.18,2.95,
2.924,-6.38,6.94,-5.61,-1.63,1.27,2.94,
2.924,-6.68,7.97,-6.62,-1.63,1.27,2.94,
2.926,-6.68,7.97,-6.62,-1.69,1.36,2.95,
2.929,-6.68,7.97,-6.62,-1.75,1.45,2.95,
2.929,-7.46,9.70,-7.01,-1.75,1.45,2.95,
2.931,-7.46,9.70,-7.01,-1.80,1.57,2.96,
2.933,-7.46,9.70,-7.01,-1.84,1.70,2.98,
2.934,-8.80,11.69,-7.12,-1.84,1.70,2.98,
2.938,-8.80,11.69,-7.12,-1.88,1.86,3.01,
2.939,-8.80,11.69,-7.12,-1.91,2.02,3.04,
2.939,-10.38,13.66,-6.94,-1.91,2.02,3.04,
2.941,-10.38,13.66,-6.94,-1.92,2.19,3.07,
2.944,-10.38,13.66,-6.94,-1.94,2.35,3.09,
2.944,-11.25,14.77,-6.80,-1.94,2.35,3.09,
2.947,-11.25,14.77,-6.80,-1.94,2.49,3.10,
2.949,-11.70,14.49,-7.88,-1.94,2.49,3.10,
2.949,-11.70,14.49,-7.88,-1.94,2.60,3.10,
2.951,-11.70,14.49,-7.88,-1.94,2.65,3.10,
2.956,-11.70,14.49,-7.88,-1.97,2.64,3.12,
2.956,-12.64,14.00,-9.39,-1.97,2.64,3.12,
2.956,-12.64,14.00,-9.39,-2.01,2.59,3.17,
2.958,-12.64,14.00,-9.39,-2.05,2.48,3.26,
2.958,-14.24,14.10,-9.11,-2.05,2.48,3.26,
2.961,-14.24,14.10,-9.11,-2.08,2.29,3.39,
2.963,-14.24,14.10,-9.11,-2.12,2.06,3.55,
2.963,-15.44,15.40,-8.20,-2.12,2.06,3.55,
2.966,-15.44,15.40,-8.20,-2.13,1.79,3.76,
2.969,-16.17,17.01,-7.38,-2.13,1.79,3.76,
2.972,-16.17,17.01,-7.38,-2.12,1.52,3.99,
2.98,-16.17,17.01,-7.38,-2.09,1.28,4.24,
2.98,-16.17,17.01,-7.38,-2.04,1.05,4.50,
2.981,-15.59,17.88,-7.63,-2.04,1.05,4.50,
2.981,-15.59,17.88,-7.63,-1.99,0.86,4.73,
2.981,-15.59,17.88,-7.63,-1.95,0.69,4.91,
2.981,-12.15,16.93,-8.91,-1.95,0.69,4.91,
2.981,-12.15,16.93,-8.91,-1.92,0.54,5.03,
2.983,-12.15,16.93,-8.91,-1.95,0.42,5.13,
2.983,-9.17,14.79,-10.17,-1.95,0.42,5.13,
2.985,-9.17,14.79,-10.17,-1.98,0.32,5.21,
2.992,-6.88,12.74,-9.27,-1.98,0.32,5.21,
2.992,-6.88,12.74,-9.27,-2.02,0.23,5.28,
2.992,-6.88,12.74,-9.27,-2.05,0.16,5.33,
2.993,-6.88,12.74,-9.27,-2.05,0.10,5.34,
2.993,-4.24,10.64,-7.57,-2.05,0.10,5.34,
2.997,-4.24,10.64,-7.57,-2.03,0.07,5.32,
2.998,-4.24,10.64,-7.57,-2.00,0.07,5.23,
3.009,-1.19,8.71,-6.19,-2.00,0.07,5.23,
3.009,-1.19,8.71,-6.19,-1.94,0.14,5.10,
3.01,-1.19,8.71,-6.19,-1.85,0.28,4.93,
3.01,0.94,7.70,-5.13,-1.85,0.28,4.93,
3.01,0.94,7.70,-5.13,-1.75,0.47,4.75,
3.01,1.54,7.82,-4.37,-1.75,0.47,4.75,
3.01,1.54,7.82,-4.37,-1.63,0.68,4.55,
3.011,1.54,7.82,-4.37,-1.51,0.92,4.34,
3.013,1.54,7.82,-4.37,-1.39,1.17,4.11,
3.013,1.56,7.59,-3.80,-1.39,1.17,4.11,
3.015,1.56,7.59,-3.80,-1.25,1.42,3.86,
3.018,1.56,7.59,-3.80,-1.11,1.64,3.61,
3.018,1.43,6.75,-3.31,-1.11,1.64,3.61,
3.021,1.43,6.75,-3.31,-0.97,1.80,3.36,
3.023,1.43,6.75,-3.31,-0.84,1.91,3.14,
3.023,0.27,5.58,-3.69,-0.84,1.91,3.14,
3.025,0.27,5.58,-3.69,-0.74,1.99,2.92,
3.028,0.27,5.58,-3.69,-0.69,2.07,2.71,
3.028,-1.69,4.40,-4.37,-0.69,2.07,2.71,
3.03,-1.69,4.40,-4.37,-0.63,2.16,2.54,
3.033,-1.69,4.40,-4.37,-0.52,2.27,2.44,
3.034,-3.92,2.38,-3.84,-0.52,2.27,2.44,
3.036,-3.92,2.38,-3.84,-0.40,2.40,2.42,
3.039,-4.27,-0.38,-2.84,-0.40,2.40,2.42,
3.039,-4.27,-0.38,-2.84,-0.36,2.52,2.46,
3.04,-4.27,-0.38,-2.84,-0.35,2.62,2.54,
3.043,-4.27,-0.38,-2.84,-0.32,2.67,2.61,
3.043,-2.60,-2.55,-1.45,-0.32,2.67,2.61,
3.045,-2.60,-2.55,-1.45,-0.27,2.68,2.64,
3.048,-0.06,-3.67,-2.21,-0.27,2.68,2.64,
3.048,-0.06,-3.67,-2.21,-0.22,2.67,2.58,
3.05,-0.06,-3.67,-2.21,-0.17,2.67,2.41,
3.054,2.15,-3.96,-4.12,-0.17,2.67,2.41,
3.054,2.15,-3.96,-4.12,-0.15,2.68,2.14,
3.056,2.15,-3.96,-4.12,-0.16,2.70,1.78,
3.057,2.15,-3.96,-4.12,-0.18,2.72,1.35,
3.057,3.26,-4.12,-5.36,-0.18,2.72,1.35,
3.06,3.26,-4.12,-5.36,-0.21,2.75,0.89,
3.062,3.26,-4.12,-5.36,-0.23,2.80,0.44,
3.063,1.89,-3.85,-5.07,-0.23,2.80,0.44,
3.065,1.89,-3.85,-5.07,-0.24,2.85,0.06,
3.068,1.89,-3.85,-5.07,-0.23,2.91,-0.25,
3.068,-1.91,-2.83,-3.67,-0.23,2.91,-0.25,
3.072,-1.91,-2.83,-3.67,-0.21,2.95,-0.49,
3.073,-1.91,-2.83,-3.67,-0.16,2.98,-0.69,
3.073,-5.00,-2.74,-1.92,-0.16,2.98,-0.69,
3.08,-5.00,-2.74,-1.92,-0.12,2.99,-0.84,
3.081,-5.00,-2.74,-1.92,-0.07,2.98,-0.96,
3.081,-7.78,-3.23,-1.06,-0.07,2.98,-0.96,
3.081,-7.78,-3.23,-1.06,-0.02,2.96,-1.05,
3.084,-7.78,-3.23,-1.06,0.03,2.94,-1.11,
3.085,-10.11,-4.09,-0.78,0.03,2.94,-1.11,
3.085,-10.11,-4.09,-0.78,0.07,2.91,-1.15,
3.097,-11.98,-5.01,-0.27,0.07,2.91,-1.15,
3.098,-11.98,-5.01,-0.27,0.13,2.88,-1.17,
3.098,-11.98,-5.01,-0.27,0.19,2.84,-1.18,
3.098,-11.98,-5.01,-0.27,0.25,2.77,-1.17,
3.099,-13.13,-5.79,0.49,0.25,2.77,-1.17,
3.099,-13.13,-5.79,0.49,0.33,2.66,-1.16,
3.099,-13.13,-5.79,0.49,0.41,2.50,-1.14,
3.099,-13.23,-6.36,1.20,0.41,2.50,-1.14,
3.1,-13.23,-6.36,1.20,0.49,2.28,-1.13,
3.102,-13.23,-6.36,1.20,0.57,2.01,-1.14,
3.102,-12.11,-6.81,1.61,0.57,2.01,-1.14,
3.105,-12.11,-6.81,1.61,0.64,1.68,-1.16,
3.109,-12.11,-6.81,1.61,0.72,1.32,-1.19,
3.11,-10.47,-7.00,1.60,0.72,1.32,-1.19,
3.11,-10.47,-7.00,1.60,0.80,0.94,-1.24,
3.112,-10.47,-7.00,1.60,0.87,0.59,-1.30,
3.112,-9.15,-6.99,1.05,0.87,0.59,-1.30,
3.115,-9.15,-6.99,1.05,0.95,0.27,-1.37,
3.118,-9.15,-6.99,1.05,1.02,-0.00,-1.44,
3.118,-8.06,-6.91,0.25,1.02,-0.00,-1.44,
3.12,-8.06,-6.91,0.25,1.09,-0.24,-1.51,
3.124,-8.06,-6.91,0.25,1.16,-0.45,-1.58,
3.125,-7.17,-6.64,-0.35,1.16,-0.45,-1.58,
3.126,-7.17,-6.64,-0.35,1.22,-0.62,-1.66,
3.127,-7.17,-6.64,-0.35,1.28,-0.77,-1.74,
3.127,-6.45,-6.22,-0.78,1.28,-0.77,-1.74,
3.129,-6.45,-6.22,-0.78,1.33,-0.89,-1.83,
3.132,-6.45,-6.22,-0.78,1.39,-0.99,-1.91,
3.132,-6.13,-5.81,-0.93,1.39,-0.99,-1.91,
3.134,-6.13,-5.81,-0.93,1.44,-1.06,-2.00,
3.138,-6.13,-5.81,-0.93,1.49,-1.12,-2.10,
3.138,-5.87,-5.76,-0.78,1.49,-1.12,-2.10,
3.14,-5.87,-5.76,-0.78,1.55,-1.17,-2.19,
3.142,-5.87,-5.76,-0.78,1.60,-1.21,-2.30,
3.142,-5.71,-5.95,-0.47,1.60,-1.21,-2.30,
3.144,-5.71,-5.95,-0.47,1.65,-1.26,-2.40,
3.147,-5.71,-5.95,-0.47,1.70,-1.32,-2.51,
3.147,-5.59,-6.10,-0.11,1.70,-1.32,-2.51,
3.149,-5.59,-6.10,-0.11,1.75,-1.39,-2.62,
3.152,-5.59,-6.10,-0.11,1.80,-1.46,-2.72,
3.152,-5.59,-6.22,0.09,1.80,-1.46,-2.72,
3.155,-5.59,-6.22,0.09,1.85,-1.52,-2.82,
3.157,-5.59,-6.22,0.09,1.90,-1.58,-2.93,
3.157,-5.68,-6.30,0.17,1.90,-1.58,-2.93,
3.159,-5.68,-6.30,0.17,1.95,-1.63,-3.02,
3.162,-5.68,-6.30,0.17,2.01,-1.67,-3.12,
3.162,-5.79,-6.35,0.12,2.01,-1.67,-3.12,
3.179,-5.79,-6.35,0.12,2.05,-1.72,-3.21,
3.179,-5.79,-6.35,0.12,2.10,-1.77,-3.31,
3.18,-5.85,-6.31,-0.07,2.10,-1.77,-3.31,
3.18,-5.85,-6.31,-0.07,2.14,-1.83,-3.40,
3.18,-5.91,-6.23,-0.23,2.14,-1.83,-3.40,
3.18,-5.91,-6.23,-0.23,2.18,-1.87,-3.49,
3.181,-5.91,-6.23,-0.23,2.22,-1.91,-3.58,
3.181,-5.91,-6.23,-0.23,2.26,-1.93,-3.68,
3.181,-5.90,-6.05,-0.36,2.26,-1.93,-3.68,
3.181,-5.90,-6.05,-0.36,2.31,-1.95,-3.76,
3.182,-5.90,-6.05,-0.36,2.34,-1.98,-3.85,
3.182,-5.87,-5.85,-0.41,2.34,-1.98,-3.85,
3.187,-5.87,-5.85,-0.41,2.38,-2.00,-3.93,
3.188,-5.90,-5.66,-0.48,2.38,-2.00,-3.93,
3.188,-5.90,-5.66,-0.48,2.42,-2.02,-4.01,
3.198,-5.90,-5.66,-0.48,2.45,-2.04,-4.09,
3.198,-5.92,-5.44,-0.52,2.45,-2.04,-4.09,
3.199,-5.92,-5.44,-0.52,2.47,-2.05,-4.17,
3.199,-5.92,-5.44,-0.52,2.50,-2.05,-4.25,
3.199,-5.92,-5.44,-0.52,2.53,-2.05,-4.32,
3.199,-6.01,-5.24,-0.46,2.53,-2.05,-4.32,
3.2,-6.01,-5.24,-0.46,2.55,-2.03,-4.40,
3.201,-6.26,-5.04,-0.26,2.55,-2.03,-4.40,
3.202,-6.26,-5.04,-0.26,2.57,-2.01,-4.47,
3.211,-6.26,-5.04,-0.26,2.60,-2.00,-4.53,
3.211,-6.26,-5.04,-0.26,2.62,-1.98,-4.59,
3.211,-6.15,-4.85,-0.20,2.62,-1.98,-4.59,
3.211,-6.15,-4.85,-0.20,2.64,-1.96,-4.65,
3.212,-5.98,-4.71,-0.16,2.64,-1.96,-4.65,
3.212,-5.98,-4.71,-0.16,2.66,-1.94,-4.70,
3.214,-5.98,-4.71,-0.16,2.69,-1.93,-4.75,
3.216,-5.75,-4.67,-0.24,2.69,-1.93,-4.75,
3.216,-5.75,-4.67,-0.24,2.71,-1.92,-4.80,
3.219,-5.75,-4.67,-0.24,2.73,-1.91,-4.84,
3.222,-5.49,-4.62,-0.18,2.73,-1.91,-4.84,
3.225,-5.49,-4.62,-0.18,2.75,-1.90,-4.88,
3.225,-5.49,-4.62,-0.18,2.77,-1.88,-4.93,
3.227,-5.49,-4.62,-0.18,2.79,-1.86,-4.98,
3.227,-4.95,-4.45,-0.14,2.79,-1.86,-4.98,
3.229,-4.95,-4.45,-0.14,2.81,-1.82,-5.04,
3.231,-4.95,-4.45,-0.14,2.84,-1.76,-5.12,
3.231,-4.09,-4.13,-0.15,2.84,-1.76,-5.12,
3.234,-4.09,-4.13,-0.15,2.86,-1.68,-5.19,
3.237,-3.34,-3.71,-0.19,2.86,-1.68,-5.19,
3.237,-3.34,-3.71,-0.19,2.89,-1.59,-5.28,
3.238,-3.34,-3.71,-0.19,2.91,-1.49,-5.37,
3.241,-2.76,-3.16,-0.12,2.91,-1.49,-5.37,
3.241,-2.76,-3.16,-0.12,2.93,-1.38,-5.46,
3.243,-2.76,-3.16,-0.12,2.96,-1.29,-5.55,
3.246,-2.76,-3.16,-0.12,2.98,-1.21,-5.64,
3.246,-2.38,-2.63,0.10,2.98,-1.21,-5.64,
3.248,-2.38,-2.63,0.10,2.99,-1.15,-5.73,
3.252,-2.17,-2.20,0.35,2.99,-1.15,-5.73,
3.252,-2.17,-2.20,0.35,3.01,-1.09,-5.82,
3.254,-2.17,-2.20,0.35,3.02,-1.04,-5.91,
3.257,-2.17,-2.20,0.35,3.03,-0.99,-6.00,
3.257,-2.09,-1.87,0.52,3.03,-0.99,-6.00,
3.258,-2.09,-1.87,0.52,3.03,-0.94,-6.10,
3.261,-2.05,-1.64,0.64,3.03,-0.94,-6.10,
3.261,-2.05,-1.64,0.64,3.04,-0.89,-6.19,
3.263,-2.05,-1.64,0.64,3.03,-0.83,-6.28,
3.267,-2.05,-1.64,0.64,3.03,-0.77,-6.37,
3.267,-1.94,-1.44,0.75,3.03,-0.77,-6.37,
3.268,-1.94,-1.44,0.75,3.03,-0.72,-6.46,
3.282,-1.77,-1.15,0.91,3.03,-0.72,-6.46,
3.283,-1.77,-1.15,0.91,3.02,-0.67,-6.54,
3.283,-1.77,-1.15,0.91,3.01,-0.64,-6.62,
3.283,-1.77,-1.15,0.91,3.01,-0.63,-6.71,
3.283,-1.59,-0.74,1.25,3.01,-0.63,-6.71,
3.283,-1.59,-0.74,1.25,3.01,-0.64,-6.79,
3.283,-1.59,-0.74,1.25,3.01,-0.66,-6.88,
3.283,-1.35,-0.19,1.69,3.01,-0.66,-6.88,
3.284,-1.35,-0.19,1.69,3.01,-0.69,-6.97,
3.286,-1.35,-0.19,1.69,3.01,-0.73,-7.06,
3.286,-1.14,0.49,2.10,3.01,-0.73,-7.06,
3.292,-1.14,0.49,2.10,3.01,-0.78,-7.15,
3.292,-1.14,0.49,2.10,3.02,-0.84,-7.24,
3.292,-1.09,1.28,2.35,3.02,-0.84,-7.24,
3.293,-1.09,1.28,2.35,3.02,-0.90,-7.33,
3.295,-1.09,1.28,2.35,3.01,-0.95,-7.41,
3.296,-1.09,2.31,2.49,3.01,-0.95,-7.41,
3.298,-1.09,2.31,2.49,3.01,-1.01,-7.48,
3.301,-1.09,2.31,2.49,3.00,-1.08,-7.54,
3.301,-0.96,3.64,2.55,3.00,-1.08,-7.54,
3.303,-0.96,3.64,2.55,3.00,-1.14,-7.60,
3.306,-0.65,5.33,2.62,3.00,-1.14,-7.60,
3.307,-0.65,5.33,2.62,2.99,-1.19,-7.66,
3.308,-0.65,5.33,2.62,2.98,-1.25,-7.71,
3.31,-0.65,5.33,2.62,2.97,-1.33,-7.75,
3.31,-0.30,7.30,2.66,2.97,-1.33,-7.75,
3.313,-0.30,7.30,2.66,2.96,-1.42,-7.77,
3.315,0.24,9.53,2.68,2.96,-1.42,-7.77,
3.316,0.24,9.53,2.68,2.96,-1.53,-7.78,
3.317,0.24,9.53,2.68,2.95,-1.66,-7.78,
3.321,0.24,9.53,2.68,2.94,-1.80,-7.77,
3.322,1.13,11.81,2.61,2.94,-1.80,-7.77,
3.323,1.13,11.81,2.61,2.94,-1.96,-7.76,
3.325,1.13,11.81,2.61,2.94,-2.11,-7.76,
3.326,2.32,14.08,2.32,2.94,-2.11,-7.76,
3.327,2.32,14.08,2.32,2.92,-2.25,-7.75,
3.339,2.32,14.08,2.32,2.91,-2.39,-7.73,
3.339,3.82,16.20,1.93,2.91,-2.39,-7.73,
3.339,3.82,16.20,1.93,2.89,-2.54,-7.70,
3.339,3.82,16.20,1.93,2.86,-2.68,-7.64,
3.34,5.10,17.21,0.53,2.86,-2.68,-7.64,
3.34,5.10,17.21,0.53,2.80,-2.84,-7.56,
3.34,5.10,17.21,0.53,2.73,-2.98,-7.44,
3.34,6.21,17.70,-0.07,2.73,-2.98,-7.44,
3.343,6.21,17.70,-0.07,2.66,-3.10,-7.31,
3.345,6.21,17.70,-0.07,2.59,-3.20,-7.14,
3.345,7.17,18.41,-0.04,2.59,-3.20,-7.14,
3.347,7.17,18.41,-0.04,2.51,-3.30,-6.95,
3.35,7.17,18.41,-0.04,2.41,-3.42,-6.72,
3.35,7.82,18.88,-0.50,2.41,-3.42,-6.72,
3.352,7.82,18.88,-0.50,2.30,-3.51,-6.47,
3.356,8.45,19.47,-1.40,2.30,-3.51,-6.47,
3.357,8.45,19.47,-1.40,2.17,-3.57,-6.17,
3.357,8.45,19.47,-1.40,2.04,-3.55,-5.85,
3.36,8.45,19.47,-1.40,1.89,-3.29,-5.50,
3.36,9.36,20.55,-4.35,1.89,-3.29,-5.50,
3.362,9.36,20.55,-4.35,1.75,-2.88,-5.15,
3.369,9.36,20.55,-4.35,1.67,-2.59,-4.75,
3.369,9.36,20.55,-4.35,1.63,-2.41,-4.31,
3.369,10.52,23.66,-1.60,1.63,-2.41,-4.31,
3.372,10.52,23.66,-1.60,1.62,-2.28,-3.91,
3.374,14.40,22.60,1.33,1.62,-2.28,-3.91,
3.375,14.40,22.60,1.33,1.62,-2.14,-3.56,
3.375,14.40,22.60,1.33,1.63,-2.02,-3.23,
3.375,18.08,17.49,2.08,1.63,-2.02,-3.23,
3.38,18.08,17.49,2.08,1.58,-1.99,-2.90,
3.38,18.08,17.49,2.08,1.43,-2.01,-2.49,
3.381,19.17,12.50,1.54,1.43,-2.01,-2.49,
3.382,19.17,12.50,1.54,1.26,-2.01,-1.95,
3.385,19.17,12.50,1.54,1.06,-1.87,-1.32,
3.386,18.38,7.85,-0.23,1.06,-1.87,-1.32,
3.389,18.38,7.85,-0.23,0.82,-1.61,-0.63,
3.39,18.38,7.85,-0.23,0.56,-1.28,0.07,
3.39,18.89,3.11,-1.00,0.56,-1.28,0.07,
3.392,18.89,3.11,-1.00,0.35,-0.91,0.75,
3.395,21.22,-0.62,1.09,0.35,-0.91,0.75,
3.395,21.22,-0.62,1.09,0.19,-0.55,1.33,
3.398,21.22,-0.62,1.09,0.12,-0.23,1.79,
3.4,21.22,-0.62,1.09,0.05,-0.05,2.20,
3.401,22.88,-1.82,4.42,0.05,-0.05,2.20,
3.402,22.88,-1.82,4.42,-0.03,-0.05,2.64,
3.405,22.95,-1.46,5.74,-0.03,-0.05,2.64,
3.405,22.95,-1.46,5.74,-0.10,-0.23,3.11,
3.407,22.95,-1.46,5.74,-0.18,-0.54,3.61,
3.409,22.95,-1.46,5.74,-0.28,-0.89,4.11,
3.41,22.68,-0.30,2.71,-0.28,-0.89,4.11,
3.412,22.68,-0.30,2.71,-0.37,-1.17,4.52,
3.415,22.68,-0.30,2.71,-0.35,-1.30,4.68,
3.415,23.68,3.13,-1.14,-0.35,-1.30,4.68,
3.417,23.68,3.13,-1.14,-0.52,-1.37,4.68,
3.42,23.68,3.13,-1.14,-0.65,-1.43,4.58,
3.421,24.33,4.49,-2.26,-0.65,-1.43,4.58,
3.422,24.33,4.49,-2.26,-0.83,-1.59,4.47,
3.425,24.33,4.49,-2.26,-0.97,-1.87,4.40,
3.425,24.20,5.03,1.74,-0.97,-1.87,4.40,
3.427,24.20,5.03,1.74,-0.95,-2.14,4.33,
3.429,24.20,5.03,1.74,-0.89,-2.30,4.16,
3.429,23.49,3.42,3.32,-0.89,-2.30,4.16,
3.432,23.49,3.42,3.32,-0.87,-2.23,3.87,
3.435,23.49,3.42,3.32,-0.92,-1.93,3.48,
3.435,17.72,3.16,-1.18,-0.92,-1.93,3.48,
3.437,17.72,3.16,-1.18,-1.04,-1.39,2.97,
3.44,17.72,3.16,-1.18,-1.14,-0.65,2.37,
3.44,11.03,4.03,-3.08,-1.14,-0.65,2.37,
3.442,11.03,4.03,-3.08,-1.15,0.20,1.70,
3.444,11.03,4.03,-3.08,-1.02,1.11,1.01,
3.445,3.78,8.06,0.56,-1.02,1.11,1.01,
3.446,3.78,8.06,0.56,-0.87,1.98,0.31,
3.449,3.78,8.06,0.56,-0.81,2.68,-0.24,
3.449,-1.12,12.92,1.07,-0.81,2.68,-0.24,
3.452,-1.12,12.92,1.07,-0.84,3.06,-0.46,
3.455,-1.12,12.92,1.07,-0.96,3.03,-0.31,
3.456,-8.27,18.27,3.96,-0.96,3.03,-0.31,
3.458,-8.27,18.27,3.96,-1.04,2.61,0.16,
3.459,-8.27,18.27,3.96,-1.01,1.92,0.89,
3.46,-13.65,21.43,9.04,-1.01,1.92,0.89,
3.461,-13.65,21.43,9.04,-0.79,1.11,1.73,
3.464,-13.65,21.43,9.04,-0.36,0.26,2.49,
3.465,-13.29,18.98,9.78,-0.36,0.26,2.49,
3.466,-13.29,18.98,9.78,0.18,-0.62,3.05,
3.469,-9.60,12.98,3.65,0.18,-0.62,3.05,
3.469,-9.60,12.98,3.65,0.70,-1.50,3.45,
3.475,-9.60,12.98,3.65,0.90,-2.34,3.75,
3.476,-9.60,12.98,3.65,0.80,-3.07,4.06,
3.476,-8.33,8.61,-3.85,0.80,-3.07,4.06,
3.483,-8.33,8.61,-3.85,0.54,-3.64,4.41,
3.484,-7.93,5.23,-5.19,0.54,-3.64,4.41,
3.484,-7.93,5.23,-5.19,0.21,-4.02,4.80,
3.484,-7.93,5.23,-5.19,-0.05,-4.19,5.17,
3.485,-7.93,5.23,-5.19,-0.18,-4.19,5.41,
3.485,-2.20,1.47,-3.52,-0.18,-4.19,5.41,
3.486,-2.20,1.47,-3.52,-0.18,-4.07,5.46,
3.5,-2.20,1.47,-3.52,-0.10,-3.90,5.31,
3.501,5.70,-3.09,-3.05,-0.10,-3.90,5.31,
3.501,5.70,-3.09,-3.05,-0.01,-3.73,5.01,
3.501,10.61,-7.08,-3.36,-0.01,-3.73,5.01,
3.516,10.61,-7.08,-3.36,0.02,-3.64,4.62,
3.516,10.61,-7.08,-3.36,0.08,-3.62,4.24,
3.516,10.61,-7.08,-3.36,0.11,-3.65,3.93,
3.516,11.76,-8.58,-3.27,0.11,-3.65,3.93,
3.516,11.76,-8.58,-3.27,0.07,-3.66,3.69,
3.517,11.76,-8.58,-3.27,-0.01,-3.58,3.54,
3.517,11.76,-8.58,-3.27,-0.16,-3.39,3.45,
3.517,12.06,-8.87,-4.73,-0.16,-3.39,3.45,
3.517,12.06,-8.87,-4.73,-0.32,-3.07,3.40,
3.517,12.82,-8.87,-4.36,-0.32,-3.07,3.40,
3.517,12.82,-8.87,-4.36,-0.47,-2.64,3.39,
3.518,14.33,-8.07,-0.68,-0.47,-2.64,3.39,
3.518,14.33,-8.07,-0.68,-0.59,-2.13,3.38,
3.518,14.33,-8.07,-0.68,-0.63,-1.55,3.35,
3.519,16.82,-5.99,4.53,-0.63,-1.55,3.35,
3.519,16.82,-5.99,4.53,-0.61,-0.94,3.29,
3.523,16.82,-5.99,4.53,-0.52,-0.32,3.14,
3.524,19.36,-2.74,8.15,-0.52,-0.32,3.14,
3.524,19.36,-2.74,8.15,-0.35,0.30,2.92,
3.526,19.36,-2.74,8.15,-0.16,0.88,2.64,
3.528,19.36,-2.74,8.15,0.02,1.40,2.31,
3.529,20.23,0.59,7.29,0.02,1.40,2.31,
3.531,20.23,0.59,7.29,0.17,1.83,1.98,
3.534,20.23,0.59,7.29,0.28,2.18,1.67,
3.534,18.90,3.24,4.08,0.28,2.18,1.67,
3.538,18.90,3.24,4.08,0.34,2.44,1.39,
3.54,18.90,3.24,4.08,0.38,2.61,1.19,
3.541,14.47,4.88,2.13,0.38,2.61,1.19,
3.541,14.47,4.88,2.13,0.41,2.68,1.05,
3.544,14.47,4.88,2.13,0.45,2.69,0.94,
3.544,9.22,4.65,2.10,0.45,2.69,0.94,
3.546,9.22,4.65,2.10,0.48,2.63,0.85,
3.548,9.22,4.65,2.10,0.52,2.53,0.77,
3.548,4.62,3.15,2.43,0.52,2.53,0.77,
3.551,4.62,3.15,2.43,0.55,2.40,0.72,
3.553,4.62,3.15,2.43,0.56,2.25,0.69,
3.554,0.54,1.22,1.96,0.56,2.25,0.69,
3.556,0.54,1.22,1.96,0.57,2.07,0.69,
3.558,0.54,1.22,1.96,0.56,1.88,0.73,
3.558,-3.61,-0.54,1.39,0.56,1.88,0.73,
3.56,-3.61,-0.54,1.39,0.54,1.68,0.80,
3.563,-3.61,-0.54,1.39,0.51,1.48,0.91,
3.563,-7.31,-2.00,0.68,0.51,1.48,0.91,
3.565,-7.31,-2.00,0.68,0.47,1.29,1.03,
3.568,-7.31,-2.00,0.68,0.41,1.10,1.16,
3.568,-8.94,-2.87,-0.27,0.41,1.10,1.16,
3.579,-8.94,-2.87,-0.27,0.35,0.89,1.26,
3.58,-8.94,-2.87,-0.27,0.27,0.66,1.34,
3.58,-8.94,-2.87,-0.27,0.20,0.38,1.42,
3.58,-8.94,-2.87,-0.27,0.15,0.07,1.50,
3.58,-8.62,-2.66,-0.51,0.15,0.07,1.50,
3.58,-8.10,-1.70,0.25,0.15,0.07,1.50,
3.58,-8.10,-1.70,0.25,0.11,-0.23,1.57,
3.583,-8.10,-1.70,0.25,0.09,-0.50,1.63,
3.583,-5.35,-0.84,0.42,0.09,-0.50,1.63,
3.586,-5.35,-0.84,0.42,0.08,-0.70,1.67,
3.591,-5.35,-0.84,0.42,0.06,-0.84,1.70,
3.591,-2.45,-0.36,-0.50,0.06,-0.84,1.70,
3.591,-2.45,-0.36,-0.50,0.05,-0.93,1.73,
3.593,-2.45,-0.36,-0.50,0.02,-0.98,1.73,
3.593,-0.12,-0.11,-1.53,0.02,-0.98,1.73,
3.597,-0.12,-0.11,-1.53,0.00,-0.99,1.73,
3.605,1.70,-0.00,-1.87,0.00,-0.99,1.73,
3.605,3.22,0.01,-1.63,0.00,-0.99,1.73,
3.606,3.22,0.01,-1.63,-0.02,-0.96,1.72,
3.606,3.22,0.01,-1.63,-0.03,-0.92,1.70,
3.606,3.22,0.01,-1.63,-0.04,-0.85,1.65,
3.606,3.22,0.01,-1.63,-0.03,-0.78,1.60,
3.61,4.51,-0.07,-1.24,-0.03,-0.78,1.60,
3.613,4.51,-0.07,-1.24,-0.03,-0.69,1.53,
3.613,4.51,-0.07,-1.24,-0.02,-0.59,1.45,
3.613,4.51,-0.07,-1.24,-0.01,-0.49,1.36,
3.613,5.48,-0.26,-0.92,-0.01,-0.49,1.36,
3.615,5.48,-0.26,-0.92,0.00,-0.38,1.26,
3.618,5.48,-0.26,-0.92,0.02,-0.26,1.15,
3.618,6.10,-0.38,-0.84,0.02,-0.26,1.15,
3.62,6.10,-0.38,-0.84,0.02,-0.12,1.04,
3.623,6.29,-0.35,-0.85,0.02,-0.12,1.04,
3.623,6.29,-0.35,-0.85,0.03,0.03,0.94,
3.625,6.29,-0.35,-0.85,0.04,0.19,0.84,
3.628,6.29,-0.35,-0.85,0.05,0.35,0.74,
3.628,5.96,-0.20,-0.71,0.05,0.35,0.74,
3.63,5.96,-0.20,-0.71,0.06,0.51,0.66,
3.632,5.96,-0.20,-0.71,0.07,0.65,0.58,
3.633,5.06,-0.11,-0.43,0.07,0.65,0.58,
3.635,5.06,-0.11,-0.43,0.08,0.78,0.51,
3.638,3.86,-0.06,-0.31,0.08,0.78,0.51,
3.638,3.86,-0.06,-0.31,0.09,0.90,0.45,
3.64,3.86,-0.06,-0.31,0.10,1.00,0.40,
3.643,3.86,-0.06,-0.31,0.11,1.08,0.36,
3.643,2.52,-0.05,-0.36,0.11,1.08,0.36,
3.645,2.52,-0.05,-0.36,0.11,1.14,0.33,
3.647,2.52,-0.05,-0.36,0.11,1.18,0.31,
3.648,1.07,0.01,-0.33,0.11,1.18,0.31,
3.651,1.07,0.01,-0.33,0.11,1.20,0.30,
3.652,1.07,0.01,-0.33,0.11,1.19,0.30,
3.652,-0.36,0.04,-0.14,0.11,1.19,0.30,
3.655,-0.36,0.04,-0.14,0.11,1.18,0.31,
3.658,-0.36,0.04,-0.14,0.11,1.15,0.34,
3.658,-1.72,0.05,0.02,0.11,1.15,0.34,
3.669,-1.72,0.05,0.02,0.11,1.12,0.38,
3.669,-1.72,0.05,0.02,0.10,1.09,0.42,
3.669,-2.73,0.08,0.08,0.10,1.09,0.42,
3.669,-2.73,0.08,0.08,0.10,1.05,0.48,
3.669,-3.22,0.00,0.36,0.10,1.05,0.48,
3.67,-3.22,0.00,0.36,0.09,0.99,0.53,
3.67,-3.22,0.00,0.36,0.08,0.90,0.58,
3.674,-3.22,0.00,0.36,0.08,0.80,0.62,
3.674,-3.20,-0.08,0.72,0.08,0.80,0.62,
3.675,-3.20,-0.08,0.72,0.08,0.69,0.66,
3.677,-2.82,-0.08,0.71,0.08,0.69,0.66,
3.678,-2.82,-0.08,0.71,0.08,0.58,0.69,
3.68,-2.82,-0.08,0.71,0.07,0.49,0.72,
3.682,-2.82,-0.08,0.71,0.07,0.41,0.74,
3.683,-2.29,0.02,0.62,0.07,0.41,0.74,
3.685,-2.29,0.02,0.62,0.06,0.35,0.77,
3.693,-2.29,0.02,0.62,0.06,0.31,0.79,
3.694,-1.67,0.22,0.39,0.06,0.31,0.79,
3.694,-1.67,0.22,0.39,0.06,0.29,0.81,
3.694,-1.67,0.22,0.39,0.05,0.28,0.83,
3.694,-0.96,0.39,0.30,0.05,0.28,0.83,
3.695,-0.96,0.39,0.30,0.06,0.27,0.84,
3.697,-0.29,0.39,0.31,0.06,0.27,0.84,
3.697,-0.29,0.39,0.31,0.06,0.26,0.85,
3.7,-0.29,0.39,0.31,0.07,0.26,0.84,
3.702,-0.29,0.39,0.31,0.07,0.26,0.84,
3.702,0.27,0.32,0.11,0.07,0.26,0.84,
3.706,0.27,0.32,0.11,0.07,0.28,0.83,
3.707,0.27,0.32,0.11,0.07,0.31,0.82,
3.708,0.76,0.23,-0.03,0.07,0.31,0.82,
3.709,0.76,0.23,-0.03,0.07,0.35,0.80,
3.712,0.76,0.23,-0.03,0.07,0.39,0.78,
3.712,1.19,0.08,0.01,0.07,0.39,0.78,
3.714,1.19,0.08,0.01,0.07,0.43,0.76,
3.717,1.19,0.08,0.01,0.08,0.50,0.74,
3.717,1.32,0.09,-0.12,0.08,0.50,0.74,
3.719,1.32,0.09,-0.12,0.07,0.59,0.72,
3.723,1.32,0.09,-0.12,0.07,0.69,0.71,
3.724,1.05,0.26,-0.32,0.07,0.69,0.71,
3.726,1.05,0.26,-0.32,0.07,0.76,0.70,
3.727,1.05,0.26,-0.32,0.08,0.81,0.69,
3.727,0.96,0.31,0.32,0.08,0.81,0.69,
3.729,0.96,0.31,0.32,0.09,0.84,0.68,
3.732,0.96,0.31,0.32,0.10,0.86,0.67,
3.732,0.48,0.42,0.39,0.10,0.86,0.67,
3.734,0.48,0.42,0.39,0.10,0.88,0.67,
3.737,0.48,0.42,0.39,0.10,0.90,0.67,
3.737,-0.19,0.52,0.05,0.10,0.90,0.67,
3.741,-0.19,0.52,0.05,0.09,0.91,0.68,
3.742,-0.19,0.52,0.05,0.08,0.93,0.70,
3.742,-1.00,0.69,-0.20,0.08,0.93,0.70,
3.744,-1.00,0.69,-0.20,0.08,0.93,0.73,
3.747,-1.00,0.69,-0.20,0.08,0.93,0.76,
3.747,-1.73,0.84,-0.11,0.08,0.93,0.76,
3.752,-1.73,0.84,-0.11,0.08,0.90,0.79,
3.752,-1.73,0.84,-0.11,0.07,0.86,0.82,
3.752,-1.99,0.88,-0.37,0.07,0.86,0.82,
3.754,-1.99,0.88,-0.37,0.05,0.82,0.85,
3.757,-1.91,0.55,-0.52,0.05,0.82,0.85,
3.758,-1.91,0.55,-0.52,0.04,0.76,0.87,
3.76,-1.91,0.55,-0.52,0.03,0.69,0.90,
3.762,-1.91,0.55,-0.52,0.01,0.62,0.92,
3.762,-1.88,0.16,-0.56,0.01,0.62,0.92,
3.764,-1.88,0.16,-0.56,-0.01,0.56,0.95,
3.767,-1.88,0.16,-0.56,-0.03,0.50,0.97,
3.767,-1.94,-0.02,-0.44,-0.03,0.50,0.97,
3.769,-1.94,-0.02,-0.44,-0.06,0.48,0.99,
3.773,-1.52,0.19,-0.73,-0.06,0.48,0.99,
3.776,-1.52,0.19,-0.73,-0.09,0.51,1.00,
3.777,-1.52,0.19,-0.73,-0.10,0.55,1.01,
3.777,-1.52,0.19,-0.73,-0.12,0.56,1.05,
3.777,-1.86,0.60,-0.12,-0.12,0.56,1.05,
3.779,-1.86,0.60,-0.12,-0.12,0.59,1.07,
3.784,-1.86,0.60,-0.12,-0.12,0.62,1.08,
3.784,-0.73,1.17,-0.41,-0.12,0.62,1.08,
3.784,-0.73,1.17,-0.41,-0.13,0.64,1.10,
3.787,-0.73,1.17,-0.41,-0.14,0.63,1.13,
3.787,-1.24,1.37,-0.38,-0.14,0.63,1.13,
3.794,-1.24,1.37,-0.38,-0.14,0.58,1.17,
3.795,-1.24,1.37,-0.38,-0.15,0.54,1.22,
3.795,-1.91,0.97,-0.10,-0.15,0.54,1.22,
3.796,-1.91,0.97,-0.10,-0.16,0.53,1.24,
3.797,-0.94,0.83,-0.40,-0.16,0.53,1.24,
3.797,-0.94,0.83,-0.40,-0.15,0.56,1.25,
3.799,-0.94,0.83,-0.40,-0.15,0.61,1.25,
3.801,-0.94,0.83,-0.40,-0.15,0.66,1.26,
3.801,-0.83,0.71,-0.42,-0.15,0.66,1.26,
3.803,-0.83,0.71,-0.42,-0.15,0.70,1.27,
3.807,-0.83,0.71,-0.42,-0.16,0.74,1.30,
3.807,-0.96,0.35,-0.54,-0.16,0.74,1.30,
3.81,-0.96,0.35,-0.54,-0.16,0.76,1.31,
3.811,-0.62,0.43,-1.05,-0.16,0.76,1.31,
3.811,-0.62,0.43,-1.05,-0.18,0.78,1.32,
3.814,-0.62,0.43,-1.05,-0.20,0.81,1.33,
3.816,-0.86,0.76,-0.98,-0.20,0.81,1.33,
3.816,-0.86,0.76,-0.98,-0.22,0.83,1.33,
3.818,-0.86,0.76,-0.98,-0.23,0.84,1.34,
3.823,-0.86,0.76,-0.98,-0.24,0.83,1.36,
3.824,-1.20,1.01,-0.38,-0.24,0.83,1.36,
3.825,-1.20,1.01,-0.38,-0.25,0.80,1.37,
3.836,-1.20,1.01,-0.38,-0.26,0.77,1.39,
3.836,-1.54,1.10,-0.08,-0.26,0.77,1.39,
3.836,-1.54,1.10,-0.08,-0.27,0.72,1.40,
3.837,-1.54,1.10,-0.08,-0.29,0.70,1.42,
3.839,-1.62,1.42,-0.39,-0.29,0.70,1.42,
3.84,-1.62,1.42,-0.39,-0.30,0.71,1.44,
3.84,-1.51,1.83,-0.42,-0.30,0.71,1.44,
3.84,-1.51,1.83,-0.42,-0.32,0.73,1.45,
3.84,-1.51,1.83,-0.42,-0.33,0.73,1.47,
3.842,-1.51,1.83,-0.42,-0.33,0.72,1.50,
3.842,-1.80,1.90,0.35,-0.33,0.72,1.50,
3.847,-1.80,1.90,0.35,-0.33,0.70,1.53,
3.847,-1.80,1.90,0.35,-0.34,0.69,1.56,
3.847,-1.78,1.84,0.31,-0.34,0.69,1.56,
3.849,-1.78,1.84,0.31,-0.35,0.68,1.58,
3.862,-1.78,1.84,0.31,-0.37,0.68,1.59,
3.862,-1.78,1.84,0.31,-0.39,0.69,1.60,
3.863,-1.78,1.84,0.31,-0.42,0.70,1.61,
3.863,-1.78,1.84,0.31,-0.43,0.71,1.63,
3.863,-1.78,1.84,0.31,-0.44,0.72,1.66,
3.863,-1.49,2.00,-0.12,-0.44,0.72,1.66,
3.863,-1.49,2.47,-0.13,-0.44,0.72,1.66,
3.863,-1.94,2.51,0.50,-0.44,0.72,1.66,
3.864,-1.94,2.51,0.50,-0.44,0.72,1.69,
3.865,-1.94,2.51,0.50,-0.45,0.72,1.72,
3.866,-2.14,2.16,0.67,-0.45,0.72,1.72,
3.868,-2.14,2.16,0.67,-0.46,0.70,1.74,
3.871,-2.29,2.11,-0.03,-0.46,0.70,1.74,
3.871,-2.29,2.11,-0.03,-0.49,0.69,1.76,
3.875,-2.29,2.11,-0.03,-0.52,0.68,1.78,
3.885,-2.29,2.11,-0.03,-0.55,0.67,1.80,
3.886,-2.67,2.29,-0.17,-0.55,0.67,1.80,
3.886,-2.67,2.29,-0.17,-0.57,0.63,1.83,
3.886,-2.67,2.29,-0.17,-0.58,0.57,1.87,
3.886,-3.11,2.34,0.46,-0.58,0.57,1.87,
3.886,-3.11,2.34,0.46,-0.60,0.53,1.90,
3.886,-3.11,2.34,0.46,-0.62,0.52,1.94,
3.886,-3.01,2.69,-0.30,-0.62,0.52,1.94,
3.89,-3.01,2.69,-0.30,-0.64,0.52,1.96,
3.891,-3.01,2.69,-0.30,-0.66,0.54,1.99,
3.891,-2.96,3.32,-0.90,-0.66,0.54,1.99,
3.893,-2.96,3.32,-0.90,-0.69,0.54,2.03,
3.897,-3.16,3.84,-0.52,-0.69,0.54,2.03,
3.897,-3.16,3.84,-0.52,-0.71,0.54,2.07,
3.898,-3.16,3.84,-0.52,-0.73,0.54,2.10,
3.901,-2.75,3.98,-0.31,-0.73,0.54,2.10,
3.901,-2.75,3.98,-0.31,-0.74,0.56,2.13,
3.903,-2.75,3.98,-0.31,-0.76,0.58,2.15,
3.905,-2.82,3.78,-0.26,-0.76,0.58,2.15,
3.906,-2.82,3.78,-0.26,-0.77,0.60,2.17,
3.909,-2.82,3.78,-0.26,-0.80,0.60,2.19,
3.911,-2.82,3.78,-0.26,-0.82,0.60,2.23,
3.911,-3.20,3.63,-0.60,-0.82,0.60,2.23,
3.912,-3.20,3.63,-0.60,-0.85,0.60,2.26,
3.915,-3.54,3.60,-0.43,-0.85,0.60,2.26,
3.916,-3.54,3.60,-0.43,-0.88,0.58,2.29,
3.918,-3.54,3.60,-0.43,-0.90,0.54,2.32,
3.92,-3.54,3.60,-0.43,-0.94,0.50,2.35,
3.921,-3.91,3.49,-0.56,-0.94,0.50,2.35,
3.923,-3.91,3.49,-0.56,-0.98,0.49,2.37,
3.925,-3.82,3.94,-1.24,-0.98,0.49,2.37,
3.925,-3.82,3.94,-1.24,-1.03,0.50,2.39,
3.929,-3.82,3.94,-1.24,-1.07,0.51,2.41,
3.93,-3.82,3.94,-1.24,-1.11,0.52,2.43,
3.93,-4.14,4.50,-1.26,-1.11,0.52,2.43,
3.932,-4.14,4.50,-1.26,-1.14,0.55,2.46,
3.935,-4.14,4.50,-1.26,-1.17,0.58,2.49,
3.935,-4.58,4.77,-2.06,-1.17,0.58,2.49,
3.938,-4.58,4.77,-2.06,-1.21,0.63,2.53,
3.941,-4.58,4.77,-2.06,-1.24,0.69,2.57,
3.941,-5.16,5.19,-2.75,-1.24,0.69,2.57,
3.942,-5.16,5.19,-2.75,-1.27,0.75,2.61,
3.945,-5.60,5.97,-2.56,-1.27,0.75,2.61,
3.945,-5.60,5.97,-2.56,-1.29,0.80,2.66,
3.947,-5.60,5.97,-2.56,-1.31,0.84,2.70,
3.95,-5.97,6.72,-3.12,-1.31,0.84,2.70,
3.95,-5.97,6.72,-3.12,-1.35,0.88,2.75,
3.952,-5.97,6.72,-3.12,-1.39,0.93,2.79,
3.958,-6.52,7.69,-3.54,-1.39,0.93,2.79,
3.958,-6.52,7.69,-3.54,-1.44,1.00,2.84,
3.959,-6.52,7.69,-3.54,-1.49,1.07,2.89,
3.96,-6.52,7.69,-3.54,-1.54,1.14,2.93,
3.961,-7.06,8.72,-3.67,-1.54,1.14,2.93,
3.962,-7.06,8.72,-3.67,-1.58,1.21,2.97,
3.967,-7.71,9.79,-4.19,-1.58,1.21,2.97,
3.967,-7.71,9.79,-4.19,-1.62,1.28,3.01,
3.967,-7.71,9.79,-4.19,-1.65,1.37,3.04,
3.97,-7.71,9.79,-4.19,-1.68,1.44,3.07,
3.97,-8.30,10.85,-4.48,-1.68,1.44,3.07,
3.975,-8.30,10.85,-4.48,-1.70,1.52,3.09,
3.98,-8.30,10.85,-4.48,-1.72,1.59,3.11,
3.98,-9.17,12.14,-4.23,-1.72,1.59,3.11,
3.981,-9.17,12.14,-4.23,-1.75,1.67,3.14,
3.981,-10.45,13.37,-3.80,-1.75,1.67,3.14,
3.981,-10.45,13.37,-3.80,-1.77,1.75,3.16,
3.982,-10.45,13.37,-3.80,-1.80,1.84,3.19,
3.985,-10.45,13.37,-3.80,-1.84,1.95,3.19,
3.985,-11.55,13.90,-3.99,-1.84,1.95,3.19,
3.988,-11.55,13.90,-3.99,-1.88,2.07,3.17,
3.999,-11.55,13.90,-3.99,-1.92,2.20,3.14,
4.017,-12.42,13.83,-4.41,-1.92,2.20,3.14,
4.017,-12.42,13.83,-4.41,-1.93,2.32,3.11,
4.018,-12.42,13.83,-4.41,-1.93,2.44,3.06,
4.018,-13.01,13.25,-4.94,-1.93,2.44,3.06,
4.018,-13.01,13.25,-4.94,-1.93,2.49,3.03,
4.019,-13.01,13.25,-4.94,-1.95,2.49,3.01,
4.019,-13.84,12.75,-6.44,-1.95,2.49,3.01,
4.019,-13.84,12.75,-6.44,-1.98,2.40,3.03,
4.019,-15.20,12.35,-7.17,-1.98,2.40,3.03,
4.02,-15.20,12.35,-7.17,-1.99,2.26,3.09,
4.02,-15.20,12.35,-7.17,-2.06,2.08,3.21,
4.02,-16.66,14.10,-5.72,-2.06,2.08,3.21,
4.021,-16.66,14.10,-5.72,-2.08,1.90,3.39,
4.021,-16.66,14.10,-5.72,-2.07,1.70,3.64,
4.021,-16.73,16.44,-4.67,-2.07,1.70,3.64,
4.022,-16.73,16.44,-4.67,-2.04,1.47,3.94,
4.022,-16.73,16.44,-4.67,-1.99,1.20,4.27,
4.022,-16.73,16.44,-4.67,-1.94,0.91,4.59,
4.022,-14.66,17.69,-6.20,-1.94,0.91,4.59,
4.023,-14.66,17.69,-6.20,-1.90,0.66,4.88,
4.024,-11.13,16.93,-8.94,-1.90,0.66,4.88,
4.025,-11.13,16.93,-8.94,-1.88,0.45,5.11,
4.027,-11.13,16.93,-8.94,-1.88,0.29,5.27,
4.029,-8.39,15.47,-10.10,-1.88,0.29,5.27,
4.03,-8.39,15.47,-10.10,-1.91,0.14,5.38,
4.032,-8.39,15.47,-10.10,-1.94,-0.01,5.46,
4.035,-8.39,15.47,-10.10,-1.95,-0.15,5.52,
4.035,-6.32,14.06,-8.99,-1.95,-0.15,5.52,
4.037,-6.32,14.06,-8.99,-1.96,-0.28,5.57,
4.04,-6.32,14.06,-8.99,-1.93,-0.37,5.60,
4.04,-4.00,12.31,-7.34,-1.93,-0.37,5.60,
4.042,-4.00,12.31,-7.34,-1.88,-0.42,5.58,
4.044,-1.54,10.07,-6.56,-1.88,-0.42,5.58,
4.045,-1.54,10.07,-6.56,-1.80,-0.38,5.53,
4.047,-1.54,10.07,-6.56,-1.70,-0.21,5.43,
4.049,-0.05,8.66,-6.72,-1.70,-0.21,5.43,
4.05,-0.05,8.66,-6.72,-1.60,0.06,5.31,
4.052,-0.05,8.66,-6.72,-1.49,0.35,5.16,
4.056,-0.05,8.66,-6.72,-1.39,0.62,4.98,
4.056,0.88,7.77,-5.94,-1.39,0.62,4.98,
4.057,0.88,7.77,-5.94,-1.29,0.85,4.76,
4.059,0.88,7.77,-5.94,-1.18,1.03,4.50,
4.06,1.56,6.57,-4.78,-1.18,1.03,4.50,
4.061,1.56,6.57,-4.78,-1.07,1.17,4.21,
4.064,1.56,6.57,-4.78,-0.95,1.27,3.91,
4.064,1.50,5.19,-3.71,-0.95,1.27,3.91,
4.066,1.50,5.19,-3.71,-0.81,1.35,3.62,
4.069,0.69,3.80,-3.09,-0.81,1.35,3.62,
4.07,0.69,3.80,-3.09,-0.68,1.41,3.34,
4.072,0.69,3.80,-3.09,-0.58,1.46,3.07,
4.075,0.69,3.80,-3.09,-0.53,1.49,2.81,
4.076,-0.76,2.44,-2.73,-0.53,1.49,2.81,
4.078,-0.76,2.44,-2.73,-0.50,1.54,2.60,
4.079,-0.76,2.44,-2.73,-0.43,1.66,2.46,
4.079,-2.80,0.20,-1.99,-0.43,1.66,2.46,
4.081,-2.80,0.20,-1.99,-0.31,1.84,2.40,
4.085,-2.80,0.20,-1.99,-0.20,2.01,2.42,
4.085,-3.37,-2.52,-1.31,-0.20,2.01,2.42,
4.087,-3.37,-2.52,-1.31,-0.14,2.16,2.48,
4.09,-3.37,-2.52,-1.31,-0.10,2.24,2.55,
4.101,-1.81,-3.75,-1.06,-0.10,2.24,2.55,
4.101,-1.81,-3.75,-1.06,-0.05,2.27,2.58,
4.102,-1.81,-3.75,-1.06,-0.00,2.26,2.53,
4.102,0.52,-4.09,-2.40,-0.00,2.26,2.53,
4.102,0.52,-4.09,-2.40,0.02,2.24,2.38,
4.103,0.52,-4.09,-2.40,0.02,2.23,2.11,
4.103,2.73,-4.12,-4.01,0.02,2.23,2.11,
4.103,2.73,-4.12,-4.01,0.00,2.25,1.75,
4.103,2.73,-4.12,-4.01,-0.03,2.31,1.31,
4.104,3.86,-4.37,-4.60,-0.03,2.31,1.31,
4.111,3.86,-4.37,-4.60,-0.06,2.41,0.82,
4.112,3.86,-4.37,-4.60,-0.07,2.53,0.35,
4.112,1.80,-3.96,-3.98,-0.07,2.53,0.35,
4.112,1.80,-3.96,-3.98,-0.07,2.68,-0.06,
4.114,1.80,-3.96,-3.98,-0.05,2.81,-0.41,
4.114,-1.86,-2.99,-2.39,-0.05,2.81,-0.41,
4.116,-1.86,-2.99,-2.39,-0.02,2.92,-0.69,
4.119,-1.86,-2.99,-2.39,0.01,3.01,-0.91,
4.119,-4.82,-2.69,-1.02,0.01,3.01,-0.91,
4.121,-4.82,-2.69,-1.02,0.06,3.06,-1.07,
4.129,-7.63,-3.03,-0.30,0.06,3.06,-1.07,
4.129,-7.63,-3.03,-0.30,0.10,3.09,-1.19,
4.13,-7.63,-3.03,-0.30,0.14,3.10,-1.28,
4.13,-7.63,-3.03,-0.30,0.18,3.12,-1.33,
4.13,-10.09,-3.66,-0.05,0.18,3.12,-1.33,
4.131,-10.09,-3.66,-0.05,0.22,3.13,-1.36,
4.134,-10.09,-3.66,-0.05,0.26,3.13,-1.37,
4.135,-12.10,-4.59,0.24,0.26,3.13,-1.37,
4.137,-12.10,-4.59,0.24,0.30,3.12,-1.37,
4.142,-12.10,-4.59,0.24,0.36,3.07,-1.35,
4.145,-13.31,-5.56,0.92,0.36,3.07,-1.35,
4.146,-13.31,-5.56,0.92,0.42,3.00,-1.34,
4.147,-13.31,-5.56,0.92,0.48,2.88,-1.34,
4.147,-13.46,-6.37,1.74,0.48,2.88,-1.34,
4.149,-13.46,-6.37,1.74,0.55,2.69,-1.33,
4.15,-13.46,-6.37,1.74,0.63,2.42,-1.33,
4.15,-13.09,-7.43,2.31,0.63,2.42,-1.33,
4.151,-13.09,-7.43,2.31,0.69,2.09,-1.34,
4.153,-11.62,-8.20,2.39,0.69,2.09,-1.34,
4.154,-11.62,-8.20,2.39,0.75,1.72,-1.36,
4.169,-11.62,-8.20,2.39,0.81,1.33,-1.40,
4.169,-11.62,-8.20,2.39,0.88,0.98,-1.48,
4.17,-9.53,-8.08,1.75,0.88,0.98,-1.48,
4.17,-9.53,-8.08,1.75,0.94,0.66,-1.57,
4.17,-9.53,-8.08,1.75,1.01,0.39,-1.67,
4.17,-8.03,-7.42,0.80,1.01,0.39,-1.67,
4.171,-8.03,-7.42,0.80,1.07,0.15,-1.77,
4.171,-7.36,-6.65,-0.17,1.07,0.15,-1.77,
4.171,-7.36,-6.65,-0.17,1.12,-0.05,-1.86,
4.171,-7.36,-6.65,-0.17,1.18,-0.22,-1.94,
4.174,-7.05,-6.17,-0.74,1.18,-0.22,-1.94,
4.175,-7.05,-6.17,-0.74,1.22,-0.36,-2.01,
4.175,-7.05,-6.17,-0.74,1.27,-0.47,-2.09,
4.178,-7.05,-6.17,-0.74,1.31,-0.56,-2.17,
4.178,-6.77,-5.95,-0.80,1.31,-0.56,-2.17,
4.18,-6.77,-5.95,-0.80,1.35,-0.64,-2.25,
4.183,-6.77,-5.95,-0.80,1.40,-0.70,-2.34,
4.183,-6.70,-5.94,-0.62,1.40,-0.70,-2.34,
4.185,-6.70,-5.94,-0.62,1.44,-0.76,-2.43,
4.192,-6.70,-5.94,-0.62,1.48,-0.82,-2.53,
4.201,-6.72,-5.98,-0.30,1.48,-0.82,-2.53,
4.201,-6.72,-5.98,-0.30,1.52,-0.89,-2.62,
4.201,-6.72,-5.98,-0.30,1.56,-0.95,-2.70,
4.201,-6.67,-6.07,0.08,1.56,-0.95,-2.70,
4.201,-6.67,-6.07,0.08,1.60,-1.02,-2.79,
4.201,-6.67,-6.07,0.08,1.65,-1.07,-2.88,
4.202,-6.52,-6.17,0.31,1.65,-1.07,-2.88,
4.202,-6.52,-6.17,0.31,1.69,-1.12,-2.98,
4.203,-6.34,-6.27,0.33,1.69,-1.12,-2.98,
4.203,-6.34,-6.27,0.33,1.73,-1.16,-3.07,
4.208,-6.34,-6.27,0.33,1.78,-1.19,-3.17,
4.21,-6.24,-6.30,0.28,1.78,-1.19,-3.17,
4.211,-6.24,-6.30,0.28,1.82,-1.22,-3.26,
4.211,-6.24,-6.30,0.28,1.86,-1.25,-3.35,
4.213,-6.24,-6.30,0.28,1.90,-1.28,-3.44,
4.214,-6.27,-6.21,0.10,1.90,-1.28,-3.44,
4.216,-6.27,-6.21,0.10,1.93,-1.33,-3.53,
4.218,-6.27,-6.21,0.10,1.96,-1.37,-3.62,
4.219,-6.24,-6.07,-0.10,1.96,-1.37,-3.62,
4.221,-6.24,-6.07,-0.10,1.99,-1.41,-3.70,
4.223,-6.18,-5.89,-0.18,1.99,-1.41,-3.70,
4.223,-6.18,-5.89,-0.18,2.02,-1.45,-3.78,
4.225,-6.18,-5.89,-0.18,2.05,-1.49,-3.86,
4.228,-6.10,-5.75,-0.19,2.05,-1.49,-3.86,
4.23,-6.10,-5.75,-0.19,2.08,-1.52,-3.94,
4.23,-6.10,-5.75,-0.19,2.11,-1.54,-4.01,
4.232,-6.10,-5.75,-0.19,2.14,-1.56,-4.09,
4.232,-5.97,-5.59,-0.18,2.14,-1.56,-4.09,
4.235,-5.97,-5.59,-0.18,2.16,-1.57,-4.16,
4.238,-5.97,-5.59,-0.18,2.19,-1.57,-4.23,
4.238,-5.80,-5.44,-0.10,2.19,-1.57,-4.23,
4.241,-5.80,-5.44,-0.10,2.22,-1.57,-4.30,
4.243,-5.59,-5.24,-0.06,2.22,-1.57,-4.30,
4.243,-5.59,-5.24,-0.06,2.25,-1.57,-4.37,
4.245,-5.59,-5.24,-0.06,2.27,-1.56,-4.44,
4.247,-5.59,-5.24,-0.06,2.29,-1.55,-4.51,
4.248,-5.42,-5.08,-0.03,2.29,-1.55,-4.51,
4.25,-5.42,-5.08,-0.03,2.31,-1.54,-4.58,
4.252,-5.17,-4.93,0.08,2.31,-1.54,-4.58,
4.253,-5.17,-4.93,0.08,2.33,-1.53,-4.66,
4.257,-5.17,-4.93,0.08,2.35,-1.50,-4.73,
4.258,-5.17,-4.93,0.08,2.37,-1.48,-4.80,
4.258,-4.92,-4.79,0.19,2.37,-1.48,-4.80,
4.263,-4.78,-4.65,0.28,2.37,-1.48,-4.80,
4.264,-4.78,-4.65,0.28,2.39,-1.44,-4.87,
4.264,-4.78,-4.65,0.28,2.41,-1.41,-4.94,
4.265,-4.78,-4.65,0.28,2.43,-1.38,-5.01,
4.267,-4.78,-4.65,0.28,2.45,-1.36,-5.07,
4.268,-4.60,-4.50,0.30,2.45,-1.36,-5.07,
4.27,-4.60,-4.50,0.30,2.48,-1.33,-5.14,
4.281,-4.60,-4.50,0.30,2.50,-1.31,-5.20,
4.282,-4.46,-4.34,0.38,2.50,-1.31,-5.20,
4.282,-4.46,-4.34,0.38,2.52,-1.30,-5.27,
4.283,-4.46,-4.34,0.38,2.55,-1.29,-5.33,
4.283,-4.31,-4.16,0.35,2.55,-1.29,-5.33,
4.283,-4.31,-4.16,0.35,2.57,-1.27,-5.40,
4.283,-3.99,-3.94,0.30,2.57,-1.27,-5.40,
4.283,-3.99,-3.94,0.30,2.59,-1.24,-5.46,
4.287,-3.99,-3.94,0.30,2.61,-1.21,-5.53,
4.302,-3.59,-3.63,0.27,2.61,-1.21,-5.53,
4.303,-3.59,-3.63,0.27,2.63,-1.18,-5.60,
4.303,-3.59,-3.63,0.27,2.65,-1.13,-5.67,
4.303,-3.17,-3.24,0.34,2.65,-1.13,-5.67,
4.303,-3.17,-3.24,0.34,2.67,-1.10,-5.74,
4.304,-3.17,-3.24,0.34,2.68,-1.07,-5.82,
4.304,-3.17,-3.24,0.34,2.70,-1.04,-5.90,
4.304,-2.68,-2.77,0.53,2.70,-1.04,-5.90,
4.305,-2.68,-2.77,0.53,2.71,-1.02,-5.99,
4.305,-2.68,-2.77,0.53,2.72,-1.02,-6.07,
4.305,-2.43,-2.29,0.89,2.72,-1.02,-6.07,
4.305,-2.43,-2.29,0.89,2.73,-1.03,-6.16,
4.31,-2.43,-2.29,0.89,2.74,-1.03,-6.24,
4.311,-2.30,-1.85,1.14,2.74,-1.03,-6.24,
4.311,-2.30,-1.85,1.14,2.75,-1.03,-6.33,
4.313,-2.03,-1.42,1.23,2.75,-1.03,-6.33,
4.313,-2.03,-1.42,1.23,2.75,-1.02,-6.41,
4.314,-2.03,-1.42,1.23,2.76,-1.00,-6.50,
4.317,-2.03,-1.42,1.23,2.76,-0.97,-6.58,
4.317,-1.65,-1.01,1.19,2.76,-0.97,-6.58,
4.319,-1.65,-1.01,1.19,2.75,-0.93,-6.66,
4.337,-1.65,-1.01,1.19,2.74,-0.89,-6.75,
4.337,-1.15,-0.50,1.14,2.74,-0.89,-6.75,
4.337,-1.15,-0.50,1.14,2.74,-0.86,-6.84,
4.338,-1.15,-0.50,1.14,2.73,-0.84,-6.92,
4.338,-0.79,0.04,1.22,2.73,-0.84,-6.92,
4.338,-0.79,0.04,1.22,2.72,-0.83,-7.01,
4.338,-0.79,0.04,1.22,2.71,-0.85,-7.10,
4.339,-0.53,0.71,1.48,2.71,-0.85,-7.10,
4.339,-0.53,0.71,1.48,2.70,-0.88,-7.19,
4.339,-0.53,0.71,1.48,2.69,-0.95,-7.27,
4.339,-0.32,1.47,1.74,2.69,-0.95,-7.27,
4.341,-0.32,1.47,1.74,2.68,-1.04,-7.35,
4.342,-0.32,1.47,1.74,2.66,-1.14,-7.44,
4.342,-0.15,2.40,1.99,2.66,-1.14,-7.44,
4.344,-0.15,2.40,1.99,2.65,-1.24,-7.52,
4.346,-0.15,2.40,1.99,2.64,-1.34,-7.60,
4.347,-0.06,3.62,2.23,2.64,-1.34,-7.60,
4.349,-0.06,3.62,2.23,2.63,-1.43,-7.66,
4.351,0.09,5.13,2.22,2.63,-1.43,-7.66,
4.352,0.09,5.13,2.22,2.62,-1.52,-7.72,
4.354,0.09,5.13,2.22,2.61,-1.62,-7.77,
4.358,0.09,5.13,2.22,2.59,-1.72,-7.80,
4.358,0.32,7.20,2.19,2.59,-1.72,-7.80,
4.36,0.32,7.20,2.19,2.57,-1.82,-7.82,
4.361,0.32,7.20,2.19,2.55,-1.93,-7.84,
4.362,0.77,9.64,2.17,2.55,-1.93,-7.84,
4.364,0.77,9.64,2.17,2.53,-2.04,-7.84,
4.366,0.77,9.64,2.17,2.50,-2.18,-7.84,
4.366,1.48,11.92,1.98,2.50,-2.18,-7.84,
4.369,1.48,11.92,1.98,2.48,-2.32,-7.82,
4.371,2.35,14.51,1.89,2.48,-2.32,-7.82,
4.373,2.35,14.51,1.89,2.46,-2.43,-7.79,
4.376,2.35,14.51,1.89,2.42,-2.53,-7.75,
4.376,2.35,14.51,1.89,2.39,-2.63,-7.69,
4.376,3.78,16.80,1.55,2.39,-2.63,-7.69,
4.379,3.78,16.80,1.55,2.35,-2.77,-7.62,
4.381,3.78,16.80,1.55,2.28,-2.91,-7.51,
4.381,5.06,18.08,0.36,2.28,-2.91,-7.51,
4.383,5.06,18.08,0.36,2.21,-3.03,-7.39,
4.387,5.06,18.08,0.36,2.13,-3.09,-7.26,
4.388,6.96,18.51,-0.38,2.13,-3.09,-7.26,
4.4,6.96,18.51,-0.38,2.06,-3.14,-7.10,
4.4,6.96,18.51,-0.38,1.98,-3.21,-6.91,
4.4,8.07,18.85,-0.12,1.98,-3.21,-6.91,
4.401,8.07,18.85,-0.12,1.91,-3.27,-6.69,
4.401,8.07,18.85,-0.12,1.84,-3.35,-6.43,
4.401,9.17,19.11,0.36,1.84,-3.35,-6.43,
4.403,9.17,19.11,0.36,1.79,-3.42,-6.16,
4.404,9.17,19.11,0.36,1.74,-3.50,-5.87,
4.404,10.83,19.28,0.84,1.74,-3.50,-5.87,
4.404,10.83,19.28,0.84,1.70,-3.55,-5.58,
4.408,10.83,19.28,0.84,1.67,-3.42,-5.28,
4.408,13.58,19.04,-1.01,1.67,-3.42,-5.28,
4.409,13.58,19.04,-1.01,1.65,-3.15,-5.00,
4.411,15.79,19.70,-1.68,1.65,-3.15,-5.00,
4.412,15.79,19.70,-1.68,1.63,-2.95,-4.70,
4.414,15.79,19.70,-1.68,1.59,-2.80,-4.35,
4.416,15.79,19.70,-1.68,1.55,-2.69,-3.96,
4.416,17.00,18.67,-2.54,1.55,-2.69,-3.96,
4.418,17.00,18.67,-2.54,1.52,-2.68,-3.54,
4.421,17.00,18.67,-2.54,1.50,-2.66,-3.10,
4.422,17.54,14.71,-1.32,1.50,-2.66,-3.10,
4.432,17.54,14.71,-1.32,1.48,-2.56,-2.67,
4.433,17.54,14.71,-1.32,1.41,-2.44,-2.25,
4.433,19.22,9.93,-1.07,1.41,-2.44,-2.25,
4.433,19.22,9.93,-1.07,1.24,-2.37,-1.86,
4.433,19.22,9.93,-1.07,1.05,-2.31,-1.47,
4.433,21.73,5.50,-0.46,1.05,-2.31,-1.47,
4.436,21.73,5.50,-0.46,0.90,-2.18,-1.03,
4.436,21.73,5.50,-0.46,0.72,-1.94,-0.52,
4.436,20.88,3.94,-2.16,0.72,-1.94,-0.52,
4.438,20.88,3.94,-2.16,0.56,-1.62,0.05,
4.442,20.88,3.94,-2.16,0.41,-1.26,0.65,
4.442,20.45,3.36,-1.79,0.41,-1.26,0.65,
4.443,20.45,3.36,-1.79,0.26,-0.93,1.29,
4.446,20.45,3.36,-1.79,0.13,-0.65,1.92,
4.446,20.96,2.65,0.14,0.13,-0.65,1.92,
4.448,20.96,2.65,0.14,0.02,-0.47,2.50,
4.451,20.96,2.65,0.14,-0.10,-0.42,3.02,
4.451,21.80,1.84,2.40,-0.10,-0.42,3.02,
4.453,21.80,1.84,2.40,-0.21,-0.52,3.49,
4.457,21.80,1.84,2.40,-0.31,-0.72,3.89,
4.457,22.23,1.65,3.65,-0.31,-0.72,3.89,
4.459,22.23,1.65,3.65,-0.44,-0.99,4.21,
4.461,22.23,1.65,3.65,-0.57,-1.27,4.47,
4.461,22.00,2.33,2.08,-0.57,-1.27,4.47,
4.464,22.00,2.33,2.08,-0.66,-1.49,4.69,
4.467,21.70,2.92,-0.65,-0.66,-1.49,4.69,
4.468,21.70,2.92,-0.65,-0.73,-1.62,4.79,
4.469,21.70,2.92,-0.65,-0.79,-1.62,4.70,
4.47,21.70,2.92,-0.65,-0.93,-1.46,4.35,
4.471,20.85,3.50,-6.17,-0.93,-1.46,4.35,
4.475,20.85,3.50,-6.17,-1.15,-1.09,3.79,
4.476,20.85,3.50,-6.17,-1.34,-0.52,3.06,
4.476,14.04,5.00,-9.72,-1.34,-0.52,3.06,
4.478,14.04,5.00,-9.72,-1.37,0.22,2.16,
4.48,14.04,5.00,-9.72,-1.18,1.07,1.21,
4.481,4.80,9.74,-1.31,-1.18,1.07,1.21,
4.483,4.80,9.74,-1.31,-0.93,1.95,0.33,
4.485,4.80,9.74,-1.31,-0.76,2.65,-0.24,
4.503,-4.48,17.38,6.98,-0.76,2.65,-0.24,
4.504,-4.48,17.38,6.98,-0.55,2.88,-0.32,
4.504,-4.48,17.38,6.98,-0.08,2.62,0.05,
4.504,-12.94,21.37,14.75,-0.08,2.62,0.05,
4.505,-12.94,21.37,14.75,0.51,1.93,0.71,
4.505,-12.94,21.37,14.75,1.14,0.89,1.51,
4.505,-13.21,21.46,8.78,1.14,0.89,1.51,
4.506,-13.21,21.46,8.78,1.53,-0.43,2.39,
4.506,-13.21,21.46,8.78,1.51,-1.85,3.27,
4.506,-11.10,20.79,-3.64,1.51,-1.85,3.27,
4.507,-11.10,20.79,-3.64,1.09,-3.16,4.09,
4.507,-11.10,20.79,-3.64,0.49,-4.17,4.80,
4.507,-8.88,18.29,-13.02,0.49,-4.17,4.80,
4.513,-8.88,18.29,-13.02,-0.08,-4.77,5.35,
4.515,-8.88,18.29,-13.02,-0.51,-4.90,5.75,
4.515,-7.04,13.10,-14.54,-0.51,-4.90,5.75,
4.516,-7.04,13.10,-14.54,-0.79,-4.57,5.99,
4.516,-7.04,13.10,-14.54,-0.92,-3.96,6.04,
4.516,-3.93,5.90,-8.24,-0.92,-3.96,6.04,
4.518,-3.93,5.90,-8.24,-0.86,-3.28,5.89,
4.524,1.93,-2.57,3.49,-0.86,-3.28,5.89,
4.524,1.93,-2.57,3.49,-0.60,-2.71,5.58,
4.524,1.93,-2.57,3.49,-0.23,-2.32,5.16,
4.529,1.93,-2.57,3.49,0.19,-2.20,4.69,
4.529,7.63,-10.58,9.36,0.19,-2.20,4.69,
4.529,7.63,-10.58,9.36,0.56,-2.34,4.24,
4.53,9.54,-14.18,5.83,0.56,-2.34,4.24,
4.53,9.54,-14.18,5.83,0.76,-2.63,3.89,
4.532,9.54,-14.18,5.83,0.79,-2.94,3.66,
4.535,9.54,-14.53,-2.94,0.79,-2.94,3.66,
4.535,9.54,-14.53,-2.94,0.66,-3.12,3.55,
4.541,9.54,-14.53,-2.94,0.39,-3.11,3.55,
4.544,10.21,-13.56,-9.46,0.39,-3.11,3.55,
4.545,10.21,-13.56,-9.46,-0.00,-2.89,3.64,
4.545,10.21,-13.56,-9.46,-0.46,-2.51,3.81,
4.545,13.28,-12.40,-6.05,-0.46,-2.51,3.81,
4.545,13.28,-12.40,-6.05,-0.87,-2.04,3.99,
4.548,13.28,-12.40,-6.05,-1.12,-1.53,4.13,
4.551,18.57,-9.36,3.08,-1.12,-1.53,4.13,
4.551,18.57,-9.36,3.08,-1.17,-1.02,4.14,
4.553,18.57,-9.36,3.08,-1.05,-0.51,3.98,
4.555,18.57,-9.36,3.08,-0.81,0.01,3.64,
4.555,23.44,-4.55,10.30,-0.81,0.01,3.64,
4.558,23.44,-4.55,10.30,-0.51,0.54,3.19,
4.56,24.47,0.69,10.60,-0.51,0.54,3.19,
4.56,24.47,0.69,10.60,-0.23,1.07,2.69,
4.562,24.47,0.69,10.60,0.03,1.56,2.21,
4.565,22.59,4.75,6.66,0.03,1.56,2.21,
4.565,22.59,4.75,6.66,0.24,2.02,1.78,
4.567,22.59,4.75,6.66,0.38,2.40,1.42,
4.57,19.31,6.92,3.61,0.38,2.40,1.42,
4.57,19.31,6.92,3.61,0.49,2.66,1.14,
4.572,19.31,6.92,3.61,0.56,2.79,0.94,
4.576,12.38,6.25,1.84,0.56,2.79,0.94,
4.576,12.38,6.25,1.84,0.62,2.83,0.82,
4.577,12.38,6.25,1.84,0.67,2.75,0.73,
4.581,6.61,3.39,2.74,0.67,2.75,0.73,
4.581,6.61,3.39,2.74,0.73,2.57,0.65,
4.582,6.61,3.39,2.74,0.79,2.33,0.59,
4.585,0.87,0.64,3.03,0.79,2.33,0.59,
4.585,0.87,0.64,3.03,0.83,2.03,0.56,
4.587,0.87,0.64,3.03,0.86,1.78,0.58,
4.597,-4.85,-1.40,1.60,0.86,1.78,0.58,
4.598,-4.85,-1.40,1.60,0.87,1.61,0.63,
4.598,-4.85,-1.40,1.60,0.85,1.51,0.73,
4.6,-4.85,-1.40,1.60,0.79,1.46,0.85,
4.6,-8.84,-2.98,-1.21,0.79,1.46,0.85,
4.6,-8.84,-2.98,-1.21,0.70,1.45,0.96,
4.6,-8.71,-3.65,-2.58,0.70,1.45,0.96,
4.601,-8.71,-3.65,-2.58,0.60,1.41,1.02,
4.602,-8.71,-3.65,-2.58,0.49,1.27,1.05,
4.605,-8.71,-3.65,-2.58,0.40,1.03,1.06,
4.605,-8.06,-3.04,-1.24,0.40,1.03,1.06,
4.612,-8.06,-3.04,-1.24,0.33,0.68,1.10,
4.613,-8.12,-1.50,0.18,0.33,0.68,1.10,
4.613,-8.12,-1.50,0.18,0.26,0.27,1.17,
4.613,-8.12,-1.50,0.18,0.20,-0.15,1.29,
4.615,-8.12,-1.50,0.18,0.16,-0.52,1.42,
4.615,-7.60,-0.10,0.59,0.16,-0.52,1.42,
4.617,-7.60,-0.10,0.59,0.14,-0.80,1.54,
4.619,-7.60,-0.10,0.59,0.12,-0.97,1.60,
4.619,-3.78,0.23,0.00,0.12,-0.97,1.60,
4.621,-3.78,0.23,0.00,0.11,-1.07,1.62,
4.625,-0.53,0.13,-0.64,0.11,-1.07,1.62,
4.626,-0.53,0.13,-0.64,0.10,-1.12,1.61,
4.627,-0.53,0.13,-0.64,0.09,-1.14,1.59,
4.629,-0.53,0.13,-0.64,0.08,-1.13,1.57,
4.629,1.53,0.05,-1.23,0.08,-1.13,1.57,
4.631,1.53,0.05,-1.23,0.07,-1.10,1.54,
4.635,1.53,0.05,-1.23,0.07,-1.04,1.51,
4.635,2.96,0.00,-1.69,0.07,-1.04,1.51,
4.636,2.96,0.00,-1.69,0.07,-0.96,1.47,
4.639,4.19,-0.01,-1.82,0.07,-0.96,1.47,
4.639,4.19,-0.01,-1.82,0.07,-0.86,1.42,
4.642,4.19,-0.01,-1.82,0.07,-0.74,1.36,
4.644,5.21,-0.01,-1.50,0.07,-0.74,1.36,
4.644,5.21,-0.01,-1.50,0.07,-0.60,1.28,
4.646,5.21,-0.01,-1.50,0.08,-0.46,1.19,
4.649,5.21,-0.01,-1.50,0.09,-0.31,1.09,
4.649,5.80,-0.00,-0.98,0.09,-0.31,1.09,
4.67,5.80,-0.00,-0.98,0.11,-0.15,0.99,
4.67,5.96,-0.06,-0.56,0.11,-0.15,0.99,
4.67,5.96,-0.06,-0.56,0.13,-0.00,0.89,
4.671,5.96,-0.06,-0.56,0.14,0.15,0.79,
4.671,5.56,-0.29,-0.39,0.14,0.15,0.79,
4.671,5.56,-0.29,-0.39,0.16,0.29,0.70,
4.672,5.56,-0.29,-0.39,0.17,0.43,0.62,
4.672,5.56,-0.29,-0.39,0.18,0.56,0.54,
4.672,4.60,-0.44,-0.39,0.18,0.56,0.54,
4.673,4.60,-0.44,-0.39,0.19,0.67,0.48,
4.673,4.60,-0.44,-0.39,0.19,0.78,0.42,
4.673,3.34,-0.40,-0.37,0.19,0.78,0.42,
4.674,3.34,-0.40,-0.37,0.20,0.88,0.38,
4.681,3.34,-0.40,-0.37,0.21,0.95,0.35,
4.682,2.01,-0.30,-0.40,0.21,0.95,0.35,
4.683,2.01,-0.30,-0.40,0.22,1.01,0.32,
4.683,2.01,-0.30,-0.40,0.22,1.05,0.31,
4.684,0.77,-0.18,-0.37,0.22,1.05,0.31,
4.684,0.77,-0.18,-0.37,0.22,1.06,0.30,
4.685,0.77,-0.18,-0.37,0.22,1.04,0.31,
4.685,-0.34,-0.10,-0.28,0.22,1.04,0.31,
4.686,-0.34,-0.10,-0.28,0.21,1.01,0.32,
4.689,-0.34,-0.10,-0.28,0.21,0.96,0.34,
4.689,-1.29,-0.14,-0.17,0.21,0.96,0.34,
4.692,-1.29,-0.14,-0.17,0.20,0.90,0.36,
4.696,-2.04,-0.23,0.01,0.20,0.90,0.36,
4.696,-2.04,-0.23,0.01,0.19,0.84,0.39,
4.697,-2.04,-0.23,0.01,0.18,0.76,0.43,
4.698,-2.04,-0.23,0.01,0.17,0.69,0.46,
4.699,-2.54,-0.27,0.24,0.17,0.69,0.46,
4.701,-2.54,-0.27,0.24,0.17,0.62,0.50,
4.703,-2.54,-0.27,0.24,0.16,0.56,0.54,
4.704,-2.73,-0.13,0.34,0.16,0.56,0.54,
4.709,-2.73,-0.13,0.34,0.16,0.50,0.57,
4.709,-2.67,0.12,0.52,0.16,0.50,0.57,
4.71,-2.67,0.12,0.52,0.15,0.45,0.61,
4.711,-2.67,0.12,0.52,0.15,0.39,0.64,
4.714,-2.67,0.12,0.52,0.15,0.33,0.68,
4.714,-2.37,0.42,0.73,0.15,0.33,0.68,
4.716,-2.37,0.42,0.73,0.15,0.27,0.71,
4.719,-2.37,0.42,0.73,0.15,0.22,0.73,
4.719,-1.90,0.57,0.60,0.15,0.22,0.73,
4.721,-1.90,0.57,0.60,0.16,0.18,0.76,
4.726,-1.90,0.57,0.60,0.16,0.15,0.78,
4.728,-1.34,0.53,0.31,0.16,0.15,0.78,
4.728,-1.34,0.53,0.31,0.16,0.13,0.79,
4.728,-1.34,0.53,0.31,0.16,0.11,0.81,
4.728,-0.78,0.39,0.05,0.16,0.11,0.81,
4.731,-0.78,0.39,0.05,0.15,0.11,0.81,
4.734,-0.78,0.39,0.05,0.16,0.11,0.81,
4.735,-0.26,0.21,-0.11,0.16,0.11,0.81,
4.736,-0.26,0.21,-0.11,0.16,0.13,0.81,
4.739,-0.26,0.21,-0.11,0.15,0.15,0.80,
4.739,0.21,0.06,-0.31,0.15,0.15,0.80,
4.741,0.21,0.06,-0.31,0.15,0.19,0.79,
4.744,0.21,0.06,-0.31,0.15,0.23,0.78,
4.744,0.64,-0.04,-0.44,0.15,0.23,0.78,
4.746,0.64,-0.04,-0.44,0.15,0.29,0.77,
4.749,0.64,-0.04,-0.44,0.15,0.34,0.75,
4.749,0.91,-0.06,-0.47,0.15,0.34,0.75,
4.75,0.91,-0.06,-0.47,0.14,0.40,0.73,
4.753,0.91,-0.06,-0.47,0.15,0.46,0.72,
4.753,0.95,-0.01,-0.43,0.15,0.46,0.72,
4.756,0.95,-0.01,-0.43,0.15,0.52,0.71,
4.759,0.95,-0.01,-0.43,0.15,0.61,0.70,
4.759,0.60,0.21,-0.64,0.15,0.61,0.70,
4.76,0.60,0.21,-0.64,0.15,0.71,0.70,
4.763,0.60,0.21,-0.64,0.15,0.79,0.70,
4.763,-0.02,0.59,-0.72,0.15,0.79,0.70,
4.765,-0.02,0.59,-0.72,0.15,0.87,0.72,
4.768,-0.02,0.59,-0.72,0.15,0.94,0.75,
4.768,-0.91,0.86,-0.71,0.15,0.94,0.75,
4.77,-0.91,0.86,-0.71,0.14,0.93,0.78,
4.775,-0.91,0.86,-0.71,0.14,0.86,0.79,
4.776,-0.91,0.86,-0.71,0.14,0.76,0.81,
4.777,-1.20,0.46,0.20,0.14,0.76,0.81,
4.778,-1.20,0.46,0.20,0.12,0.65,0.82,
4.779,-1.56,-0.05,0.14,0.12,0.65,0.82,
4.78,-1.56,-0.05,0.14,0.11,0.56,0.83,
4.783,-2.07,-0.11,-0.37,0.11,0.56,0.83,
4.784,-2.07,-0.11,-0.37,0.09,0.49,0.85,
4.785,-2.07,-0.11,-0.37,0.07,0.44,0.88,
4.788,-2.07,-0.11,-0.37,0.05,0.40,0.91,
4.788,-2.22,0.04,-0.50,0.05,0.40,0.91,
4.8,-2.22,0.04,-0.50,0.04,0.37,0.95,
4.801,-1.85,0.18,-0.34,0.04,0.37,0.95,
4.801,-1.85,0.18,-0.34,0.02,0.34,0.98,
4.801,-1.85,0.18,-0.34,0.02,0.34,1.01,
4.802,-1.85,0.18,-0.34,0.01,0.36,1.03,
4.802,-1.08,0.51,-0.72,0.01,0.36,1.03,
4.802,-1.08,0.51,-0.72,-0.01,0.35,1.04,
4.803,-1.08,0.51,-0.72,-0.03,0.28,1.04,
4.803,-0.12,0.76,-0.79,-0.03,0.28,1.04,
4.81,-0.12,0.76,-0.79,-0.05,0.19,1.04,
4.811,0.05,0.71,-0.43,-0.05,0.19,1.04,
4.811,0.05,0.71,-0.43,-0.06,0.12,1.04,
4.811,0.05,0.71,-0.43,-0.06,0.11,1.05,
4.822,-0.07,0.35,-0.12,-0.06,0.11,1.05,
4.824,-0.07,0.35,-0.12,-0.05,0.15,1.05,
4.824,-0.07,0.35,-0.12,-0.04,0.23,1.05,
4.849,-0.07,0.35,-0.12,-0.03,0.34,1.05,
4.85,0.10,0.03,-0.22,-0.03,0.34,1.05,
4.85,0.10,0.03,-0.22,-0.01,0.46,1.05,
4.851,0.10,0.03,-0.22,-0.01,0.56,1.05,
4.851,0.43,-0.08,-0.25,-0.01,0.56,1.05,
4.852,0.43,-0.08,-0.25,-0.00,0.65,1.04,
4.852,0.43,-0.08,-0.25,0.00,0.72,1.04,
4.853,0.44,-0.01,-0.28,0.00,0.72,1.04,
4.853,0.44,-0.01,-0.28,-0.00,0.78,1.04,
4.854,0.05,0.22,-0.39,-0.00,0.78,1.04,
4.854,0.05,0.22,-0.39,-0.01,0.82,1.04,
4.854,0.05,0.22,-0.39,-0.02,0.85,1.05,
4.855,0.05,0.22,-0.39,-0.03,0.85,1.05,
4.855,-0.33,0.35,-0.27,-0.03,0.85,1.05,
4.855,-0.33,0.35,-0.27,-0.03,0.84,1.05,
4.855,-0.33,0.35,-0.27,-0.04,0.81,1.06,
4.856,-0.86,0.43,-0.21,-0.04,0.81,1.06,
4.856,-0.86,0.43,-0.21,-0.06,0.78,1.07,
4.856,-1.27,0.53,-0.32,-0.06,0.78,1.07,
4.856,-1.27,0.53,-0.32,-0.07,0.76,1.08,
4.857,-1.27,0.53,-0.32,-0.09,0.74,1.09,
4.857,-1.27,0.53,-0.32,-0.11,0.72,1.11,
4.857,-1.64,0.73,-0.07,-0.11,0.72,1.11,
4.857,-1.64,0.73,-0.07,-0.13,0.69,1.13,
4.858,-1.64,0.73,-0.07,-0.14,0.67,1.15,
4.858,-1.78,1.10,0.34,-0.14,0.67,1.15,
4.86,-1.78,1.10,0.34,-0.14,0.65,1.17,
4.862,-1.78,1.10,0.34,-0.15,0.64,1.18,
4.862,-1.43,1.34,0.43,-0.15,0.64,1.18,
4.864,-1.43,1.34,0.43,-0.14,0.63,1.20,
4.867,-1.43,1.34,0.43,-0.14,0.63,1.22,
4.867,-1.19,1.54,0.21,-0.14,0.63,1.22,
4.869,-1.19,1.54,0.21,-0.15,0.64,1.23,
4.872,-1.19,1.54,0.21,-0.15,0.64,1.25,
4.872,-1.06,1.52,0.30,-0.15,0.64,1.25,
4.875,-1.06,1.52,0.30,-0.15,0.63,1.27,
4.877,-0.82,1.63,0.14,-0.15,0.63,1.27,
4.877,-0.82,1.63,0.14,-0.16,0.62,1.28,
4.879,-0.82,1.63,0.14,-0.17,0.63,1.29,
4.882,-0.82,1.63,0.14,-0.17,0.63,1.30,
4.882,-0.88,1.59,0.10,-0.17,0.63,1.30,
4.884,-0.88,1.59,0.10,-0.18,0.64,1.31,
4.887,-0.88,1.59,0.10,-0.18,0.65,1.32,
4.887,-1.03,1.51,0.18,-0.18,0.65,1.32,
4.892,-1.03,1.51,0.18,-0.18,0.65,1.34,
4.894,-1.03,1.51,0.18,-0.20,0.67,1.36,
4.894,-1.25,1.54,-0.00,-0.20,0.67,1.36,
4.905,-1.25,1.54,-0.00,-0.21,0.67,1.38,
4.906,-1.25,1.54,-0.00,-0.22,0.67,1.40,
4.906,-1.40,1.63,0.07,-0.22,0.67,1.40,
4.906,-1.40,1.63,0.07,-0.23,0.67,1.42,
4.906,-1.40,1.63,0.07,-0.24,0.66,1.43,
4.931,-1.42,1.84,0.01,-0.24,0.66,1.43,
4.932,-1.42,1.84,0.01,-0.26,0.66,1.45,
4.932,-1.42,1.84,0.01,-0.28,0.67,1.46,
4.932,-1.37,1.90,-0.13,-0.28,0.67,1.46,
4.932,-1.37,1.90,-0.13,-0.29,0.68,1.48,
4.933,-1.37,1.90,-0.13,-0.31,0.68,1.50,
4.933,-1.57,2.02,-0.09,-0.31,0.68,1.50,
4.933,-1.57,2.02,-0.09,-0.33,0.68,1.53,
4.933,-1.57,2.02,-0.09,-0.34,0.67,1.56,
4.933,-2.12,1.90,0.26,-0.34,0.67,1.56,
4.934,-2.12,1.90,0.26,-0.35,0.64,1.59,
4.934,-2.12,1.90,0.26,-0.38,0.63,1.62,
4.935,-2.13,1.99,-0.39,-0.38,0.63,1.62,
4.935,-2.13,1.99,-0.39,-0.41,0.66,1.64,
4.935,-2.13,1.99,-0.39,-0.43,0.71,1.67,
4.936,-2.17,2.43,-0.88,-0.43,0.71,1.67,
4.936,-2.17,2.43,-0.88,-0.45,0.73,1.70,
4.936,-2.17,2.43,-0.88,-0.48,0.72,1.74,
4.937,-2.60,2.59,-0.46,-0.48,0.72,1.74,
4.937,-2.60,2.59,-0.46,-0.50,0.71,1.78,
4.937,-2.74,2.69,-0.78,-0.50,0.71,1.78,
4.938,-2.74,2.69,-0.78,-0.53,0.69,1.82,
4.94,-2.74,2.69,-0.78,-0.56,0.69,1.85,
4.942,-2.85,2.87,-0.80,-0.56,0.69,1.85,
4.942,-2.85,2.87,-0.80,-0.59,0.69,1.88,
4.945,-2.85,2.87,-0.80,-0.61,0.68,1.91,
4.947,-2.85,2.87,-0.80,-0.64,0.67,1.94,
4.948,-2.78,3.01,-0.77,-0.64,0.67,1.94,
4.949,-2.78,3.01,-0.77,-0.67,0.66,1.97,
4.952,-2.78,3.01,-0.77,-0.69,0.62,2.01,
4.953,-3.00,3.00,-0.68,-0.69,0.62,2.01,
4.955,-3.00,3.00,-0.68,-0.72,0.57,2.05,
4.958,-3.19,2.95,-0.56,-0.72,0.57,2.05,
4.959,-3.19,2.95,-0.56,-0.74,0.53,2.08,
4.96,-3.19,2.95,-0.56,-0.76,0.50,2.12,
4.961,-3.19,2.95,-0.56,-0.79,0.51,2.14,
4.962,-2.87,3.29,-1.15,-0.79,0.51,2.14,
4.964,-2.87,3.29,-1.15,-0.80,0.54,2.16,
4.966,-2.87,3.29,-1.15,-0.82,0.54,2.19,
