
time,ax,ay,az,wx,wy,wz,
0.002,-0.31,0.60,0.78,0.12,0.01,-0.08,
0.002,-0.27,0.61,0.83,0.12,0.01,-0.08,
0.003,-0.27,0.61,0.83,0.14,0.01,-0.09,
0.003,-0.27,0.61,0.83,0.17,0.01,-0.10,
0.004,-0.27,0.61,0.83,0.19,0.00,-0.10,
0.004,-0.18,0.70,0.71,0.19,0.00,-0.10,
0.007,-0.18,0.70,0.71,0.21,-0.01,-0.11,
0.009,-0.18,0.70,0.71,0.22,-0.01,-0.12,
0.009,-0.08,0.79,0.51,0.22,-0.01,-0.12,
0.013,-0.08,0.79,0.51,0.22,-0.03,-0.12,
0.014,0.01,0.87,0.28,0.22,-0.03,-0.12,
0.015,0.01,0.87,0.28,0.23,-0.04,-0.13,
0.016,0.01,0.87,0.28,0.23,-0.05,-0.13,
0.019,0.01,0.87,0.28,0.23,-0.06,-0.14,
0.019,0.07,0.96,0.05,0.23,-0.06,-0.14,
0.021,0.07,0.96,0.05,0.22,-0.07,-0.15,
0.024,0.07,0.96,0.05,0.22,-0.07,-0.15,
0.025,0.11,1.05,-0.21,0.22,-0.07,-0.15,
0.026,0.11,1.05,-0.21,0.21,-0.08,-0.16,
0.029,0.11,1.05,-0.21,0.20,-0.08,-0.17,
0.029,0.14,1.13,-0.54,0.20,-0.08,-0.17,
0.032,0.14,1.13,-0.54,0.18,-0.07,-0.17,
0.033,0.14,1.13,-0.54,0.16,-0.07,-0.18,
0.034,0.16,1.17,-0.88,0.16,-0.07,-0.18,
0.036,0.16,1.17,-0.88,0.14,-0.06,-0.19,
0.038,0.16,1.17,-0.88,0.11,-0.04,-0.20,
0.039,0.14,1.23,-1.23,0.11,-0.04,-0.20,
0.041,0.14,1.23,-1.23,0.10,-0.05,-0.19,
0.043,0.14,1.23,-1.23,0.14,-0.11,-0.17,
0.044,-0.82,1.29,0.54,0.14,-0.11,-0.17,
0.047,-0.82,1.29,0.54,0.16,-0.11,-0.15,
0.049,-0.82,1.29,0.54,0.17,-0.09,-0.13,
0.049,-0.80,1.21,-0.28,0.17,-0.09,-0.13,
0.052,-0.80,1.21,-0.28,0.16,-0.05,-0.12,
0.053,-0.80,1.21,-0.28,0.14,0.00,-0.11,
0.054,-0.53,1.26,-0.99,0.14,0.00,-0.11,
0.056,-0.53,1.26,-0.99,0.10,0.06,-0.11,
0.058,-0.53,1.26,-0.99,0.06,0.10,-0.12,
0.059,-0.26,1.20,-1.28,0.06,0.10,-0.12,
0.061,-0.26,1.20,-1.28,0.03,0.13,-0.13,
0.071,-0.26,1.20,-1.28,-0.00,0.13,-0.14,
0.071,-0.11,1.12,-1.22,-0.00,0.13,-0.14,
0.072,-0.11,1.12,-1.22,-0.03,0.12,-0.15,
0.072,-0.11,1.12,-1.22,-0.05,0.10,-0.16,
0.072,-0.11,0.92,-1.02,-0.05,0.10,-0.16,
0.073,-0.11,0.92,-1.02,-0.07,0.07,-0.17,
0.073,-0.11,0.92,-1.02,-0.09,0.04,-0.18,
0.074,-0.18,0.73,-0.73,-0.09,0.04,-0.18,
0.076,-0.18,0.73,-0.73,-0.10,0.01,-0.18,
0.079,-0.18,0.73,-0.73,-0.11,-0.03,-0.19,
0.08,-0.27,0.60,-0.33,-0.11,-0.03,-0.19,
0.081,-0.27,0.60,-0.33,-0.11,-0.06,-0.20,
0.083,-0.27,0.60,-0.33,-0.11,-0.10,-0.21,
0.084,-0.30,0.55,0.03,-0.11,-0.10,-0.21,
0.088,-0.30,0.55,0.03,-0.11,-0.15,-0.22,
0.089,-0.30,0.55,0.03,-0.10,-0.19,-0.23,
0.089,-0.25,0.59,0.34,-0.10,-0.19,-0.23,
0.091,-0.25,0.59,0.34,-0.09,-0.24,-0.24,
0.093,-0.25,0.59,0.34,-0.07,-0.28,-0.25,
0.093,-0.17,0.62,0.51,-0.07,-0.28,-0.25,
0.101,-0.17,0.62,0.51,-0.06,-0.32,-0.26,
0.106,-0.17,0.62,0.51,-0.04,-0.36,-0.28,
0.106,-0.08,0.68,0.51,-0.04,-0.36,-0.28,
0.107,-0.08,0.68,0.51,-0.03,-0.39,-0.29,
0.107,-0.08,0.68,0.51,-0.01,-0.41,-0.31,
0.107,0.04,0.73,0.41,-0.01,-0.41,-0.31,
0.107,0.04,0.73,0.41,-0.00,-0.43,-0.32,
0.108,0.04,0.73,0.41,0.00,-0.44,-0.34,
0.108,0.19,0.79,0.26,0.00,-0.44,-0.34,
0.11,0.19,0.79,0.26,0.01,-0.45,-0.36,
0.113,0.19,0.79,0.26,0.01,-0.45,-0.38,
0.113,0.34,0.80,0.09,0.01,-0.45,-0.38,
0.115,0.34,0.80,0.09,0.02,-0.44,-0.40,
0.118,0.34,0.80,0.09,0.02,-0.43,-0.43,
0.118,0.46,0.80,-0.01,0.02,-0.43,-0.43,
0.12,0.46,0.80,-0.01,0.02,-0.42,-0.45,
0.123,0.46,0.80,-0.01,0.02,-0.40,-0.47,
0.123,0.52,0.86,-0.06,0.02,-0.40,-0.47,
0.125,0.52,0.86,-0.06,0.03,-0.38,-0.49,
0.129,0.52,0.86,-0.06,0.03,-0.35,-0.51,
0.129,0.57,0.94,-0.13,0.03,-0.35,-0.51,
0.13,0.57,0.94,-0.13,0.04,-0.32,-0.53,
0.133,0.57,0.94,-0.13,0.04,-0.28,-0.55,
0.133,0.56,1.03,-0.20,0.04,-0.28,-0.55,
0.135,0.56,1.03,-0.20,0.04,-0.24,-0.57,
0.139,0.56,1.03,-0.20,0.04,-0.19,-0.58,
0.139,0.58,1.03,-0.37,0.04,-0.19,-0.58,
0.14,0.58,1.03,-0.37,0.04,-0.14,-0.60,
0.142,0.58,1.03,-0.37,0.03,-0.08,-0.62,
0.142,0.58,0.98,-0.61,0.03,-0.08,-0.62,
0.146,0.58,0.98,-0.61,0.02,-0.02,-0.63,
0.148,0.55,0.88,-0.89,0.02,-0.02,-0.63,
0.148,0.55,0.88,-0.89,-0.01,0.04,-0.65,
0.15,0.55,0.88,-0.89,-0.04,0.11,-0.67,
0.152,0.55,0.88,-0.89,-0.09,0.17,-0.69,
0.153,0.48,0.72,-1.13,-0.09,0.17,-0.69,
0.155,0.48,0.72,-1.13,-0.15,0.23,-0.71,
0.157,0.48,0.72,-1.13,-0.21,0.28,-0.74,
0.157,0.37,0.51,-1.28,-0.21,0.28,-0.74,
0.16,0.37,0.51,-1.28,-0.29,0.32,-0.76,
0.164,0.16,0.24,-1.21,-0.29,0.32,-0.76,
0.164,0.16,0.24,-1.21,-0.37,0.36,-0.78,
0.165,0.16,0.24,-1.21,-0.46,0.38,-0.80,
0.167,0.16,0.24,-1.21,-0.54,0.40,-0.82,
0.168,-0.02,0.01,-0.91,-0.54,0.40,-0.82,
0.17,-0.02,0.01,-0.91,-0.63,0.41,-0.84,
0.173,-0.26,-0.20,-0.40,-0.63,0.41,-0.84,
0.173,-0.26,-0.20,-0.40,-0.72,0.40,-0.86,
0.175,-0.26,-0.20,-0.40,-0.80,0.39,-0.87,
0.177,-0.26,-0.20,-0.40,-0.87,0.37,-0.88,
0.178,-0.46,-0.49,0.27,-0.87,0.37,-0.88,
0.18,-0.46,-0.49,0.27,-0.92,0.35,-0.90,
0.183,-0.61,-0.83,1.01,-0.92,0.35,-0.90,
0.183,-0.61,-0.83,1.01,-0.97,0.32,-0.91,
0.185,-0.61,-0.83,1.01,-1.01,0.28,-0.91,
0.188,-0.61,-0.83,1.01,-1.03,0.25,-0.93,
0.188,-0.68,-1.15,1.76,-1.03,0.25,-0.93,
0.189,-0.68,-1.15,1.76,-1.03,0.22,-0.94,
0.192,-0.68,-1.15,1.76,-1.02,0.18,-0.95,
0.192,-0.65,-1.47,2.43,-1.02,0.18,-0.95,
0.194,-0.65,-1.47,2.43,-0.99,0.15,-0.96,
0.198,-0.54,-1.77,2.98,-0.99,0.15,-0.96,
0.198,-0.54,-1.77,2.98,-0.95,0.12,-0.98,
0.199,-0.54,-1.77,2.98,-0.89,0.10,-1.00,
0.203,-0.54,-1.77,2.98,-0.83,0.09,-1.03,
0.203,-0.37,-2.08,3.35,-0.83,0.09,-1.03,
0.205,-0.37,-2.08,3.35,-0.74,0.08,-1.05,
0.208,-0.16,-2.38,3.43,-0.74,0.08,-1.05,
0.208,-0.16,-2.38,3.43,-0.65,0.09,-1.08,
0.209,-0.16,-2.38,3.43,-0.55,0.11,-1.11,
0.213,0.01,-2.65,3.22,-0.55,0.11,-1.11,
0.213,0.01,-2.65,3.22,-0.44,0.14,-1.14,
0.214,0.01,-2.65,3.22,-0.33,0.18,-1.17,
0.217,0.01,-2.65,3.22,-0.22,0.24,-1.21,
0.217,0.21,-2.92,2.76,-0.22,0.24,-1.21,
0.22,0.21,-2.92,2.76,-0.11,0.30,-1.24,
0.222,0.21,-2.92,2.76,-0.00,0.38,-1.28,
0.222,0.47,-3.12,2.14,-0.00,0.38,-1.28,
0.225,0.47,-3.12,2.14,0.10,0.46,-1.32,
0.227,0.47,-3.12,2.14,0.20,0.56,-1.37,
0.227,0.74,-3.20,1.47,0.20,0.56,-1.37,
0.23,0.74,-3.20,1.47,0.30,0.66,-1.41,
0.232,1.00,-3.18,0.75,0.30,0.66,-1.41,
0.232,1.00,-3.18,0.75,0.39,0.76,-1.46,
0.235,1.00,-3.18,0.75,0.48,0.87,-1.51,
0.237,1.16,-3.10,0.06,0.48,0.87,-1.51,
0.237,1.16,-3.10,0.06,0.56,0.98,-1.56,
0.239,1.16,-3.10,0.06,0.64,1.09,-1.60,
0.242,1.20,-3.06,-0.74,0.64,1.09,-1.60,
0.242,1.20,-3.06,-0.74,0.70,1.20,-1.65,
0.244,1.20,-3.06,-0.74,0.75,1.31,-1.69,
0.248,1.20,-3.06,-0.74,0.78,1.42,-1.73,
0.248,1.18,-3.04,-1.53,0.78,1.42,-1.73,
0.249,1.18,-3.04,-1.53,0.80,1.52,-1.77,
0.252,1.18,-3.04,-1.53,0.81,1.63,-1.81,
0.252,1.09,-2.92,-2.23,0.81,1.63,-1.81,
0.254,1.09,-2.92,-2.23,0.79,1.73,-1.84,
0.257,1.09,-2.92,-2.23,0.77,1.82,-1.88,
0.257,0.88,-2.81,-2.73,0.77,1.82,-1.88,
0.259,0.88,-2.81,-2.73,0.74,1.91,-1.91,
0.271,0.57,-2.71,-3.03,0.74,1.91,-1.91,
0.295,0.57,-2.71,-3.03,0.70,1.98,-1.94,
0.295,0.57,-2.71,-3.03,0.65,2.05,-1.98,
0.295,0.20,-2.61,-3.12,0.65,2.05,-1.98,
0.295,0.20,-2.61,-3.12,0.60,2.10,-2.00,
0.295,0.20,-2.61,-3.12,0.54,2.14,-2.03,
0.296,-0.16,-2.50,-3.08,0.54,2.14,-2.03,
0.296,-0.16,-2.50,-3.08,0.49,2.17,-2.05,
0.296,-0.16,-2.50,-3.08,0.43,2.19,-2.07,
0.296,-0.16,-2.50,-3.08,0.38,2.20,-2.08,
0.296,-0.51,-2.54,-2.98,0.38,2.20,-2.08,
0.296,-0.51,-2.54,-2.98,0.32,2.21,-2.08,
0.297,-0.51,-2.54,-2.98,0.27,2.20,-2.09,
0.297,-0.78,-2.74,-2.81,0.27,2.20,-2.09,
0.297,-0.78,-2.74,-2.81,0.22,2.20,-2.09,
0.297,-0.89,-3.13,-2.63,0.22,2.20,-2.09,
0.297,-0.89,-3.13,-2.63,0.18,2.18,-2.10,
0.297,-0.89,-3.13,-2.63,0.14,2.17,-2.11,
0.298,-0.89,-3.13,-2.63,0.11,2.14,-2.12,
0.298,-0.80,-3.67,-2.31,0.11,2.14,-2.12,
0.298,-0.80,-3.67,-2.31,0.08,2.11,-2.14,
0.298,-0.52,-4.18,-2.04,0.08,2.11,-2.14,
0.298,-0.52,-4.18,-2.04,0.06,2.08,-2.17,
0.299,-0.52,-4.18,-2.04,0.04,2.06,-2.21,
0.302,-0.19,-4.67,-1.83,0.04,2.06,-2.21,
0.302,-0.19,-4.67,-1.83,0.04,2.03,-2.25,
0.304,-0.19,-4.67,-1.83,0.04,2.02,-2.29,
0.306,-0.19,-4.67,-1.83,0.05,2.00,-2.34,
0.306,0.16,-5.24,-1.65,0.05,2.00,-2.34,
0.309,0.16,-5.24,-1.65,0.07,1.99,-2.40,
0.313,0.16,-5.24,-1.65,0.09,1.99,-2.46,
0.313,0.60,-5.74,-1.47,0.09,1.99,-2.46,
0.316,0.60,-5.74,-1.47,0.12,1.99,-2.54,
0.316,0.60,-5.74,-1.47,0.16,2.00,-2.62,
0.316,1.08,-6.18,-1.46,0.16,2.00,-2.62,
0.32,1.08,-6.18,-1.46,0.20,2.03,-2.70,
0.322,1.47,-6.47,-1.58,0.20,2.03,-2.70,
0.322,1.47,-6.47,-1.58,0.25,2.08,-2.79,
0.324,1.47,-6.47,-1.58,0.31,2.14,-2.88,
0.326,1.47,-6.47,-1.58,0.37,2.21,-2.97,
0.326,1.80,-6.77,-1.78,0.37,2.21,-2.97,
0.329,1.80,-6.77,-1.78,0.44,2.30,-3.06,
0.332,2.15,-7.06,-2.01,0.44,2.30,-3.06,
0.333,2.15,-7.06,-2.01,0.51,2.40,-3.16,
0.334,2.15,-7.06,-2.01,0.58,2.52,-3.26,
0.336,2.15,-7.06,-2.01,0.66,2.64,-3.35,
0.336,2.50,-7.31,-2.34,0.66,2.64,-3.35,
0.34,2.50,-7.31,-2.34,0.74,2.79,-3.45,
0.341,2.50,-7.31,-2.34,0.83,2.95,-3.55,
0.341,2.82,-7.56,-2.72,0.83,2.95,-3.55,
0.343,2.82,-7.56,-2.72,0.92,3.13,-3.64,
0.346,3.08,-7.82,-3.16,0.92,3.13,-3.64,
0.346,3.08,-7.82,-3.16,1.01,3.32,-3.74,
0.349,3.08,-7.82,-3.16,1.10,3.52,-3.84,
0.352,3.32,-8.08,-3.56,1.10,3.52,-3.84,
0.356,3.32,-8.08,-3.56,1.20,3.73,-3.94,
0.356,3.32,-8.08,-3.56,1.29,3.94,-4.04,
0.356,3.32,-8.08,-3.56,1.38,4.17,-4.14,
0.356,3.50,-8.32,-4.00,1.38,4.17,-4.14,
0.358,3.50,-8.32,-4.00,1.47,4.39,-4.24,
0.361,3.50,-8.32,-4.00,1.56,4.62,-4.33,
0.361,3.59,-8.53,-4.40,1.56,4.62,-4.33,
0.365,3.59,-8.53,-4.40,1.65,4.85,-4.43,
0.369,3.59,-8.53,-4.40,1.73,5.09,-4.53,
0.369,3.70,-8.64,-4.72,1.73,5.09,-4.53,
0.369,3.70,-8.64,-4.72,1.81,5.32,-4.63,
0.371,3.80,-8.80,-4.88,1.81,5.32,-4.63,
0.371,3.80,-8.80,-4.88,1.89,5.54,-4.73,
0.373,3.80,-8.80,-4.88,1.97,5.77,-4.83,
0.376,3.80,-8.80,-4.88,2.04,5.99,-4.92,
0.376,3.88,-8.96,-4.93,2.04,5.99,-4.92,
0.378,3.88,-8.96,-4.93,2.12,6.21,-5.02,
0.381,3.88,-8.96,-4.93,2.21,6.43,-5.12,
0.381,3.99,-9.08,-4.85,2.21,6.43,-5.12,
0.383,3.99,-9.08,-4.85,2.30,6.64,-5.22,
0.386,3.99,-9.08,-4.85,2.39,6.84,-5.32,
0.386,4.22,-9.27,-4.78,2.39,6.84,-5.32,
0.388,4.22,-9.27,-4.78,2.48,7.03,-5.42,
0.39,4.22,-9.27,-4.78,2.59,7.21,-5.53,
0.392,4.51,-9.64,-4.68,2.59,7.21,-5.53,
0.394,4.51,-9.64,-4.68,2.69,7.38,-5.64,
0.396,4.71,-10.09,-4.57,2.69,7.38,-5.64,
0.396,4.71,-10.09,-4.57,2.80,7.53,-5.76,
0.399,4.71,-10.09,-4.57,2.90,7.67,-5.88,
0.4,4.71,-10.09,-4.57,3.00,7.80,-6.00,
0.401,4.85,-10.29,-4.47,3.00,7.80,-6.00,
0.403,4.85,-10.29,-4.47,3.10,7.92,-6.12,
0.406,4.85,-10.29,-4.47,3.20,8.03,-6.23,
0.407,4.73,-10.42,-4.36,3.20,8.03,-6.23,
0.408,4.73,-10.42,-4.36,3.29,8.11,-6.35,
0.411,4.73,-10.42,-4.36,3.38,8.16,-6.46,
0.412,4.50,-10.49,-4.16,3.38,8.16,-6.46,
0.413,4.50,-10.49,-4.16,3.45,8.18,-6.58,
0.416,4.50,-10.49,-4.16,3.52,8.17,-6.69,
0.416,4.27,-10.30,-3.98,3.52,8.17,-6.69,
0.418,4.27,-10.30,-3.98,3.58,8.14,-6.80,
0.42,4.27,-10.30,-3.98,3.63,8.08,-6.90,
0.421,3.92,-9.99,-3.93,3.63,8.08,-6.90,
0.423,3.92,-9.99,-3.93,3.67,8.00,-7.00,
0.425,3.92,-9.99,-3.93,3.69,7.90,-7.09,
0.425,3.50,-9.77,-3.93,3.69,7.90,-7.09,
0.446,3.50,-9.77,-3.93,3.70,7.79,-7.17,
0.447,3.50,-9.77,-3.93,3.69,7.64,-7.25,
0.447,3.06,-9.71,-3.84,3.69,7.64,-7.25,
0.447,3.06,-9.71,-3.84,3.68,7.48,-7.32,
0.448,3.06,-9.71,-3.84,3.64,7.28,-7.39,
0.448,2.62,-9.76,-3.60,3.64,7.28,-7.39,
0.448,2.62,-9.76,-3.60,3.60,7.07,-7.47,
0.449,2.62,-9.76,-3.60,3.55,6.82,-7.55,
0.449,2.24,-9.78,-3.19,3.55,6.82,-7.55,
0.449,2.24,-9.78,-3.19,3.49,6.56,-7.62,
0.449,1.68,-9.80,-2.83,3.49,6.56,-7.62,
0.45,1.68,-9.80,-2.83,3.42,6.28,-7.69,
0.45,1.68,-9.80,-2.83,3.35,6.00,-7.75,
0.45,1.68,-9.80,-2.83,3.26,5.72,-7.81,
0.451,0.87,-9.73,-2.44,3.26,5.72,-7.81,
0.454,0.87,-9.73,-2.44,3.18,5.44,-7.86,
0.457,-0.27,-9.47,-1.70,3.18,5.44,-7.86,
0.457,-0.27,-9.47,-1.70,3.10,5.17,-7.90,
0.457,-0.27,-9.47,-1.70,3.02,4.88,-7.94,
0.46,-0.27,-9.47,-1.70,2.95,4.59,-7.97,
0.46,-1.53,-9.01,-0.66,2.95,4.59,-7.97,
0.465,-1.53,-9.01,-0.66,2.88,4.28,-7.99,
0.465,-2.86,-8.45,0.26,2.88,4.28,-7.99,
0.465,-2.86,-8.45,0.26,2.81,3.95,-8.00,
0.467,-2.86,-8.45,0.26,2.75,3.62,-7.99,
0.471,-4.23,-7.84,0.91,2.75,3.62,-7.99,
0.472,-4.23,-7.84,0.91,2.69,3.30,-7.98,
0.472,-4.23,-7.84,0.91,2.63,2.99,-7.95,
0.475,-4.23,-7.84,0.91,2.57,2.70,-7.91,
0.475,-5.80,-7.06,1.39,2.57,2.70,-7.91,
0.479,-5.80,-7.06,1.39,2.50,2.43,-7.85,
0.483,-5.80,-7.06,1.39,2.45,2.19,-7.78,
0.483,-7.70,-5.94,1.90,2.45,2.19,-7.78,
0.484,-7.70,-5.94,1.90,2.39,1.97,-7.69,
0.486,-7.70,-5.94,1.90,2.35,1.78,-7.57,
0.486,-9.53,-4.63,2.44,2.35,1.78,-7.57,
0.487,-9.53,-4.63,2.44,2.31,1.61,-7.44,
0.491,-9.53,-4.63,2.44,2.29,1.46,-7.28,
0.491,-11.05,-3.28,2.91,2.29,1.46,-7.28,
0.493,-11.05,-3.28,2.91,2.27,1.34,-7.11,
0.495,-11.05,-3.28,2.91,2.26,1.23,-6.94,
0.495,-12.29,-2.25,3.35,2.26,1.23,-6.94,
0.497,-12.29,-2.25,3.35,2.25,1.14,-6.75,
0.5,-13.19,-1.27,3.96,2.25,1.14,-6.75,
0.5,-13.19,-1.27,3.96,2.26,1.05,-6.57,
0.502,-13.19,-1.27,3.96,2.28,0.95,-6.38,
0.504,-13.19,-1.27,3.96,2.30,0.85,-6.18,
0.505,-13.73,-0.31,4.44,2.30,0.85,-6.18,
0.507,-13.73,-0.31,4.44,2.34,0.74,-5.99,
0.51,-13.73,-0.31,4.44,2.37,0.63,-5.80,
0.51,-13.95,0.56,4.54,2.37,0.63,-5.80,
0.513,-13.95,0.56,4.54,2.41,0.52,-5.62,
0.515,-13.95,0.56,4.54,2.44,0.40,-5.44,
0.516,-13.97,1.22,4.19,2.44,0.40,-5.44,
0.517,-13.97,1.22,4.19,2.46,0.28,-5.27,
0.519,-13.84,1.76,3.56,2.46,0.28,-5.27,
0.52,-13.84,1.76,3.56,2.46,0.17,-5.10,
0.521,-13.84,1.76,3.56,2.46,0.05,-4.94,
0.525,-13.68,2.18,2.97,2.46,0.05,-4.94,
0.525,-13.68,2.18,2.97,2.44,-0.06,-4.78,
0.526,-13.68,2.18,2.97,2.41,-0.18,-4.63,
0.53,-13.68,2.18,2.97,2.37,-0.31,-4.48,
0.531,-13.55,2.52,2.60,2.37,-0.31,-4.48,
0.532,-13.55,2.52,2.60,2.33,-0.46,-4.34,
0.534,-13.55,2.52,2.60,2.28,-0.62,-4.21,
0.535,-13.50,2.99,2.24,2.28,-0.62,-4.21,
0.537,-13.50,2.99,2.24,2.24,-0.78,-4.07,
0.539,-13.51,3.51,1.63,2.24,-0.78,-4.07,
0.54,-13.51,3.51,1.63,2.20,-0.94,-3.94,
0.542,-13.51,3.51,1.63,2.15,-1.09,-3.81,
0.545,-13.51,3.51,1.63,2.10,-1.21,-3.68,
0.545,-13.55,3.94,0.73,2.10,-1.21,-3.68,
0.548,-13.55,3.94,0.73,2.04,-1.31,-3.55,
0.55,-13.59,4.40,-0.25,2.04,-1.31,-3.55,
0.551,-13.59,4.40,-0.25,1.98,-1.38,-3.42,
0.552,-13.59,4.40,-0.25,1.91,-1.41,-3.29,
0.554,-13.59,4.40,-0.25,1.84,-1.42,-3.17,
0.555,-13.59,4.90,-1.01,1.84,-1.42,-3.17,
0.556,-13.59,4.90,-1.01,1.78,-1.40,-3.04,
0.56,-13.59,4.90,-1.01,1.72,-1.35,-2.91,
0.56,-13.55,5.34,-1.53,1.72,-1.35,-2.91,
0.562,-13.55,5.34,-1.53,1.66,-1.28,-2.78,
0.566,-13.55,5.34,-1.53,1.62,-1.20,-2.66,
0.569,-13.41,5.54,-1.79,1.62,-1.20,-2.66,
0.57,-13.41,5.54,-1.79,1.58,-1.12,-2.54,
0.571,-13.41,5.54,-1.79,1.54,-1.02,-2.42,
0.571,-13.09,5.47,-1.83,1.54,-1.02,-2.42,
0.572,-13.09,5.47,-1.83,1.52,-0.93,-2.32,
0.575,-13.09,5.47,-1.83,1.50,-0.84,-2.22,
0.576,-12.79,5.34,-1.71,1.50,-0.84,-2.22,
0.576,-12.79,5.34,-1.71,1.49,-0.75,-2.12,
0.605,-12.79,5.34,-1.71,1.48,-0.67,-2.03,
0.606,-12.79,5.34,-1.71,1.48,-0.60,-1.94,
0.606,-12.79,5.34,-1.71,1.48,-0.54,-1.85,
0.606,-12.71,5.27,-1.44,1.48,-0.54,-1.85,
0.607,-12.71,5.27,-1.44,1.49,-0.50,-1.75,
0.607,-12.82,5.23,-1.13,1.49,-0.50,-1.75,
0.607,-12.82,5.23,-1.13,1.51,-0.47,-1.64,
0.608,-12.82,5.23,-1.13,1.53,-0.46,-1.54,
0.608,-12.93,5.21,-0.96,1.53,-0.46,-1.54,
0.626,-12.93,5.21,-0.96,1.55,-0.45,-1.44,
0.626,-12.93,5.26,-0.99,1.55,-0.45,-1.44,
0.626,-12.93,5.26,-0.99,1.56,-0.46,-1.33,
0.627,-12.93,5.26,-0.99,1.58,-0.47,-1.22,
0.627,-13.09,5.42,-1.35,1.58,-0.47,-1.22,
0.627,-13.09,5.42,-1.35,1.59,-0.48,-1.11,
0.627,-13.09,5.42,-1.35,1.60,-0.49,-0.99,
0.627,-13.40,5.79,-1.90,1.60,-0.49,-0.99,
0.628,-13.40,5.79,-1.90,1.59,-0.50,-0.85,
0.628,-13.40,5.79,-1.90,1.58,-0.50,-0.71,
0.628,-13.52,6.22,-2.50,1.58,-0.50,-0.71,
0.628,-13.52,6.22,-2.50,1.56,-0.52,-0.56,
0.629,-13.52,6.22,-2.50,1.53,-0.53,-0.42,
0.629,-13.12,6.57,-3.04,1.53,-0.53,-0.42,
0.629,-13.12,6.57,-3.04,1.49,-0.56,-0.29,
0.629,-13.12,6.57,-3.04,1.43,-0.59,-0.16,
0.63,-12.38,6.77,-3.43,1.43,-0.59,-0.16,
0.63,-12.38,6.77,-3.43,1.38,-0.63,-0.04,
0.63,-12.38,6.77,-3.43,1.30,-0.69,0.08,
0.63,-12.15,6.69,-3.88,1.30,-0.69,0.08,
0.631,-12.15,6.69,-3.88,1.22,-0.76,0.20,
0.631,-11.99,6.66,-4.17,1.22,-0.76,0.20,
0.631,-11.99,6.66,-4.17,1.13,-0.84,0.33,
0.634,-11.99,6.66,-4.17,1.04,-0.92,0.47,
0.635,-11.41,6.62,-4.33,1.04,-0.92,0.47,
0.635,-11.41,6.62,-4.33,0.95,-1.01,0.60,
0.643,-11.41,6.62,-4.33,0.86,-1.09,0.73,
0.643,-10.24,6.54,-4.42,0.86,-1.09,0.73,
0.644,-10.24,6.54,-4.42,0.78,-1.17,0.85,
0.644,-10.24,6.54,-4.42,0.70,-1.23,0.95,
0.644,-9.07,6.43,-4.53,0.70,-1.23,0.95,
0.645,-9.07,6.43,-4.53,0.63,-1.27,1.03,
0.648,-9.07,6.43,-4.53,0.56,-1.30,1.11,
0.649,-8.11,6.31,-4.76,0.56,-1.30,1.11,
0.65,-8.11,6.31,-4.76,0.49,-1.30,1.19,
0.651,-8.11,6.31,-4.76,0.44,-1.27,1.27,
0.655,-8.11,6.31,-4.76,0.38,-1.22,1.34,
0.655,-7.29,6.23,-4.99,0.38,-1.22,1.34,
0.656,-7.29,6.23,-4.99,0.34,-1.13,1.41,
0.66,-7.29,6.23,-4.99,0.29,-1.00,1.48,
0.661,-6.59,6.11,-5.21,0.29,-1.00,1.48,
0.661,-6.59,6.11,-5.21,0.25,-0.85,1.54,
0.668,-5.91,5.83,-5.24,0.25,-0.85,1.54,
0.668,-5.91,5.83,-5.24,0.20,-0.68,1.61,
0.669,-5.91,5.83,-5.24,0.16,-0.51,1.66,
0.669,-5.18,5.33,-4.76,0.16,-0.51,1.66,
0.669,-5.18,5.33,-4.76,0.12,-0.35,1.70,
0.672,-5.18,5.33,-4.76,0.08,-0.21,1.74,
0.678,-5.18,5.33,-4.76,0.04,-0.10,1.76,
0.679,-5.18,5.33,-4.76,0.01,-0.02,1.77,
0.679,-4.40,4.63,-3.81,0.01,-0.02,1.77,
0.683,-3.72,3.77,-3.01,0.01,-0.02,1.77,
0.684,-3.72,3.77,-3.01,-0.02,0.02,1.77,
0.684,-3.72,3.77,-3.01,-0.04,0.04,1.76,
0.684,-3.37,3.02,-2.44,-0.04,0.04,1.76,
0.684,-3.37,3.02,-2.44,-0.07,0.03,1.74,
0.685,-3.37,3.02,-2.44,-0.10,0.02,1.72,
0.689,-3.37,3.02,-2.44,-0.12,-0.00,1.71,
0.689,-3.34,2.50,-2.04,-0.12,-0.00,1.71,
0.691,-3.34,2.50,-2.04,-0.14,-0.02,1.71,
0.694,-3.34,2.50,-2.04,-0.15,-0.02,1.72,
0.694,-3.45,2.08,-1.87,-0.15,-0.02,1.72,
0.698,-3.45,2.08,-1.87,-0.17,-0.02,1.72,
0.698,-3.45,2.08,-1.87,-0.19,-0.01,1.73,
0.7,-3.43,1.57,-2.06,-0.19,-0.01,1.73,
0.7,-3.43,1.57,-2.06,-0.22,0.01,1.74,
0.703,-3.43,1.57,-2.06,-0.24,0.05,1.76,
0.703,-3.41,1.27,-2.33,-0.24,0.05,1.76,
0.705,-3.41,1.27,-2.33,-0.26,0.10,1.78,
0.708,-3.41,1.27,-2.33,-0.29,0.15,1.80,
0.708,-3.27,1.10,-2.80,-0.29,0.15,1.80,
0.715,-3.27,1.10,-2.80,-0.33,0.21,1.82,
0.721,-3.27,1.10,-2.80,-0.38,0.26,1.85,
0.722,-3.27,1.10,-2.80,-0.44,0.30,1.87,
0.722,-2.99,0.81,-3.27,-0.44,0.30,1.87,
0.722,-2.49,0.36,-3.75,-0.44,0.30,1.87,
0.722,-2.49,0.36,-3.75,-0.52,0.32,1.89,
0.722,-2.49,0.36,-3.75,-0.61,0.34,1.91,
0.722,-2.49,0.36,-3.75,-0.70,0.34,1.93,
0.722,-1.94,-0.01,-3.93,-0.70,0.34,1.93,
0.725,-1.94,-0.01,-3.93,-0.78,0.35,1.96,
0.728,-1.94,-0.01,-3.93,-0.87,0.35,1.98,
0.729,-1.54,-0.40,-3.97,-0.87,0.35,1.98,
0.73,-1.54,-0.40,-3.97,-0.95,0.36,2.00,
0.733,-1.23,-0.99,-4.08,-0.95,0.36,2.00,
0.733,-1.23,-0.99,-4.08,-1.03,0.37,2.03,
0.738,-1.23,-0.99,-4.08,-1.12,0.37,2.06,
0.738,-1.23,-0.99,-4.08,-1.20,0.37,2.09,
0.738,-0.87,-1.53,-4.06,-1.20,0.37,2.09,
0.74,-0.87,-1.53,-4.06,-1.28,0.36,2.12,
0.743,-0.87,-1.53,-4.06,-1.36,0.33,2.14,
0.743,-0.24,-2.13,-3.68,-1.36,0.33,2.14,
0.745,-0.24,-2.13,-3.68,-1.43,0.28,2.16,
0.747,-0.24,-2.13,-3.68,-1.49,0.22,2.17,
0.748,0.65,-2.68,-3.16,-1.49,0.22,2.17,
0.75,0.65,-2.68,-3.16,-1.55,0.17,2.17,
0.752,0.65,-2.68,-3.16,-1.59,0.12,2.17,
0.753,1.73,-3.10,-2.78,-1.59,0.12,2.17,
0.755,1.73,-3.10,-2.78,-1.62,0.09,2.15,
0.758,2.91,-3.47,-2.14,-1.62,0.09,2.15,
0.77,2.91,-3.47,-2.14,-1.64,0.08,2.12,
0.77,2.91,-3.47,-2.14,-1.65,0.09,2.09,
0.77,2.91,-3.47,-2.14,-1.63,0.11,2.04,
0.771,4.10,-3.71,-1.55,-1.63,0.11,2.04,
0.771,4.10,-3.71,-1.55,-1.61,0.15,1.99,
0.771,5.20,-3.83,-0.93,-1.61,0.15,1.99,
0.771,5.20,-3.83,-0.93,-1.58,0.20,1.93,
0.772,5.20,-3.83,-0.93,-1.55,0.24,1.86,
0.777,6.16,-3.73,-0.38,-1.55,0.24,1.86,
0.777,6.16,-3.73,-0.38,-1.50,0.29,1.79,
0.777,6.16,-3.73,-0.38,-1.45,0.36,1.71,
0.778,6.16,-3.73,-0.38,-1.40,0.42,1.63,
0.778,6.69,-3.41,-0.27,-1.40,0.42,1.63,
0.794,6.69,-3.41,-0.27,-1.35,0.48,1.56,
0.794,6.70,-2.77,-0.75,-1.35,0.48,1.56,
0.794,6.70,-2.77,-0.75,-1.31,0.55,1.49,
0.795,6.70,-2.77,-0.75,-1.28,0.60,1.42,
0.795,6.33,-1.90,-1.65,-1.28,0.60,1.42,
0.795,6.33,-1.90,-1.65,-1.26,0.66,1.36,
0.795,6.33,-1.90,-1.65,-1.25,0.73,1.31,
0.795,5.97,-1.12,-1.84,-1.25,0.73,1.31,
0.795,5.97,-1.12,-1.84,-1.25,0.82,1.27,
0.795,5.97,-1.12,-1.84,-1.23,0.94,1.23,
0.798,6.39,-1.00,-1.51,-1.23,0.94,1.23,
0.798,6.39,-1.00,-1.51,-1.21,1.06,1.18,
0.799,6.39,-1.00,-1.51,-1.18,1.19,1.14,
0.802,6.35,-0.58,-1.59,-1.18,1.19,1.14,
0.803,6.35,-0.58,-1.59,-1.17,1.31,1.11,
0.805,6.35,-0.58,-1.59,-1.16,1.43,1.08,
0.808,5.93,-0.10,-1.97,-1.16,1.43,1.08,
0.808,5.93,-0.10,-1.97,-1.17,1.52,1.05,
0.81,5.93,-0.10,-1.97,-1.20,1.60,1.03,
0.813,5.15,0.73,-2.62,-1.20,1.60,1.03,
0.813,5.15,0.73,-2.62,-1.25,1.66,1.01,
0.816,5.15,0.73,-2.62,-1.32,1.69,1.00,
0.817,4.13,1.42,-3.26,-1.32,1.69,1.00,
0.817,4.13,1.42,-3.26,-1.40,1.72,0.98,
0.82,4.13,1.42,-3.26,-1.51,1.70,0.98,
0.822,1.85,3.20,-4.60,-1.51,1.70,0.98,
0.822,1.85,3.20,-4.60,-1.67,1.62,1.00,
0.824,1.85,3.20,-4.60,-1.82,1.59,1.02,
0.827,1.85,3.20,-4.60,-1.94,1.61,1.04,
0.827,0.97,3.61,-3.94,-1.94,1.61,1.04,
0.83,0.97,3.61,-3.94,-2.06,1.64,1.05,
0.832,1.03,2.31,-2.33,-2.06,1.64,1.05,
0.833,1.03,2.31,-2.33,-2.13,1.66,1.06,
0.834,1.03,2.31,-2.33,-2.17,1.68,1.09,
0.837,1.03,2.31,-2.33,-2.19,1.69,1.10,
0.837,1.17,2.00,-0.94,-2.19,1.69,1.10,
0.839,1.17,2.00,-0.94,-2.19,1.72,1.10,
0.842,1.17,2.00,-0.94,-2.21,1.77,1.09,
0.842,1.60,2.06,-0.49,-2.21,1.77,1.09,
0.844,1.60,2.06,-0.49,-2.21,1.83,1.07,
0.846,1.60,2.06,-0.49,-2.21,1.89,1.06,
0.847,1.40,1.67,0.04,-2.21,1.89,1.06,
0.849,1.40,1.67,0.04,-2.20,1.95,1.04,
0.852,1.40,1.67,0.04,-2.18,1.99,1.04,
0.852,1.03,1.41,0.46,-2.18,1.99,1.04,
0.854,1.03,1.41,0.46,-2.17,2.01,1.02,
0.856,1.03,1.41,0.46,-2.17,2.01,1.00,
0.857,0.90,1.45,0.43,-2.17,2.01,1.00,
0.859,0.90,1.45,0.43,-2.15,2.02,0.98,
0.861,0.90,1.45,0.43,-2.14,2.00,0.95,
0.861,0.61,1.01,0.95,-2.14,2.00,0.95,
0.864,0.61,1.01,0.95,-2.13,1.96,0.93,
0.867,0.01,1.08,1.43,-2.13,1.96,0.93,
0.867,0.01,1.08,1.43,-2.13,1.88,0.90,
0.869,0.01,1.08,1.43,-2.10,1.79,0.88,
0.871,-0.87,1.35,2.38,-2.10,1.79,0.88,
0.871,-0.87,1.35,2.38,-2.06,1.69,0.87,
0.874,-0.87,1.35,2.38,-2.00,1.60,0.87,
0.876,-1.79,0.93,2.57,-2.00,1.60,0.87,
0.876,-1.79,0.93,2.57,-1.95,1.52,0.88,
0.879,-1.79,0.93,2.57,-1.91,1.45,0.91,
0.883,-2.35,1.88,2.26,-1.91,1.45,0.91,
0.885,-2.35,1.88,2.26,-1.87,1.42,0.95,
0.886,-2.35,1.88,2.26,-1.82,1.39,0.98,
0.887,-2.35,1.88,2.26,-1.77,1.37,0.99,
0.887,-1.78,2.12,2.68,-1.77,1.37,0.99,
0.892,-1.78,2.12,2.68,-1.71,1.36,1.00,
0.892,-1.78,2.12,2.68,-1.65,1.35,1.01,
0.892,-1.72,1.30,2.87,-1.65,1.35,1.01,
0.895,-1.72,1.30,2.87,-1.59,1.34,1.03,
0.926,-1.72,1.30,2.87,-1.53,1.34,1.05,
0.926,-1.72,1.30,2.87,-1.48,1.34,1.07,
0.927,-1.31,1.21,2.68,-1.48,1.34,1.07,
0.927,-1.31,1.21,2.68,-1.44,1.35,1.08,
0.927,-1.31,1.21,2.68,-1.40,1.36,1.08,
0.928,-1.31,1.21,2.68,-1.36,1.37,1.09,
0.928,-0.69,1.52,1.97,-1.36,1.37,1.09,
0.928,-0.09,1.52,1.50,-1.36,1.37,1.09,
0.929,-0.09,1.52,1.50,-1.33,1.39,1.08,
0.929,-0.09,1.52,1.50,-1.31,1.41,1.08,
0.929,0.42,1.62,1.06,-1.31,1.41,1.08,
0.93,0.42,1.62,1.06,-1.29,1.44,1.07,
0.93,0.42,1.62,1.06,-1.27,1.46,1.06,
0.93,0.65,1.86,0.67,-1.27,1.46,1.06,
0.931,0.65,1.86,0.67,-1.26,1.47,1.05,
0.931,0.75,2.11,0.23,-1.26,1.47,1.05,
0.931,0.75,2.11,0.23,-1.26,1.45,1.04,
0.951,0.75,2.11,0.23,-1.27,1.43,1.04,
0.951,0.75,2.11,0.23,-1.29,1.39,1.04,
0.952,0.75,2.11,0.23,-1.31,1.34,1.04,
0.952,0.75,2.11,0.23,-1.33,1.29,1.04,
0.952,0.75,2.11,0.23,-1.36,1.25,1.04,
0.952,0.89,2.35,-0.21,-1.36,1.25,1.04,
0.953,1.13,2.51,-0.63,-1.36,1.25,1.04,
0.953,1.13,2.51,-0.63,-1.39,1.22,1.03,
0.953,1.68,2.26,-0.88,-1.39,1.22,1.03,
0.953,1.68,2.26,-0.88,-1.41,1.20,1.02,
0.954,1.68,2.26,-0.88,-1.44,1.20,1.00,
0.954,2.17,1.78,-1.29,-1.44,1.20,1.00,
0.954,2.17,1.78,-1.29,-1.47,1.21,0.98,
0.954,2.17,1.78,-1.29,-1.50,1.21,0.94,
0.955,3.04,1.19,-1.32,-1.50,1.21,0.94,
0.955,3.04,1.19,-1.32,-1.53,1.21,0.89,
0.955,3.91,0.65,-1.10,-1.53,1.21,0.89,
0.955,3.91,0.65,-1.10,-1.54,1.22,0.83,
0.956,3.91,0.65,-1.10,-1.55,1.22,0.77,
0.956,4.64,-0.09,-0.87,-1.55,1.22,0.77,
0.956,4.64,-0.09,-0.87,-1.55,1.24,0.69,
0.958,4.64,-0.09,-0.87,-1.54,1.26,0.60,
0.961,5.24,-0.91,-0.81,-1.54,1.26,0.60,
0.961,5.24,-0.91,-0.81,-1.52,1.29,0.51,
0.977,5.24,-0.91,-0.81,-1.50,1.32,0.41,
0.977,5.80,-1.50,-1.02,-1.50,1.32,0.41,
0.978,5.80,-1.50,-1.02,-1.48,1.34,0.30,
0.978,5.80,-1.50,-1.02,-1.46,1.36,0.18,
0.978,6.13,-1.81,-1.25,-1.46,1.36,0.18,
0.978,6.13,-1.81,-1.25,-1.44,1.39,0.07,
0.978,6.26,-1.99,-1.62,-1.44,1.39,0.07,
0.979,6.26,-1.99,-1.62,-1.41,1.40,-0.05,
0.979,6.26,-1.99,-1.62,-1.39,1.42,-0.16,
0.979,6.26,-1.99,-1.62,-1.36,1.45,-0.28,
0.985,6.26,-1.99,-1.62,-1.33,1.48,-0.39,
0.985,6.22,-2.22,-2.07,-1.33,1.48,-0.39,
0.986,6.22,-2.22,-2.07,-1.31,1.52,-0.50,
0.986,6.22,-2.22,-2.07,-1.27,1.56,-0.61,
0.986,6.14,-2.14,-2.12,-1.27,1.56,-0.61,
0.988,6.14,-2.14,-2.12,-1.24,1.59,-0.72,
0.99,6.14,-2.14,-2.12,-1.20,1.61,-0.83,
0.991,6.14,-2.09,-2.03,-1.20,1.61,-0.83,
0.993,6.14,-2.09,-2.03,-1.16,1.63,-0.94,
0.995,6.14,-2.09,-2.03,-1.11,1.65,-1.04,
0.995,5.95,-2.15,-2.22,-1.11,1.65,-1.04,
0.998,5.95,-2.15,-2.22,-1.09,1.62,-1.14,
1.002,5.95,-2.15,-2.22,-1.05,1.60,-1.25,
1.002,5.99,-1.80,-2.27,-1.05,1.60,-1.25,
1.002,5.99,-1.80,-2.27,-1.01,1.57,-1.35,
1.005,5.99,-1.80,-2.27,-0.98,1.54,-1.46,
1.005,5.67,-1.88,-2.19,-0.98,1.54,-1.46,
1.007,5.67,-1.88,-2.19,-0.96,1.47,-1.58,
1.01,5.67,-1.88,-2.19,-0.93,1.34,-1.69,
1.01,3.94,-2.40,-1.69,-0.93,1.34,-1.69,
1.012,3.94,-2.40,-1.69,-0.89,1.17,-1.78,
1.016,1.98,-1.58,-1.68,-0.89,1.17,-1.78,
1.016,1.98,-1.58,-1.68,-0.85,0.99,-1.84,
1.017,1.98,-1.58,-1.68,-0.84,0.82,-1.88,
1.02,1.98,-1.58,-1.68,-0.86,0.67,-1.91,
1.02,0.05,-1.39,-3.24,-0.86,0.67,-1.91,
1.022,0.05,-1.39,-3.24,-0.91,0.54,-1.91,
1.025,0.05,-1.39,-3.24,-0.97,0.39,-1.87,
1.025,-3.52,-1.69,-4.66,-0.97,0.39,-1.87,
1.027,-3.52,-1.69,-4.66,-1.05,0.21,-1.79,
1.03,-6.20,-1.50,-5.55,-1.05,0.21,-1.79,
1.031,-6.20,-1.50,-5.55,-1.15,0.04,-1.68,
1.033,-6.20,-1.50,-5.55,-1.27,-0.12,-1.58,
1.035,-6.20,-1.50,-5.55,-1.38,-0.27,-1.52,
1.035,-4.25,-1.23,-5.70,-1.38,-0.27,-1.52,
1.037,-4.25,-1.23,-5.70,-1.49,-0.39,-1.51,
1.04,-4.25,-1.23,-5.70,-1.59,-0.48,-1.51,
1.04,-2.31,-1.32,-5.68,-1.59,-0.48,-1.51,
1.042,-2.31,-1.32,-5.68,-1.68,-0.54,-1.49,
1.045,-2.31,-1.32,-5.68,-1.74,-0.62,-1.43,
1.045,-3.85,-2.82,-4.51,-1.74,-0.62,-1.43,
1.047,-3.85,-2.82,-4.51,-1.76,-0.73,-1.33,
1.051,-3.85,-2.82,-4.51,-1.75,-0.88,-1.17,
1.051,-6.49,-4.28,-2.26,-1.75,-0.88,-1.17,
1.052,-6.49,-4.28,-2.26,-1.72,-0.99,-0.97,
1.056,-6.49,-4.28,-2.26,-1.65,-1.01,-0.70,
1.056,-8.60,-5.93,-0.42,-1.65,-1.01,-0.70,
1.057,-8.60,-5.93,-0.42,-1.52,-1.05,-0.48,
1.06,-8.60,-5.93,-0.42,-1.35,-1.12,-0.34,
1.06,-4.12,-3.51,0.94,-1.35,-1.12,-0.34,
1.062,-4.12,-3.51,0.94,-1.18,-1.16,-0.28,
1.066,-1.60,-2.24,0.64,-1.18,-1.16,-0.28,
1.067,-1.60,-2.24,0.64,-1.03,-1.12,-0.26,
1.067,-1.60,-2.24,0.64,-0.89,-1.06,-0.23,
1.07,-1.60,-2.24,0.64,-0.78,-0.97,-0.19,
1.071,-1.29,-1.65,0.45,-0.78,-0.97,-0.19,
1.072,-1.29,-1.65,0.45,-0.67,-0.84,-0.14,
1.08,-1.06,-2.37,-0.70,-0.67,-0.84,-0.14,
1.08,-1.06,-2.37,-0.70,-0.55,-0.61,-0.11,
1.08,-1.06,-2.37,-0.70,-0.46,-0.38,-0.10,
1.08,-1.06,-2.37,-0.70,-0.41,-0.14,-0.09,
1.088,-0.94,-3.68,-1.17,-0.41,-0.14,-0.09,
1.088,-0.94,-3.68,-1.17,-0.37,0.07,-0.07,
1.089,-0.94,-3.68,-1.17,-0.31,0.20,-0.05,
1.089,-0.82,-4.17,-0.40,-0.31,0.20,-0.05,
1.089,-0.82,-4.17,-0.40,-0.23,0.24,-0.03,
1.104,-0.82,-4.17,-0.40,-0.17,0.25,-0.02,
1.105,-0.52,-4.43,-0.01,-0.17,0.25,-0.02,
1.105,-0.52,-4.43,-0.01,-0.13,0.23,-0.02,
1.105,-0.18,-4.65,0.00,-0.13,0.23,-0.02,
1.105,-0.18,-4.65,0.00,-0.09,0.19,-0.01,
1.106,-0.18,-4.65,0.00,-0.05,0.15,-0.01,
1.106,-0.18,-4.65,0.00,-0.02,0.12,-0.01,
1.106,-0.07,-4.82,-0.13,-0.02,0.12,-0.01,
1.106,-0.07,-4.82,-0.13,-0.00,0.10,-0.01,
1.107,-0.14,-4.88,-0.40,-0.00,0.10,-0.01,
1.107,-0.14,-4.88,-0.40,0.01,0.07,-0.01,
1.107,-0.14,-4.88,-0.40,0.01,0.07,-0.01,
1.112,-0.31,-4.91,-0.54,0.01,0.07,-0.01,
1.113,-0.31,-4.91,-0.54,0.01,0.09,0.00,
1.113,-0.31,-4.91,-0.54,-0.01,0.16,0.02,
1.115,-0.31,-4.91,-0.54,-0.03,0.30,0.04,
1.115,-0.83,-5.19,-0.68,-0.03,0.30,0.04,
1.117,-0.83,-5.19,-0.68,-0.08,0.56,0.08,
1.119,-0.83,-5.19,-0.68,-0.14,0.91,0.14,
1.12,-2.41,-5.50,-0.23,-0.14,0.91,0.14,
1.121,-2.41,-5.50,-0.23,-0.15,1.22,0.21,
1.124,-2.41,-5.50,-0.23,-0.14,1.50,0.27,
1.125,-1.85,-4.48,0.94,-0.14,1.50,0.27,
1.126,-1.85,-4.48,0.94,-0.11,1.76,0.31,
1.129,-1.12,-3.51,1.19,-0.11,1.76,0.31,
1.13,-1.12,-3.51,1.19,-0.07,1.99,0.35,
1.132,-1.12,-3.51,1.19,-0.03,2.18,0.38,
1.134,-0.46,-2.96,1.34,-0.03,2.18,0.38,
1.135,-0.46,-2.96,1.34,0.02,2.32,0.41,
1.136,-0.46,-2.96,1.34,0.07,2.40,0.42,
1.139,-0.46,-2.96,1.34,0.12,2.42,0.44,
1.139,0.25,-2.65,1.30,0.12,2.42,0.44,
1.141,0.25,-2.65,1.30,0.18,2.42,0.45,
1.144,0.25,-2.65,1.30,0.24,2.40,0.45,
1.144,0.76,-2.31,0.46,0.24,2.40,0.45,
1.146,0.76,-2.31,0.46,0.29,2.34,0.46,
1.149,0.76,-2.31,0.46,0.34,2.23,0.46,
1.149,1.07,-2.13,-0.34,0.34,2.23,0.46,
1.151,1.07,-2.13,-0.34,0.39,2.11,0.45,
1.154,1.07,-2.13,-0.34,0.43,1.97,0.43,
1.154,1.70,-2.16,-1.35,0.43,1.97,0.43,
1.156,1.70,-2.16,-1.35,0.47,1.79,0.40,
1.159,1.70,-2.16,-1.35,0.49,1.60,0.38,
1.16,2.15,-2.07,-2.17,0.49,1.60,0.38,
1.162,2.15,-2.07,-2.17,0.50,1.37,0.35,
1.167,2.15,-2.07,-2.17,0.51,1.09,0.32,
1.167,2.17,-1.58,-2.30,0.51,1.09,0.32,
1.167,2.17,-1.58,-2.30,0.50,0.77,0.30,
1.169,2.17,-1.58,-2.30,0.47,0.44,0.25,
1.17,2.29,-1.53,-2.64,0.47,0.44,0.25,
1.171,2.29,-1.53,-2.64,0.42,0.10,0.20,
1.174,2.29,-1.53,-2.64,0.35,-0.20,0.14,
1.175,2.31,-1.59,-3.29,0.35,-0.20,0.14,
1.177,2.31,-1.59,-3.29,0.28,-0.45,0.06,
1.18,2.31,-1.59,-3.29,0.19,-0.68,-0.02,
1.18,2.07,-1.55,-3.46,0.19,-0.68,-0.02,
1.188,2.07,-1.55,-3.46,0.11,-0.87,-0.09,
1.188,2.07,-1.55,-3.46,0.04,-1.02,-0.16,
1.189,1.60,-1.27,-3.16,0.04,-1.02,-0.16,
1.189,1.60,-1.27,-3.16,-0.02,-1.13,-0.22,
1.189,1.60,-1.27,-3.16,-0.08,-1.21,-0.28,
1.19,1.11,-0.96,-2.87,-0.08,-1.21,-0.28,
1.191,1.11,-0.96,-2.87,-0.12,-1.26,-0.32,
1.194,1.11,-0.96,-2.87,-0.15,-1.28,-0.36,
1.194,0.57,-0.75,-2.70,-0.15,-1.28,-0.36,
1.196,0.57,-0.75,-2.70,-0.18,-1.27,-0.39,
1.199,0.57,-0.75,-2.70,-0.20,-1.23,-0.40,
1.199,0.13,-0.64,-2.68,-0.20,-1.23,-0.40,
1.201,0.13,-0.64,-2.68,-0.21,-1.17,-0.42,
1.204,-0.16,-0.74,-2.72,-0.21,-1.17,-0.42,
1.204,-0.16,-0.74,-2.72,-0.22,-1.10,-0.42,
1.206,-0.16,-0.74,-2.72,-0.22,-1.02,-0.41,
1.208,-0.16,-0.74,-2.72,-0.23,-0.94,-0.40,
1.209,-0.45,-0.75,-2.85,-0.23,-0.94,-0.40,
1.211,-0.45,-0.75,-2.85,-0.23,-0.86,-0.37,
1.213,-0.45,-0.75,-2.85,-0.23,-0.78,-0.31,
1.213,-0.56,-0.07,-2.85,-0.23,-0.78,-0.31,
1.216,-0.56,-0.07,-2.85,-0.23,-0.69,-0.25,
1.219,-0.56,-0.07,-2.85,-0.24,-0.58,-0.19,
1.219,-0.44,0.12,-3.11,-0.24,-0.58,-0.19,
1.221,-0.44,0.12,-3.11,-0.24,-0.50,-0.14,
1.223,-0.44,0.12,-3.11,-0.25,-0.43,-0.09,
1.223,-0.54,0.07,-3.07,-0.25,-0.43,-0.09,
1.226,-0.54,0.07,-3.07,-0.24,-0.39,-0.04,
1.228,-0.54,0.07,-3.07,-0.22,-0.37,-0.01,
1.229,-0.93,-0.31,-2.82,-0.22,-0.37,-0.01,
1.231,-0.93,-0.31,-2.82,-0.19,-0.38,0.01,
1.233,-0.93,-0.31,-2.82,-0.12,-0.39,-0.02,
1.234,0.15,-0.83,-1.20,-0.12,-0.39,-0.02,
1.236,0.15,-0.83,-1.20,-0.04,-0.42,-0.08,
1.238,0.15,-0.83,-1.20,0.03,-0.45,-0.13,
1.239,-0.13,-1.23,-1.36,0.03,-0.45,-0.13,
1.24,-0.13,-1.23,-1.36,0.09,-0.47,-0.16,
1.243,-0.13,-1.23,-1.36,0.16,-0.52,-0.15,
1.243,-1.19,-1.00,-1.76,0.16,-0.52,-0.15,
1.246,-1.19,-1.00,-1.76,0.22,-0.57,-0.10,
1.249,-2.23,-0.90,-2.50,0.22,-0.57,-0.10,
1.251,-2.23,-0.90,-2.50,0.27,-0.61,-0.04,
1.252,-2.23,-0.90,-2.50,0.32,-0.62,0.06,
1.255,-2.23,-0.90,-2.50,0.36,-0.61,0.17,
1.272,-4.61,-0.66,-3.74,0.36,-0.61,0.17,
1.273,-4.61,-0.66,-3.74,0.36,-0.48,0.38,
1.273,-4.61,-0.66,-3.74,0.40,-0.42,0.48,
1.273,-2.29,-1.66,-3.09,0.40,-0.42,0.48,
1.273,-2.29,-1.66,-3.09,0.46,-0.43,0.53,
1.273,-2.29,-1.66,-3.09,0.51,-0.39,0.63,
1.273,-3.20,-2.04,-2.84,0.51,-0.39,0.63,
1.274,-3.20,-2.04,-2.84,0.54,-0.37,0.69,
1.274,-2.83,-2.55,-2.41,0.54,-0.37,0.69,
1.274,-2.83,-2.55,-2.41,0.55,-0.39,0.75,
1.274,-2.83,-2.55,-2.41,0.54,-0.45,0.81,
1.275,-2.83,-2.55,-2.41,0.51,-0.53,0.86,
1.275,-2.54,-2.75,-1.71,0.51,-0.53,0.86,
1.281,-2.54,-2.75,-1.71,0.47,-0.63,0.92,
1.285,-2.54,-2.75,-1.71,0.41,-0.71,0.98,
1.286,-2.38,-2.70,-1.23,0.41,-0.71,0.98,
1.286,-2.38,-2.70,-1.23,0.35,-0.76,1.05,
1.286,-2.38,-2.70,-1.23,0.29,-0.80,1.11,
1.287,-2.15,-2.54,-0.39,0.29,-0.80,1.11,
1.287,-2.15,-2.54,-0.39,0.24,-0.82,1.17,
1.288,-2.15,-2.54,-0.39,0.18,-0.83,1.22,
1.289,-1.68,-2.60,0.38,0.18,-0.83,1.22,
1.29,-1.68,-2.60,0.38,0.12,-0.84,1.26,
1.298,-1.68,-2.60,0.38,0.05,-0.83,1.29,
1.298,-1.40,-2.65,0.82,0.05,-0.83,1.29,
1.298,-1.40,-2.65,0.82,-0.02,-0.82,1.31,
1.299,-1.40,-2.65,0.82,-0.09,-0.84,1.32,
1.299,-1.82,-2.81,1.94,-0.09,-0.84,1.32,
1.304,-1.82,-2.81,1.94,-0.14,-0.91,1.28,
1.305,-1.82,-2.81,1.94,-0.18,-1.00,1.22,
1.305,-1.39,-2.98,2.83,-0.18,-1.00,1.22,
1.306,-1.39,-2.98,2.83,-0.22,-1.08,1.12,
1.308,-1.24,-2.57,3.21,-0.22,-1.08,1.12,
1.308,-1.24,-2.57,3.21,-0.24,-1.15,1.00,
1.312,-1.24,-2.57,3.21,-0.25,-1.23,0.86,
1.313,-1.59,-1.90,3.61,-0.25,-1.23,0.86,
1.315,-1.59,-1.90,3.61,-0.25,-1.30,0.72,
1.316,-1.59,-1.90,3.61,-0.23,-1.35,0.58,
1.319,-1.59,-1.90,3.61,-0.22,-1.41,0.45,
1.321,-2.04,-0.88,3.73,-0.22,-1.41,0.45,
1.321,-2.04,-0.88,3.73,-0.21,-1.49,0.33,
1.324,-2.04,-0.88,3.73,-0.21,-1.59,0.21,
1.324,-2.11,0.10,4.07,-0.21,-1.59,0.21,
1.325,-2.11,0.10,4.07,-0.21,-1.71,0.12,
1.328,-2.11,0.10,4.07,-0.21,-1.84,0.04,
1.329,-2.21,1.27,4.16,-0.21,-1.84,0.04,
1.331,-2.21,1.27,4.16,-0.22,-1.97,-0.02,
1.335,-2.21,2.23,4.13,-0.22,-1.97,-0.02,
1.335,-2.21,2.23,4.13,-0.23,-2.10,-0.07,
1.34,-2.21,2.23,4.13,-0.24,-2.24,-0.12,
1.343,-2.18,3.28,4.71,-0.24,-2.24,-0.12,
1.343,-2.18,3.28,4.71,-0.27,-2.41,-0.17,
1.343,-2.18,3.28,4.71,-0.31,-2.68,-0.21,
1.343,-2.18,3.28,4.71,-0.35,-2.99,-0.28,
1.344,-2.22,4.00,5.38,-0.35,-2.99,-0.28,
1.346,-2.22,4.00,5.38,-0.37,-3.14,-0.34,
1.348,-2.22,4.00,5.38,-0.37,-3.16,-0.42,
1.349,-1.96,4.08,4.15,-0.37,-3.16,-0.42,
1.353,-1.96,4.08,4.15,-0.36,-3.16,-0.52,
1.353,-1.96,4.08,4.15,-0.33,-3.17,-0.63,
1.354,-1.81,4.07,4.78,-0.33,-3.17,-0.63,
1.357,-1.81,4.07,4.78,-0.30,-3.18,-0.74,
1.357,-1.81,4.07,4.78,-0.26,-3.17,-0.87,
1.358,-1.01,4.34,5.01,-0.26,-3.17,-0.87,
1.359,-1.01,4.34,5.01,-0.22,-3.18,-0.99,
1.363,-1.01,4.34,5.01,-0.16,-3.19,-1.12,
1.364,-0.53,4.53,5.57,-0.16,-3.19,-1.12,
1.376,-0.53,4.53,5.57,-0.08,-3.14,-1.26,
1.376,-0.53,4.53,5.57,-0.00,-3.07,-1.40,
1.376,0.03,4.49,5.73,-0.00,-3.07,-1.40,
1.376,0.03,4.49,5.73,0.08,-3.00,-1.54,
1.377,0.03,4.49,5.73,0.18,-2.91,-1.67,
1.377,0.04,4.26,5.70,0.18,-2.91,-1.67,
1.377,0.04,4.26,5.70,0.26,-2.82,-1.78,
1.377,0.04,4.26,5.70,0.35,-2.75,-1.88,
1.378,-0.12,3.55,5.64,0.35,-2.75,-1.88,
1.38,-0.12,3.55,5.64,0.43,-2.65,-1.98,
1.385,-0.12,3.55,5.64,0.51,-2.55,-2.09,
1.386,0.67,2.77,5.00,0.51,-2.55,-2.09,
1.386,0.67,2.77,5.00,0.57,-2.40,-2.22,
1.388,1.37,2.24,4.19,0.57,-2.40,-2.22,
1.388,1.37,2.24,4.19,0.63,-2.26,-2.36,
1.389,1.37,2.24,4.19,0.68,-2.13,-2.51,
1.392,1.93,1.79,3.55,0.68,-2.13,-2.51,
1.393,1.93,1.79,3.55,0.72,-1.96,-2.65,
1.395,1.93,1.79,3.55,0.76,-1.80,-2.81,
1.398,2.41,1.43,2.66,0.76,-1.80,-2.81,
1.398,2.41,1.43,2.66,0.79,-1.62,-2.96,
1.399,2.41,1.43,2.66,0.82,-1.38,-3.11,
1.402,2.41,1.43,2.66,0.84,-1.13,-3.26,
1.402,2.98,1.27,1.59,0.84,-1.13,-3.26,
1.405,2.98,1.27,1.59,0.88,-0.86,-3.40,
1.407,3.16,0.90,0.94,0.88,-0.86,-3.40,
1.407,3.16,0.90,0.94,0.91,-0.57,-3.52,
1.41,3.16,0.90,0.94,0.96,-0.26,-3.64,
1.412,3.16,0.90,0.94,1.01,0.14,-3.75,
1.412,3.31,-0.14,-0.55,1.01,0.14,-3.75,
1.415,3.31,-0.14,-0.55,1.05,0.55,-3.85,
1.417,3.31,-0.14,-0.55,1.09,0.98,-3.91,
1.417,2.46,-0.41,-1.74,1.09,0.98,-3.91,
1.431,2.46,-0.41,-1.74,1.13,1.42,-3.93,
1.431,2.46,-0.41,-1.74,1.15,1.77,-3.91,
1.432,0.89,-0.47,-1.72,1.15,1.77,-3.91,
1.432,0.89,-0.47,-1.72,1.18,2.01,-3.88,
1.432,1.04,-0.74,-1.33,1.18,2.01,-3.88,
1.433,1.04,-0.74,-1.33,1.20,2.17,-3.85,
1.433,1.04,-0.74,-1.33,1.20,2.27,-3.82,
1.433,1.04,-0.74,-1.33,1.18,2.23,-3.77,
1.434,0.83,-0.85,-0.93,1.18,2.23,-3.77,
1.434,0.83,-0.85,-0.93,1.17,2.08,-3.70,
1.437,0.83,-0.85,-0.93,1.20,1.96,-3.63,
1.438,2.10,0.39,0.48,1.20,1.96,-3.63,
1.439,2.10,0.39,0.48,1.24,1.79,-3.57,
1.441,2.10,0.39,0.48,1.27,1.56,-3.51,
1.442,3.01,0.09,0.17,1.27,1.56,-3.51,
1.444,3.01,0.09,0.17,1.30,1.30,-3.46,
1.446,3.01,0.09,0.17,1.31,1.03,-3.37,
1.447,2.37,-0.28,-0.92,1.31,1.03,-3.37,
1.449,2.37,-0.28,-0.92,1.31,0.75,-3.28,
1.452,2.37,-0.28,-0.92,1.30,0.46,-3.17,
1.452,1.28,-0.47,-1.43,1.30,0.46,-3.17,
1.454,1.28,-0.47,-1.43,1.28,0.18,-3.04,
1.457,1.28,-0.47,-1.43,1.27,-0.06,-2.93,
1.457,0.37,-0.58,-1.98,1.27,-0.06,-2.93,
1.459,0.37,-0.58,-1.98,1.25,-0.28,-2.82,
1.461,0.15,0.34,-1.95,1.25,-0.28,-2.82,
1.462,0.15,0.34,-1.95,1.23,-0.44,-2.72,
1.464,0.15,0.34,-1.95,1.25,-0.54,-2.66,
1.469,0.15,0.34,-1.95,1.26,-0.64,-2.59,
1.472,-0.61,1.11,-2.04,1.26,-0.64,-2.59,
1.472,-0.61,1.11,-2.04,1.22,-0.77,-2.48,
1.472,-0.61,1.11,-2.04,1.16,-0.90,-2.32,
1.473,-2.91,0.55,-3.08,1.16,-0.90,-2.32,
1.473,-2.91,0.55,-3.08,1.08,-1.00,-2.11,
1.476,-2.91,0.55,-3.08,0.99,-1.09,-1.86,
1.476,-4.35,0.19,-3.23,0.99,-1.09,-1.86,
1.48,-4.35,0.19,-3.23,0.90,-1.18,-1.59,
1.484,-4.66,0.05,-3.04,0.90,-1.18,-1.59,
1.484,-4.66,0.05,-3.04,0.82,-1.24,-1.31,
1.484,-4.66,0.05,-3.04,0.73,-1.25,-1.05,
1.486,-2.17,0.12,-2.73,0.73,-1.25,-1.05,
1.486,-2.17,0.12,-2.73,0.64,-1.22,-0.84,
1.489,-2.17,0.12,-2.73,0.56,-1.15,-0.68,
1.491,-2.17,0.12,-2.73,0.49,-1.07,-0.56,
1.491,0.18,0.76,-1.71,0.49,-1.07,-0.56,
1.493,0.18,0.76,-1.71,0.43,-1.01,-0.47,
1.496,0.18,0.76,-1.71,0.39,-0.94,-0.40,
1.496,1.30,1.46,-0.52,0.39,-0.94,-0.40,
1.499,1.30,1.46,-0.52,0.37,-0.88,-0.34,
1.501,2.03,1.80,0.23,0.37,-0.88,-0.34,
1.502,2.03,1.80,0.23,0.35,-0.81,-0.29,
1.503,2.03,1.80,0.23,0.35,-0.73,-0.24,
1.506,2.03,1.80,0.23,0.35,-0.63,-0.18,
1.506,2.16,1.96,0.61,0.35,-0.63,-0.18,
1.508,2.16,1.96,0.61,0.36,-0.54,-0.12,
1.511,2.45,1.62,0.80,0.36,-0.54,-0.12,
1.511,2.45,1.62,0.80,0.39,-0.42,-0.06,
1.513,2.45,1.62,0.80,0.46,-0.23,-0.01,
1.516,2.11,1.69,1.90,0.46,-0.23,-0.01,
1.516,2.11,1.69,1.90,0.52,-0.16,0.04,
1.518,2.11,1.69,1.90,0.59,-0.16,0.10,
1.521,2.11,1.69,1.90,0.65,-0.17,0.16,
1.521,2.22,1.89,2.22,0.65,-0.17,0.16,
1.523,2.22,1.89,2.22,0.71,-0.17,0.23,
1.526,2.22,1.89,2.22,0.77,-0.18,0.29,
1.526,2.52,1.68,2.14,0.77,-0.18,0.29,
1.528,2.52,1.68,2.14,0.83,-0.23,0.35,
1.531,2.52,1.68,2.14,0.87,-0.29,0.40,
1.531,2.57,1.61,1.98,0.87,-0.29,0.40,
1.534,2.57,1.61,1.98,0.91,-0.28,0.44,
1.536,2.56,1.52,1.35,0.91,-0.28,0.44,
1.536,2.56,1.52,1.35,0.93,-0.26,0.47,
1.538,2.56,1.52,1.35,0.94,-0.24,0.48,
1.541,2.56,1.52,1.35,0.93,-0.26,0.48,
1.541,2.48,1.76,1.07,0.93,-0.26,0.48,
1.543,2.48,1.76,1.07,0.91,-0.29,0.46,
1.545,2.48,1.76,1.07,0.88,-0.35,0.43,
1.546,2.47,1.65,0.81,0.88,-0.35,0.43,
1.548,2.47,1.65,0.81,0.86,-0.40,0.39,
1.551,2.47,1.65,0.81,0.82,-0.44,0.34,
1.552,2.55,1.28,0.49,0.82,-0.44,0.34,
1.553,2.55,1.28,0.49,0.79,-0.47,0.29,
1.556,2.55,1.28,0.49,0.74,-0.48,0.23,
1.556,2.59,0.88,0.05,0.74,-0.48,0.23,
1.558,2.59,0.88,0.05,0.68,-0.48,0.17,
1.565,2.88,0.43,-0.04,0.68,-0.48,0.17,
1.566,2.88,0.43,-0.04,0.63,-0.46,0.11,
1.566,2.88,0.43,-0.04,0.57,-0.43,0.03,
1.566,2.88,0.43,-0.04,0.51,-0.40,-0.06,
1.567,2.86,-0.36,-0.23,0.51,-0.40,-0.06,
1.569,2.86,-0.36,-0.23,0.44,-0.36,-0.18,
1.571,2.76,-1.53,-0.51,0.44,-0.36,-0.18,
1.571,2.76,-1.53,-0.51,0.37,-0.30,-0.32,
1.573,2.76,-1.53,-0.51,0.31,-0.23,-0.47,
1.578,1.56,-1.78,-0.45,0.31,-0.23,-0.47,
1.578,1.56,-1.78,-0.45,0.26,-0.16,-0.60,
1.579,1.56,-1.78,-0.45,0.22,-0.13,-0.70,
1.581,1.56,-1.78,-0.45,0.21,-0.11,-0.78,
1.581,0.41,-0.99,0.25,0.21,-0.11,-0.78,
1.586,0.41,-0.99,0.25,0.20,-0.12,-0.84,
1.622,-0.24,0.06,0.56,0.20,-0.12,-0.84,
1.622,-0.24,0.06,0.56,0.21,-0.15,-0.87,
1.623,-0.24,0.06,0.56,0.23,-0.18,-0.88,
1.624,-0.31,0.69,0.75,0.23,-0.18,-0.88,
1.625,-0.31,0.69,0.75,0.27,-0.23,-0.87,
1.625,-0.31,0.69,0.75,0.31,-0.29,-0.87,
1.625,-0.39,0.87,0.66,0.31,-0.29,-0.87,
1.625,-0.39,0.87,0.66,0.36,-0.34,-0.87,
1.626,-0.39,0.87,0.66,0.42,-0.37,-0.85,
1.626,-0.39,0.87,0.66,0.47,-0.40,-0.84,
1.626,-0.31,1.02,0.43,0.47,-0.40,-0.84,
1.626,-0.31,1.02,0.43,0.51,-0.43,-0.86,
1.627,-0.31,1.02,0.43,0.54,-0.46,-0.88,
1.627,-0.52,1.20,0.12,0.54,-0.46,-0.88,
1.627,-0.52,1.20,0.12,0.55,-0.46,-0.89,
1.627,-0.52,1.20,0.12,0.54,-0.43,-0.88,
1.628,-0.77,1.55,-0.38,0.54,-0.43,-0.88,
1.628,-0.77,1.55,-0.38,0.51,-0.34,-0.82,
1.628,-1.13,1.38,-0.71,0.51,-0.34,-0.82,
1.628,-1.13,1.38,-0.71,0.46,-0.22,-0.72,
1.629,-1.13,1.38,-0.71,0.41,-0.08,-0.63,
1.629,-1.13,1.38,-0.71,0.34,0.06,-0.54,
1.629,-1.24,0.57,-0.90,0.34,0.06,-0.54,
1.629,-0.67,0.04,-0.73,0.34,0.06,-0.54,
1.63,-0.67,0.04,-0.73,0.26,0.20,-0.47,
1.63,-0.67,0.04,-0.73,0.19,0.32,-0.42,
1.63,-0.67,0.04,-0.73,0.12,0.42,-0.40,
1.634,-0.06,0.29,-0.23,0.12,0.42,-0.40,
1.634,-0.06,0.29,-0.23,0.06,0.47,-0.40,
1.635,-0.06,0.29,-0.23,0.01,0.50,-0.42,
1.639,-0.06,0.29,-0.23,-0.04,0.53,-0.46,
1.64,-0.13,0.67,0.10,-0.04,0.53,-0.46,
1.64,-0.13,0.67,0.10,-0.09,0.57,-0.49,
1.64,-0.13,0.67,0.10,-0.13,0.61,-0.52,
1.64,-0.68,0.74,0.31,-0.13,0.61,-0.52,
1.644,-0.68,0.74,0.31,-0.17,0.64,-0.54,
1.646,-0.68,0.74,0.31,-0.20,0.65,-0.57,
1.646,-0.64,0.91,0.69,-0.20,0.65,-0.57,
1.647,-0.64,0.91,0.69,-0.22,0.65,-0.59,
1.653,-0.64,0.91,0.69,-0.25,0.64,-0.62,
1.654,-0.86,0.62,0.72,-0.25,0.64,-0.62,
1.655,-0.86,0.62,0.72,-0.28,0.62,-0.65,
1.656,-0.86,0.62,0.72,-0.29,0.58,-0.68,
1.657,-0.86,0.80,1.01,-0.29,0.58,-0.68,
1.66,-0.86,0.80,1.01,-0.29,0.52,-0.71,
1.66,-0.86,0.80,1.01,-0.30,0.48,-0.73,
1.661,-1.10,0.85,0.83,-0.30,0.48,-0.73,
1.674,-1.10,0.85,0.83,-0.30,0.47,-0.75,
1.676,-1.10,0.85,0.83,-0.29,0.47,-0.76,
1.677,-1.20,1.00,0.59,-0.29,0.47,-0.76,
1.677,-1.20,1.00,0.59,-0.27,0.46,-0.76,
1.678,-1.30,1.07,0.16,-0.27,0.46,-0.76,
1.678,-1.30,1.07,0.16,-0.25,0.48,-0.75,
1.678,-1.30,1.07,0.16,-0.23,0.53,-0.74,
1.679,-1.30,1.07,0.16,-0.20,0.57,-0.72,
1.679,-1.31,1.06,-0.20,-0.20,0.57,-0.72,
1.679,-1.31,1.06,-0.20,-0.16,0.61,-0.70,
1.68,-1.31,1.06,-0.20,-0.12,0.65,-0.69,
1.68,-1.10,0.88,-0.43,-0.12,0.65,-0.69,
1.696,-1.10,0.88,-0.43,-0.07,0.68,-0.68,
1.697,-1.10,0.88,-0.43,-0.03,0.70,-0.67,
1.697,-1.10,0.88,-0.43,0.03,0.69,-0.65,
1.697,-0.77,0.67,-0.55,0.03,0.69,-0.65,
1.697,-0.77,0.67,-0.55,0.08,0.68,-0.63,
1.698,-0.44,0.43,-0.68,0.08,0.68,-0.63,
1.698,-0.44,0.43,-0.68,0.14,0.66,-0.61,
1.698,-0.44,0.43,-0.68,0.19,0.62,-0.57,
1.698,-0.23,0.28,-0.88,0.19,0.62,-0.57,
1.699,-0.23,0.28,-0.88,0.24,0.59,-0.53,
1.7,-0.23,0.28,-0.88,0.26,0.57,-0.49,
1.701,-0.02,0.29,-1.18,0.26,0.57,-0.49,
1.702,-0.02,0.29,-1.18,0.28,0.55,-0.44,
1.705,-0.02,0.29,-1.18,0.28,0.52,-0.40,
1.705,-0.01,0.20,-1.36,0.28,0.52,-0.40,
1.707,-0.01,0.20,-1.36,0.27,0.50,-0.37,
1.711,-0.01,0.20,-1.36,0.25,0.49,-0.34,
1.712,-0.03,-0.03,-1.42,0.25,0.49,-0.34,
1.712,-0.03,-0.03,-1.42,0.22,0.47,-0.33,
1.714,0.05,-0.12,-1.47,0.22,0.47,-0.33,
1.715,0.05,-0.12,-1.47,0.19,0.45,-0.33,
1.717,0.05,-0.12,-1.47,0.15,0.45,-0.34,
1.719,0.20,-0.02,-1.37,0.15,0.45,-0.34,
1.721,0.20,-0.02,-1.37,0.11,0.44,-0.35,
1.721,0.20,-0.02,-1.37,0.08,0.44,-0.37,
1.726,0.24,0.02,-1.09,0.08,0.44,-0.37,
1.726,0.24,0.02,-1.09,0.04,0.43,-0.40,
1.728,0.24,0.02,-1.09,0.01,0.42,-0.43,
1.73,0.24,0.02,-1.09,-0.02,0.41,-0.46,
1.731,0.28,0.06,-0.81,-0.02,0.41,-0.46,
1.732,0.28,0.06,-0.81,-0.04,0.39,-0.49,
1.736,0.18,0.09,-0.56,-0.04,0.39,-0.49,
1.737,0.18,0.09,-0.56,-0.06,0.37,-0.53,
1.737,0.18,0.09,-0.56,-0.07,0.34,-0.56,
1.739,0.18,0.09,-0.56,-0.09,0.32,-0.60,
1.739,0.10,0.11,-0.38,-0.09,0.32,-0.60,
1.743,0.10,0.11,-0.38,-0.10,0.30,-0.65,
1.745,0.10,0.11,-0.38,-0.10,0.29,-0.70,
1.745,-0.20,0.17,-0.38,-0.10,0.29,-0.70,
1.746,-0.20,0.17,-0.38,-0.11,0.30,-0.74,
1.749,-0.20,0.17,-0.38,-0.11,0.32,-0.78,
1.775,-0.73,0.45,-0.52,-0.11,0.32,-0.78,
1.776,-0.73,0.45,-0.52,-0.11,0.37,-0.81,
1.776,-0.73,0.45,-0.52,-0.10,0.43,-0.82,
1.777,-1.62,0.89,-0.64,-0.10,0.43,-0.82,
1.777,-1.62,0.89,-0.64,-0.09,0.52,-0.82,
1.778,-1.62,0.89,-0.64,-0.07,0.62,-0.81,
1.778,-2.76,1.32,-0.61,-0.07,0.62,-0.81,
1.778,-2.76,1.32,-0.61,-0.04,0.73,-0.78,
1.779,-2.76,1.32,-0.61,-0.02,0.86,-0.73,
1.779,-3.88,1.68,-0.74,-0.02,0.86,-0.73,
1.78,-3.88,1.68,-0.74,-0.03,1.03,-0.67,
1.78,-4.58,2.35,-1.38,-0.03,1.03,-0.67,
1.781,-4.58,2.35,-1.38,-0.08,1.25,-0.60,
1.781,-4.58,2.35,-1.38,-0.15,1.51,-0.53,
1.781,-4.58,2.35,-1.38,-0.21,1.77,-0.46,
1.782,-5.55,2.25,-0.88,-0.21,1.77,-0.46,
1.782,-5.55,2.25,-0.88,-0.26,1.98,-0.38,
1.783,-5.55,2.25,-0.88,-0.32,2.16,-0.29,
1.783,-6.60,2.19,0.02,-0.32,2.16,-0.29,
1.783,-6.60,2.19,0.02,-0.38,2.32,-0.20,
1.784,-6.60,2.19,0.02,-0.39,2.39,-0.10,
1.784,-7.23,0.76,1.14,-0.39,2.39,-0.10,
1.792,-6.52,-0.60,1.58,-0.39,2.39,-0.10,
1.793,-6.52,-0.60,1.58,-0.38,2.42,-0.02,
1.793,-6.52,-0.60,1.58,-0.35,2.46,0.04,
1.793,-6.52,-0.60,1.58,-0.33,2.48,0.08,
1.794,-5.83,-0.90,2.37,-0.33,2.48,0.08,
1.794,-5.83,-0.90,2.37,-0.29,2.51,0.11,
1.796,-5.83,-0.90,2.37,-0.25,2.53,0.14,
1.799,-4.79,-0.58,3.15,-0.25,2.53,0.14,
1.799,-4.79,-0.58,3.15,-0.22,2.55,0.14,
1.802,-4.79,-0.58,3.15,-0.19,2.57,0.13,
1.804,-4.00,-0.52,3.50,-0.19,2.57,0.13,
1.804,-4.00,-0.52,3.50,-0.16,2.59,0.12,
1.806,-4.00,-0.52,3.50,-0.14,2.58,0.12,
1.808,-3.96,-0.99,4.07,-0.14,2.58,0.12,
1.809,-3.96,-0.99,4.07,-0.10,2.55,0.12,
1.811,-3.96,-0.99,4.07,-0.06,2.50,0.14,
1.813,-3.96,-0.99,4.07,-0.00,2.48,0.13,
1.814,-2.87,-0.63,4.59,-0.00,2.48,0.13,
1.816,-2.87,-0.63,4.59,0.08,2.53,0.09,
1.818,-1.89,-0.07,5.02,0.08,2.53,0.09,
1.819,-1.89,-0.07,5.02,0.17,2.62,0.04,
1.821,-1.89,-0.07,5.02,0.28,2.73,0.00,
1.824,-1.48,0.42,5.95,0.28,2.73,0.00,
1.825,-1.48,0.42,5.95,0.43,2.84,-0.03,
1.827,-1.48,0.42,5.95,0.58,2.90,-0.05,
1.829,-1.18,-0.13,6.66,0.58,2.90,-0.05,
1.829,-1.18,-0.13,6.66,0.73,2.94,-0.07,
1.831,-1.18,-0.13,6.66,0.87,2.96,-0.09,
1.833,-0.40,0.59,7.39,0.87,2.96,-0.09,
1.834,-0.40,0.59,7.39,0.99,2.95,-0.11,
1.837,-0.40,0.59,7.39,1.10,2.88,-0.14,
1.838,-0.40,0.59,7.39,1.19,2.78,-0.16,
1.838,-0.27,2.41,7.60,1.19,2.78,-0.16,
1.84,-0.27,2.41,7.60,1.26,2.65,-0.14,
1.843,-0.27,2.41,7.60,1.36,2.52,-0.10,
1.843,-0.97,2.35,7.62,1.36,2.52,-0.10,
1.846,-0.97,2.35,7.62,1.48,2.39,-0.06,
1.851,-0.97,2.35,7.62,1.58,2.29,-0.04,
1.851,0.28,2.22,6.42,1.58,2.29,-0.04,
1.852,0.28,2.22,6.42,1.65,2.27,-0.03,
1.856,0.94,1.54,3.71,1.65,2.27,-0.03,
1.857,0.94,1.54,3.71,1.68,2.30,-0.02,
1.857,0.94,1.54,3.71,1.68,2.36,-0.01,
1.86,1.22,0.63,2.20,1.68,2.36,-0.01,
1.86,1.22,0.63,2.20,1.65,2.42,-0.00,
1.863,1.57,-0.28,1.47,1.65,2.42,-0.00,
1.864,1.57,-0.28,1.47,1.61,2.50,0.01,
1.864,1.57,-0.28,1.47,1.54,2.57,0.00,
1.866,1.57,-0.28,1.47,1.49,2.64,-0.04,
1.868,1.98,-0.99,1.28,1.49,2.64,-0.04,
1.868,1.98,-0.99,1.28,1.45,2.67,-0.10,
1.87,1.98,-0.99,1.28,1.41,2.72,-0.17,
1.873,1.98,-0.99,1.28,1.35,2.78,-0.19,
1.873,1.17,-1.16,-0.10,1.35,2.78,-0.19,
1.875,1.17,-1.16,-0.10,1.29,2.83,-0.22,
1.878,1.17,-1.16,-0.10,1.23,2.84,-0.27,
1.878,1.89,-0.88,0.14,1.23,2.84,-0.27,
1.88,1.89,-0.88,0.14,1.19,2.81,-0.34,
1.89,1.17,-0.99,-0.18,1.19,2.81,-0.34,
1.891,1.17,-0.99,-0.18,1.15,2.77,-0.37,
1.891,1.17,-0.99,-0.18,1.10,2.72,-0.38,
1.892,1.31,-0.73,-1.07,1.10,2.72,-0.38,
1.892,1.31,-0.73,-1.07,1.03,2.68,-0.39,
1.892,1.31,-0.73,-1.07,0.97,2.61,-0.38,
1.895,1.64,-0.25,-0.92,0.97,2.61,-0.38,
1.895,1.64,-0.25,-0.92,0.91,2.51,-0.37,
1.896,1.64,-0.25,-0.92,0.87,2.42,-0.41,
1.898,4.13,1.32,-1.65,0.87,2.42,-0.41,
1.898,4.13,1.32,-1.65,0.81,2.33,-0.51,
1.925,4.13,1.32,-1.65,0.75,2.22,-0.61,
1.926,3.95,1.36,-2.26,0.75,2.22,-0.61,
1.926,3.95,1.36,-2.26,0.67,2.09,-0.70,
1.926,3.95,1.36,-2.26,0.60,1.92,-0.76,
1.927,2.91,0.85,-2.77,0.60,1.92,-0.76,
1.927,2.91,0.85,-2.77,0.52,1.73,-0.81,
1.927,2.55,0.90,-3.41,0.52,1.73,-0.81,
1.928,2.55,0.90,-3.41,0.44,1.53,-0.84,
1.928,2.55,0.90,-3.41,0.35,1.30,-0.86,
1.962,2.55,0.90,-3.41,0.26,1.04,-0.88,
1.962,2.13,0.53,-3.07,0.26,1.04,-0.88,
1.963,2.13,0.53,-3.07,0.18,0.76,-0.88,
1.963,2.13,0.53,-3.07,0.11,0.44,-0.88,
1.963,1.83,0.27,-2.20,0.11,0.44,-0.88,
1.964,1.83,0.27,-2.20,0.06,0.08,-0.89,
1.964,1.83,0.27,-2.20,0.01,-0.30,-0.88,
1.965,1.83,0.27,-2.20,-0.00,-0.70,-0.85,
1.965,1.83,0.27,-2.20,0.00,-1.13,-0.79,
1.965,1.83,0.27,-2.20,0.01,-1.56,-0.74,
1.966,1.83,0.27,-2.20,-0.01,-1.90,-0.72,
1.966,0.44,-0.96,-0.91,-0.01,-1.90,-0.72,
1.966,-0.01,-1.86,-0.43,-0.01,-1.90,-0.72,
1.967,-0.01,-1.86,-0.43,-0.07,-2.09,-0.74,
1.967,-0.01,-1.86,-0.43,-0.10,-2.26,-0.78,
1.967,2.32,0.38,-3.03,-0.10,-2.26,-0.78,
1.968,1.62,-0.03,-0.25,-0.10,-2.26,-0.78,
1.968,1.62,-0.03,-0.25,-0.07,-2.48,-0.83,
1.968,1.62,-0.03,-0.25,0.02,-2.75,-0.85,
1.969,2.10,-0.11,-1.13,0.02,-2.75,-0.85,
1.969,2.10,-0.11,-1.13,0.08,-2.93,-0.90,
1.969,2.10,-0.11,-1.13,0.06,-2.88,-0.98,
1.97,2.10,-0.11,-1.13,0.05,-2.75,-1.07,
1.97,2.95,-0.38,-2.75,0.05,-2.75,-1.07,
1.97,2.95,-0.38,-2.75,0.12,-2.66,-1.17,
1.971,2.52,-2.55,-0.37,0.12,-2.66,-1.17,
1.971,2.52,-2.55,-0.37,0.21,-2.49,-1.28,
1.971,2.52,-2.55,-0.37,0.35,-2.28,-1.40,
1.972,1.84,-4.45,1.62,0.35,-2.28,-1.40,
1.972,1.84,-4.45,1.62,0.53,-2.09,-1.55,
1.973,1.89,-4.54,-0.08,0.53,-2.09,-1.55,
1.973,1.89,-4.54,-0.08,0.67,-1.77,-1.72,
1.974,1.89,-4.54,-0.08,0.77,-1.37,-1.90,
1.974,1.89,-4.54,-0.08,0.90,-1.01,-2.09,
1.974,1.89,-4.54,-0.08,1.02,-0.67,-2.27,
1.975,1.21,-4.59,0.96,1.02,-0.67,-2.27,
1.975,1.21,-4.59,0.96,1.09,-0.33,-2.44,
1.988,1.21,-4.59,0.96,1.16,-0.04,-2.60,
1.989,0.60,-4.42,1.02,1.16,-0.04,-2.60,
1.989,0.60,-4.42,1.02,1.19,0.19,-2.73,
1.989,0.60,-4.42,1.02,1.18,0.35,-2.83,
1.99,-0.42,-3.97,0.69,1.18,0.35,-2.83,
1.99,-0.42,-3.97,0.69,1.12,0.42,-2.89,
1.99,-0.42,-3.97,0.69,1.05,0.38,-2.91,
1.991,-1.84,-3.00,1.37,1.05,0.38,-2.91,
1.991,-1.84,-3.00,1.37,0.94,0.25,-2.87,
1.992,-1.84,-3.00,1.37,0.78,0.11,-2.81,
1.993,-3.09,-1.66,0.89,0.78,0.11,-2.81,
1.995,-3.09,-1.66,0.89,0.63,0.00,-2.71,
1.999,-3.59,-1.39,1.04,0.63,0.00,-2.71,
2.0,-3.59,-1.39,1.04,0.49,-0.07,-2.58,
2.005,-3.59,-1.39,1.04,0.37,-0.12,-2.45,
2.006,-3.59,-1.39,1.04,0.27,-0.12,-2.30,
2.006,-3.55,-1.27,1.27,0.27,-0.12,-2.30,
2.006,-3.55,-1.27,1.27,0.19,-0.10,-2.15,
2.007,-3.55,-1.27,1.27,0.12,-0.07,-2.02,
2.007,-2.55,-1.07,1.44,0.12,-0.07,-2.02,
2.009,-2.55,-1.07,1.44,0.06,0.00,-1.89,
2.012,-2.55,-1.07,1.44,0.02,0.10,-1.77,
2.012,-1.37,-0.86,1.40,0.02,0.10,-1.77,
2.014,-1.37,-0.86,1.40,-0.01,0.21,-1.67,
2.018,-1.37,-0.86,1.40,-0.03,0.33,-1.58,
2.019,0.19,-0.66,1.62,-0.03,0.33,-1.58,
2.019,0.19,-0.66,1.62,-0.04,0.44,-1.51,
2.022,1.54,-0.31,1.54,-0.04,0.44,-1.51,
2.022,1.54,-0.31,1.54,-0.05,0.54,-1.46,
2.024,1.54,-0.31,1.54,-0.06,0.63,-1.41,
2.026,1.54,-0.31,1.54,-0.07,0.71,-1.36,
2.027,2.19,0.15,1.22,-0.07,0.71,-1.36,
2.029,2.19,0.15,1.22,-0.07,0.78,-1.31,
2.031,2.19,0.15,1.22,-0.07,0.84,-1.28,
2.031,2.63,0.49,1.02,-0.07,0.84,-1.28,
2.043,2.63,0.49,1.02,-0.07,0.89,-1.24,
2.043,2.63,0.49,1.02,-0.07,0.93,-1.22,
2.043,3.10,0.41,0.69,-0.07,0.93,-1.22,
2.043,3.10,0.41,0.69,-0.07,0.96,-1.20,
2.044,3.10,0.41,0.69,-0.07,0.97,-1.18,
2.044,3.18,0.59,0.47,-0.07,0.97,-1.18,
2.045,3.18,0.59,0.47,-0.07,0.98,-1.16,
2.047,3.18,0.59,0.47,-0.06,0.98,-1.13,
2.05,2.99,0.91,0.44,-0.06,0.98,-1.13,
2.05,2.99,0.91,0.44,-0.05,0.96,-1.09,
2.051,2.86,1.17,0.30,-0.05,0.96,-1.09,
2.052,2.86,1.17,0.30,-0.04,0.95,-1.05,
2.054,2.86,1.17,0.30,-0.03,0.92,-1.01,
2.056,2.63,1.35,0.30,-0.03,0.92,-1.01,
2.057,2.63,1.35,0.30,-0.03,0.90,-0.96,
2.059,2.63,1.35,0.30,-0.03,0.87,-0.90,
2.061,2.63,1.35,0.30,-0.02,0.85,-0.84,
2.061,2.38,1.61,0.19,-0.02,0.85,-0.84,
2.065,2.38,1.61,0.19,-0.02,0.84,-0.77,
2.071,2.10,1.86,0.18,-0.02,0.84,-0.77,
2.072,2.10,1.86,0.18,-0.01,0.82,-0.69,
2.072,2.10,1.86,0.18,-0.00,0.81,-0.61,
2.073,2.10,1.86,0.18,0.00,0.80,-0.52,
2.073,2.12,1.97,0.06,0.00,0.80,-0.52,
2.075,2.12,1.97,0.06,0.00,0.79,-0.42,
2.076,2.26,2.00,-0.19,0.00,0.79,-0.42,
2.077,2.26,2.00,-0.19,0.00,0.78,-0.31,
2.079,2.26,2.00,-0.19,0.01,0.77,-0.21,
2.105,2.26,2.00,-0.19,0.00,0.76,-0.11,
2.105,2.77,1.63,-0.47,0.00,0.76,-0.11,
2.105,2.77,1.63,-0.47,0.00,0.76,-0.02,
2.105,2.77,1.63,-0.47,-0.00,0.75,0.06,
2.105,3.02,1.04,-0.69,-0.00,0.75,0.06,
2.106,3.02,1.04,-0.69,-0.00,0.72,0.13,
2.106,3.02,1.04,-0.69,-0.00,0.69,0.19,
2.106,2.95,0.69,-0.88,-0.00,0.69,0.19,
2.106,2.95,0.69,-0.88,-0.01,0.66,0.25,
2.106,2.77,0.47,-1.14,-0.01,0.66,0.25,
2.106,2.77,0.47,-1.14,-0.02,0.63,0.28,
2.107,2.77,0.47,-1.14,-0.03,0.61,0.30,
2.107,2.77,0.47,-1.14,-0.03,0.58,0.32,
2.107,2.62,0.37,-1.27,-0.03,0.58,0.32,
2.107,2.62,0.37,-1.27,-0.03,0.55,0.34,
2.107,2.62,0.37,-1.27,-0.04,0.51,0.35,
2.107,2.24,0.29,-1.41,-0.04,0.51,0.35,
2.108,2.24,0.29,-1.41,-0.04,0.48,0.37,
2.111,2.24,0.29,-1.41,-0.04,0.44,0.38,
2.111,1.95,0.16,-1.37,-0.04,0.44,0.38,
2.113,1.95,0.16,-1.37,-0.03,0.40,0.38,
2.117,1.95,0.16,-1.37,-0.02,0.36,0.37,
2.117,1.78,0.12,-1.24,-0.02,0.36,0.37,
2.119,1.78,0.12,-1.24,-0.01,0.31,0.36,
2.121,1.50,0.05,-1.14,-0.01,0.31,0.36,
2.121,1.50,0.05,-1.14,-0.00,0.26,0.34,
2.124,1.50,0.05,-1.14,0.00,0.22,0.33,
2.126,1.24,-0.03,-1.06,0.00,0.22,0.33,
2.126,1.24,-0.03,-1.06,0.01,0.18,0.31,
2.128,1.24,-0.03,-1.06,0.01,0.15,0.30,
2.13,1.24,-0.03,-1.06,0.01,0.11,0.29,
2.13,1.07,-0.01,-1.00,0.01,0.11,0.29,
2.133,1.07,-0.01,-1.00,0.00,0.09,0.28,
2.136,1.10,0.16,-0.97,0.00,0.09,0.28,
2.136,1.10,0.16,-0.97,0.00,0.07,0.28,
2.138,1.10,0.16,-0.97,-0.00,0.08,0.29,
2.14,1.10,0.16,-0.97,-0.01,0.09,0.30,
2.14,1.25,0.44,-1.08,-0.01,0.09,0.30,
2.143,1.25,0.44,-1.08,-0.01,0.10,0.31,
2.146,1.25,0.44,-1.08,-0.01,0.13,0.33,
2.146,1.25,0.64,-1.19,-0.01,0.13,0.33,
2.148,1.25,0.64,-1.19,-0.01,0.16,0.35,
2.151,1.16,0.72,-1.41,-0.01,0.16,0.35,
2.151,1.16,0.72,-1.41,-0.00,0.21,0.37,
2.154,1.16,0.72,-1.41,0.01,0.26,0.39,
2.157,1.16,0.72,-1.41,0.03,0.31,0.41,
2.157,1.08,0.71,-1.69,0.03,0.31,0.41,
2.159,1.08,0.71,-1.69,0.05,0.37,0.44,
2.16,1.08,0.71,-1.69,0.08,0.43,0.47,
2.16,1.06,0.68,-1.97,0.08,0.43,0.47,
2.163,1.06,0.68,-1.97,0.11,0.46,0.51,
2.175,1.06,0.68,-1.97,0.14,0.49,0.54,
2.175,1.12,0.71,-2.20,0.14,0.49,0.54,
2.176,1.10,0.74,-2.39,0.14,0.49,0.54,
2.176,1.10,0.74,-2.39,0.18,0.52,0.57,
2.176,1.10,0.74,-2.39,0.22,0.54,0.60,
2.177,1.10,0.74,-2.39,0.27,0.57,0.63,
2.177,1.10,0.74,-2.39,0.32,0.59,0.67,
2.177,1.11,0.79,-2.40,0.32,0.59,0.67,
2.178,1.11,0.79,-2.40,0.36,0.59,0.71,
2.18,1.11,0.79,-2.40,0.40,0.57,0.75,
2.181,1.03,0.87,-2.35,0.40,0.57,0.75,
2.194,1.03,0.87,-2.35,0.43,0.54,0.79,
2.195,0.96,0.86,-2.39,0.43,0.54,0.79,
2.195,0.96,0.86,-2.39,0.45,0.50,0.82,
2.195,0.96,0.86,-2.39,0.47,0.47,0.86,
2.196,0.96,0.86,-2.39,0.48,0.44,0.90,
2.196,0.88,0.84,-2.33,0.48,0.44,0.90,
2.196,0.88,0.84,-2.33,0.49,0.41,0.94,
2.196,0.88,0.84,-2.33,0.50,0.40,0.98,
2.196,0.75,0.81,-2.17,0.50,0.40,0.98,
2.198,0.75,0.81,-2.17,0.52,0.39,1.01,
2.201,0.75,0.81,-2.17,0.53,0.39,1.04,
2.202,0.67,0.86,-1.99,0.53,0.39,1.04,
2.203,0.67,0.86,-1.99,0.55,0.41,1.07,
2.206,0.56,0.84,-1.83,0.55,0.41,1.07,
2.206,0.56,0.84,-1.83,0.59,0.47,1.10,
2.207,0.56,0.84,-1.83,0.62,0.54,1.12,
2.211,0.56,0.84,-1.83,0.65,0.58,1.15,
2.211,0.38,0.77,-1.51,0.65,0.58,1.15,
2.212,0.38,0.77,-1.51,0.67,0.61,1.17,
2.216,0.38,0.77,-1.51,0.70,0.63,1.20,
2.216,0.20,0.69,-1.50,0.70,0.63,1.20,
2.218,0.20,0.69,-1.50,0.72,0.64,1.23,
2.222,0.20,0.69,-1.50,0.74,0.64,1.26,
2.222,0.08,0.64,-1.46,0.74,0.64,1.26,
2.223,0.08,0.64,-1.46,0.75,0.64,1.29,
2.225,-0.10,0.47,-1.48,0.75,0.64,1.29,
2.226,-0.10,0.47,-1.48,0.75,0.62,1.32,
2.227,-0.10,0.47,-1.48,0.75,0.58,1.35,
2.23,-0.10,0.47,-1.48,0.75,0.53,1.38,
2.23,-0.32,0.19,-1.35,0.75,0.53,1.38,
2.232,-0.32,0.19,-1.35,0.74,0.48,1.41,
2.236,-0.57,0.02,-1.36,0.74,0.48,1.41,
2.237,-0.57,0.02,-1.36,0.73,0.42,1.45,
2.238,-0.57,0.02,-1.36,0.72,0.36,1.48,
2.24,-0.57,0.02,-1.36,0.70,0.31,1.51,
2.24,-0.72,-0.04,-1.25,0.70,0.31,1.51,
2.242,-0.72,-0.04,-1.25,0.69,0.26,1.55,
2.245,-0.81,-0.15,-1.03,0.69,0.26,1.55,
2.258,-0.81,-0.15,-1.03,0.68,0.20,1.58,
2.259,-0.81,-0.15,-1.03,0.67,0.14,1.61,
2.259,-0.88,-0.01,-0.92,0.67,0.14,1.61,
2.259,-0.88,-0.01,-0.92,0.66,0.10,1.65,
2.259,-0.88,-0.01,-0.92,0.65,0.07,1.68,
2.26,-0.79,-0.02,-0.92,0.65,0.07,1.68,
2.26,-0.79,-0.02,-0.92,0.65,0.04,1.71,
2.26,-0.79,-0.02,-0.92,0.64,0.03,1.74,
2.26,-0.79,-0.02,-0.92,0.63,0.04,1.76,
2.261,-0.69,-0.48,-1.28,0.63,0.04,1.76,
2.265,-0.69,-0.48,-1.28,0.61,0.07,1.78,
2.266,-0.42,-0.70,-1.62,0.61,0.07,1.78,
2.266,-0.42,-0.70,-1.62,0.59,0.11,1.79,
2.268,-0.42,-0.70,-1.62,0.57,0.16,1.79,
2.27,-0.42,-0.70,-1.62,0.55,0.21,1.78,
2.271,-0.12,-1.16,-2.12,0.55,0.21,1.78,
2.272,-0.12,-1.16,-2.12,0.52,0.28,1.77,
2.274,-0.04,-1.75,-2.73,0.52,0.28,1.77,
2.275,-0.04,-1.75,-2.73,0.50,0.36,1.75,
2.277,-0.04,-1.75,-2.73,0.46,0.47,1.73,
2.279,-0.04,-1.75,-2.73,0.43,0.58,1.70,
2.279,-0.10,-2.15,-3.37,0.43,0.58,1.70,
2.281,-0.10,-2.15,-3.37,0.40,0.69,1.68,
2.291,-0.18,-2.12,-3.84,0.40,0.69,1.68,
2.292,-0.18,-2.12,-3.84,0.38,0.80,1.66,
2.292,-0.18,-2.12,-3.84,0.35,0.89,1.64,
2.292,-0.33,-2.11,-4.55,0.35,0.89,1.64,
2.293,-0.33,-2.11,-4.55,0.33,0.99,1.62,
2.293,-0.33,-2.11,-4.55,0.31,1.14,1.59,
2.295,-1.60,-2.70,-5.81,0.31,1.14,1.59,
2.295,-1.60,-2.70,-5.81,0.34,1.40,1.53,
2.296,-1.60,-2.70,-5.81,0.40,1.60,1.44,
2.303,-1.79,-3.08,-5.46,0.40,1.60,1.44,
2.303,-1.79,-3.08,-5.46,0.46,1.72,1.35,
2.303,-1.79,-3.08,-5.46,0.50,1.75,1.26,
2.304,-1.65,-3.17,-5.44,0.50,1.75,1.26,
2.304,-1.65,-3.17,-5.44,0.52,1.67,1.16,
2.306,-1.65,-3.17,-5.44,0.52,1.51,1.07,
2.309,-1.55,-2.46,-5.30,0.52,1.51,1.07,
2.309,-1.55,-2.46,-5.30,0.51,1.28,0.99,
2.311,-1.55,-2.46,-5.30,0.49,1.03,0.94,
2.314,-1.55,-2.46,-5.30,0.48,0.78,0.89,
2.314,-1.43,-2.08,-4.32,0.48,0.78,0.89,
2.316,-1.43,-2.08,-4.32,0.50,0.55,0.85,
2.319,-1.52,-1.81,-3.17,0.50,0.55,0.85,
2.319,-1.52,-1.81,-3.17,0.53,0.37,0.82,
2.322,-1.52,-1.81,-3.17,0.57,0.23,0.81,
2.324,-1.25,-1.58,-2.06,0.57,0.23,0.81,
2.324,-1.25,-1.58,-2.06,0.62,0.11,0.79,
2.326,-1.25,-1.58,-2.06,0.67,-0.00,0.79,
2.329,-1.25,-1.58,-2.06,0.72,-0.11,0.80,
2.329,-0.80,-1.08,-1.03,0.72,-0.11,0.80,
2.331,-0.80,-1.08,-1.03,0.76,-0.19,0.82,
2.334,-0.80,-1.08,-1.03,0.78,-0.27,0.85,
2.334,-0.49,-0.69,-0.49,0.78,-0.27,0.85,
2.336,-0.49,-0.69,-0.49,0.79,-0.36,0.90,
2.339,-0.28,-0.57,0.18,0.79,-0.36,0.90,
2.339,-0.28,-0.57,0.18,0.80,-0.42,0.97,
2.341,-0.28,-0.57,0.18,0.81,-0.47,1.04,
2.344,-0.28,-0.57,0.18,0.81,-0.53,1.12,
2.344,-0.05,-0.53,0.85,0.81,-0.53,1.12,
2.35,-0.05,-0.53,0.85,0.83,-0.57,1.21,
2.35,-0.05,-0.53,0.85,0.86,-0.63,1.30,
2.351,0.25,-0.51,1.57,0.86,-0.63,1.30,
2.352,0.25,-0.51,1.57,0.89,-0.68,1.40,
2.355,0.54,-0.47,2.19,0.89,-0.68,1.40,
2.356,0.54,-0.47,2.19,0.92,-0.75,1.49,
2.356,0.54,-0.47,2.19,0.96,-0.83,1.59,
2.36,0.81,-0.38,2.75,0.96,-0.83,1.59,
2.36,0.81,-0.38,2.75,1.00,-0.93,1.69,
2.361,0.81,-0.38,2.75,1.06,-1.03,1.80,
2.364,1.05,-0.33,2.99,1.06,-1.03,1.80,
2.364,1.05,-0.33,2.99,1.11,-1.12,1.90,
2.368,1.05,-0.33,2.99,1.17,-1.22,2.00,
2.369,1.05,-0.33,2.99,1.24,-1.33,2.10,
2.369,1.40,-0.17,3.26,1.24,-1.33,2.10,
2.371,1.40,-0.17,3.26,1.30,-1.40,2.20,
2.373,1.40,-0.17,3.26,1.37,-1.43,2.30,
2.374,1.01,-0.27,2.74,1.37,-1.43,2.30,
2.376,1.01,-0.27,2.74,1.46,-1.41,2.42,
2.378,1.01,-0.27,2.74,1.58,-1.39,2.54,
2.379,-0.10,-0.69,3.24,1.58,-1.39,2.54,
2.381,-0.10,-0.69,3.24,1.71,-1.35,2.66,
2.386,0.63,-0.92,1.68,1.71,-1.35,2.66,
2.386,0.63,-0.92,1.68,1.81,-1.23,2.78,
2.386,0.63,-0.92,1.68,1.90,-1.09,2.88,
2.388,0.63,-0.92,1.68,2.00,-1.00,2.98,
2.388,0.95,-1.32,2.20,2.00,-1.00,2.98,
2.39,0.95,-1.32,2.20,2.11,-0.93,3.07,
2.395,0.95,-1.32,2.20,2.23,-0.98,3.17,
2.396,1.04,-1.89,4.18,2.23,-0.98,3.17,
2.396,1.04,-1.89,4.18,2.30,-1.18,3.27,
2.398,1.04,-1.89,4.18,2.23,-1.28,3.29,
2.398,1.79,-2.80,0.70,2.23,-1.28,3.29,
2.405,1.79,-2.80,0.70,2.10,-1.39,3.11,
2.405,1.79,-2.80,0.70,2.02,-1.55,2.93,
2.405,1.87,-3.42,2.68,2.02,-1.55,2.93,
2.405,1.87,-3.42,2.68,2.02,-1.83,2.74,
2.409,2.29,-3.95,5.27,2.02,-1.83,2.74,
2.409,2.29,-3.95,5.27,2.02,-2.15,2.50,
2.42,2.29,-3.95,5.27,2.00,-2.45,2.24,
2.42,2.29,-3.95,5.27,1.92,-2.69,1.96,
2.42,2.76,-3.99,4.39,1.92,-2.69,1.96,
2.42,2.76,-3.99,4.39,1.82,-2.92,1.64,
2.42,2.76,-3.99,4.39,1.67,-3.10,1.29,
2.421,2.75,-4.39,4.55,1.67,-3.10,1.29,
2.421,2.75,-4.39,4.55,1.42,-3.30,0.55,
2.424,2.75,-4.39,4.55,1.05,-3.57,-0.58,
2.427,1.63,-2.55,4.24,1.05,-3.57,-0.58,
2.427,1.63,-2.55,4.24,0.81,-3.64,-1.50,
2.428,1.63,-2.55,4.24,0.61,-3.77,-2.33,
2.428,-1.57,1.24,6.91,0.61,-3.77,-2.33,
2.43,-1.57,1.24,6.91,0.35,-3.89,-3.11,
2.433,-2.54,3.24,4.28,0.35,-3.89,-3.11,
2.434,-2.54,3.24,4.28,0.08,-3.83,-3.76,
2.435,-2.54,3.24,4.28,-0.17,-3.63,-4.28,
2.438,-2.54,3.24,4.28,-0.36,-3.37,-4.70,
2.438,-3.38,3.19,4.05,-0.36,-3.37,-4.70,
2.44,-3.38,3.19,4.05,-0.54,-2.99,-5.00,
2.443,-3.38,3.19,4.05,-0.70,-2.53,-5.22,
2.443,-3.50,2.77,2.75,-0.70,-2.53,-5.22,
2.445,-3.50,2.77,2.75,-0.79,-2.01,-5.33,
2.448,-3.50,2.77,2.75,-0.80,-1.41,-5.31,
2.448,-3.96,2.70,3.43,-0.80,-1.41,-5.31,
2.45,-3.96,2.70,3.43,-0.76,-0.76,-5.20,
2.454,-3.96,2.70,3.43,-0.68,-0.09,-4.99,
2.454,-4.69,2.58,3.65,-0.68,-0.09,-4.99,
2.456,-4.69,2.58,3.65,-0.60,0.58,-4.70,
2.459,-4.69,2.58,3.65,-0.51,1.20,-4.37,
2.459,-4.34,1.93,3.14,-0.51,1.20,-4.37,
2.462,-4.34,1.93,3.14,-0.41,1.71,-4.01,
2.464,-4.34,1.93,3.14,-0.30,2.09,-3.66,
2.464,-3.64,1.66,3.90,-0.30,2.09,-3.66,
2.465,-3.64,1.66,3.90,-0.22,2.34,-3.30,
2.468,-2.83,1.63,2.87,-0.22,2.34,-3.30,
2.468,-2.83,1.63,2.87,-0.19,2.46,-2.95,
2.47,-2.83,1.63,2.87,-0.18,2.43,-2.62,
2.473,-2.64,1.20,2.97,-0.18,2.43,-2.62,
2.473,-2.64,1.20,2.97,-0.20,2.27,-2.30,
2.475,-2.64,1.20,2.97,-0.24,2.08,-2.02,
2.478,-2.64,1.20,2.97,-0.28,1.90,-1.78,
2.478,-1.83,-0.09,1.98,-0.28,1.90,-1.78,
2.48,-1.83,-0.09,1.98,-0.31,1.71,-1.58,
2.483,-1.42,-1.32,1.48,-0.31,1.71,-1.58,
2.483,-1.42,-1.32,1.48,-0.32,1.51,-1.41,
2.486,-1.42,-1.32,1.48,-0.33,1.32,-1.28,
2.488,-1.42,-1.32,1.48,-0.33,1.14,-1.18,
2.488,-0.97,-2.22,0.82,-0.33,1.14,-1.18,
2.492,-0.97,-2.22,0.82,-0.30,0.99,-1.11,
2.493,-0.97,-2.22,0.82,-0.27,0.88,-1.06,
2.493,-0.36,-2.88,0.04,-0.27,0.88,-1.06,
2.498,-0.10,-2.99,-0.65,-0.27,0.88,-1.06,
2.498,-0.10,-2.99,-0.65,-0.23,0.81,-1.04,
2.498,-0.10,-2.99,-0.65,-0.19,0.75,-1.03,
2.51,-0.10,-2.99,-0.65,-0.15,0.68,-1.01,
2.51,-0.33,-2.42,-0.68,-0.15,0.68,-1.01,
2.511,-0.33,-2.42,-0.68,-0.11,0.61,-0.99,
2.511,-0.33,-2.42,-0.68,-0.08,0.54,-0.96,
2.511,-0.33,-2.42,-0.68,-0.07,0.47,-0.91,
2.512,-0.36,-1.56,-0.86,-0.07,0.47,-0.91,
2.512,-0.36,-1.56,-0.86,-0.07,0.39,-0.84,
2.513,-0.36,-1.56,-0.86,-0.08,0.32,-0.75,
2.513,-0.47,-0.46,-0.86,-0.08,0.32,-0.75,
2.515,-0.47,-0.46,-0.86,-0.10,0.26,-0.64,
2.517,-0.47,-0.46,-0.86,-0.13,0.20,-0.52,
2.517,-0.55,0.44,-0.82,-0.13,0.20,-0.52,
2.52,-0.55,0.44,-0.82,-0.17,0.15,-0.38,
2.522,-0.55,0.44,-0.82,-0.21,0.09,-0.25,
2.522,-0.42,1.01,-0.55,-0.21,0.09,-0.25,
2.525,-0.42,1.01,-0.55,-0.26,0.03,-0.14,
2.527,-0.42,1.01,-0.55,-0.31,-0.01,-0.04,
2.527,0.17,1.19,-0.55,-0.31,-0.01,-0.04,
2.529,0.17,1.19,-0.55,-0.36,-0.05,0.03,
2.532,0.65,1.12,-0.44,-0.36,-0.05,0.03,
2.532,0.65,1.12,-0.44,-0.42,-0.07,0.09,
2.535,0.65,1.12,-0.44,-0.48,-0.10,0.11,
2.537,1.16,0.98,-0.49,-0.48,-0.10,0.11,
2.537,1.16,0.98,-0.49,-0.55,-0.11,0.11,
2.539,1.16,0.98,-0.49,-0.62,-0.11,0.09,
2.542,1.16,0.98,-0.49,-0.69,-0.09,0.04,
2.542,1.26,0.95,-0.58,-0.69,-0.09,0.04,
2.545,1.26,0.95,-0.58,-0.77,-0.08,-0.03,
2.547,1.01,0.88,-0.41,-0.77,-0.08,-0.03,
2.548,1.01,0.88,-0.41,-0.84,-0.07,-0.12,
2.55,1.01,0.88,-0.41,-0.89,-0.05,-0.22,
2.553,0.81,0.87,-0.26,-0.89,-0.05,-0.22,
2.554,0.81,0.87,-0.26,-0.93,-0.02,-0.33,
2.556,0.81,0.87,-0.26,-0.95,0.01,-0.45,
2.558,0.81,0.87,-0.26,-0.96,0.04,-0.58,
2.559,0.76,0.64,-0.26,-0.96,0.04,-0.58,
2.56,0.76,0.64,-0.26,-0.97,0.05,-0.71,
2.562,0.76,0.64,-0.26,-0.96,0.02,-0.84,
2.563,0.48,0.70,0.18,-0.96,0.02,-0.84,
2.568,0.40,0.97,0.31,-0.96,0.02,-0.84,
2.569,0.40,0.97,0.31,-0.94,-0.03,-0.97,
2.569,0.40,0.97,0.31,-0.92,-0.09,-1.10,
2.569,0.40,0.97,0.31,-0.91,-0.20,-1.23,
2.573,0.40,0.97,0.31,-0.89,-0.35,-1.35,
2.573,0.49,1.16,0.67,-0.89,-0.35,-1.35,
2.575,0.49,1.16,0.67,-0.88,-0.49,-1.47,
2.596,0.49,1.16,0.67,-0.85,-0.62,-1.59,
2.596,1.30,0.30,0.68,-0.85,-0.62,-1.59,
2.597,1.30,0.30,0.68,-0.81,-0.69,-1.73,
2.597,1.30,0.30,0.68,-0.76,-0.74,-1.87,
2.598,1.49,-0.03,0.61,-0.76,-0.74,-1.87,
2.598,1.49,-0.03,0.61,-0.72,-0.77,-1.98,
2.599,1.49,-0.03,0.61,-0.70,-0.81,-2.08,
2.599,1.29,0.09,0.47,-0.70,-0.81,-2.08,
2.6,1.29,0.09,0.47,-0.70,-0.83,-2.17,
2.601,1.29,0.09,0.47,-0.70,-0.85,-2.26,
2.601,1.20,0.45,0.37,-0.70,-0.85,-2.26,
2.602,1.20,0.45,0.37,-0.72,-0.85,-2.35,
2.603,1.20,0.45,0.37,-0.74,-0.82,-2.43,
2.603,1.20,0.70,0.06,-0.74,-0.82,-2.43,
2.604,1.20,0.70,0.06,-0.75,-0.75,-2.53,
2.604,1.20,0.70,0.06,-0.78,-0.70,-2.63,
2.605,1.39,0.94,0.12,-0.78,-0.70,-2.63,
2.605,1.39,0.94,0.12,-0.79,-0.62,-2.75,
2.614,1.39,0.94,0.12,-0.80,-0.54,-2.88,
2.615,1.78,0.97,0.04,-0.80,-0.54,-2.88,
2.615,1.78,0.97,0.04,-0.78,-0.42,-3.02,
2.615,1.78,0.97,0.04,-0.76,-0.33,-3.18,
2.616,2.08,1.09,0.28,-0.76,-0.33,-3.18,
2.616,2.08,1.09,0.28,-0.73,-0.26,-3.35,
2.63,1.87,0.98,0.08,-0.73,-0.26,-3.35,
2.631,1.87,0.98,0.08,-0.70,-0.18,-3.52,
2.632,1.87,0.98,0.08,-0.66,-0.12,-3.67,
2.632,1.87,0.98,0.08,-0.61,-0.08,-3.82,
2.632,1.70,0.86,0.26,-0.61,-0.08,-3.82,
2.633,1.70,0.86,0.26,-0.56,-0.05,-3.96,
2.633,1.70,0.86,0.26,-0.53,-0.04,-4.09,
2.633,1.41,0.85,0.26,-0.53,-0.04,-4.09,
2.634,1.41,0.85,0.26,-0.49,-0.06,-4.19,
2.634,1.41,0.85,0.26,-0.49,-0.08,-4.28,
2.635,0.95,1.20,0.02,-0.49,-0.08,-4.28,
2.635,0.95,1.20,0.02,-0.49,-0.12,-4.36,
2.638,0.40,1.39,-0.31,-0.49,-0.12,-4.36,
2.638,0.40,1.39,-0.31,-0.51,-0.14,-4.42,
2.638,0.40,1.39,-0.31,-0.52,-0.17,-4.45,
2.641,0.40,1.39,-0.31,-0.55,-0.22,-4.48,
2.641,0.58,1.20,-0.44,-0.55,-0.22,-4.48,
2.643,0.58,1.20,-0.44,-0.59,-0.27,-4.53,
2.646,0.58,1.20,-0.44,-0.64,-0.29,-4.57,
2.646,0.93,1.54,-0.75,-0.64,-0.29,-4.57,
2.648,0.93,1.54,-0.75,-0.70,-0.30,-4.62,
2.653,1.00,1.95,-0.59,-0.70,-0.30,-4.62,
2.653,1.00,1.95,-0.59,-0.75,-0.31,-4.66,
2.654,1.00,1.95,-0.59,-0.80,-0.28,-4.69,
2.657,1.00,1.95,-0.59,-0.84,-0.23,-4.74,
2.657,1.06,2.41,-0.68,-0.84,-0.23,-4.74,
2.659,1.06,2.41,-0.68,-0.89,-0.16,-4.77,
2.662,1.06,2.41,-0.68,-0.90,-0.06,-4.80,
2.663,0.59,2.74,-0.54,-0.90,-0.06,-4.80,
2.663,0.59,2.74,-0.54,-0.92,0.03,-4.80,
2.666,0.59,2.74,-0.54,-0.95,0.05,-4.79,
2.666,-0.48,2.72,-0.27,-0.95,0.05,-4.79,
2.674,-0.48,2.72,-0.27,-0.96,0.09,-4.76,
2.675,-0.48,2.72,-0.27,-0.97,0.10,-4.72,
2.676,-0.98,2.50,-0.29,-0.97,0.10,-4.72,
2.676,-0.98,2.50,-0.29,-0.98,0.13,-4.66,
2.676,-0.98,2.50,-0.29,-0.96,0.17,-4.60,
2.677,-1.15,1.86,-0.37,-0.96,0.17,-4.60,
2.678,-1.15,1.86,-0.37,-0.93,0.21,-4.53,
2.682,-1.15,1.86,-0.37,-0.88,0.28,-4.45,
2.682,-1.24,1.09,-0.71,-0.88,0.28,-4.45,
2.698,-1.24,1.09,-0.71,-0.82,0.32,-4.37,
2.698,-1.24,1.09,-0.71,-0.75,0.37,-4.28,
2.699,-1.20,1.15,-0.75,-0.75,0.37,-4.28,
2.699,-1.20,1.15,-0.75,-0.65,0.47,-4.17,
2.699,-1.20,1.15,-0.75,-0.55,0.52,-4.05,
2.699,-1.77,1.41,-0.90,-0.55,0.52,-4.05,
2.7,-1.77,1.41,-0.90,-0.48,0.44,-3.91,
2.7,-1.77,1.41,-0.90,-0.43,0.32,-3.79,
2.7,-1.19,1.32,-0.49,-0.43,0.32,-3.79,
2.701,-1.19,1.32,-0.49,-0.39,0.17,-3.67,
2.701,-0.82,1.81,-0.69,-0.39,0.17,-3.67,
2.701,-0.82,1.81,-0.69,-0.37,0.04,-3.56,
2.703,-0.82,1.81,-0.69,-0.35,-0.08,-3.47,
2.706,-0.82,1.81,-0.69,-0.35,-0.21,-3.36,
2.706,-0.90,2.25,-0.55,-0.35,-0.21,-3.36,
2.708,-0.90,2.25,-0.55,-0.38,-0.36,-3.26,
2.71,-0.90,2.25,-0.55,-0.44,-0.49,-3.16,
2.711,-0.95,2.92,-0.51,-0.44,-0.49,-3.16,
2.713,-0.95,2.92,-0.51,-0.49,-0.57,-3.08,
2.716,-0.95,2.92,-0.51,-0.56,-0.59,-3.00,
2.716,-0.75,3.34,-0.71,-0.56,-0.59,-3.00,
2.718,-0.75,3.34,-0.71,-0.60,-0.55,-2.91,
2.72,-0.89,3.58,-0.62,-0.60,-0.55,-2.91,
2.721,-0.89,3.58,-0.62,-0.65,-0.48,-2.82,
2.723,-0.89,3.58,-0.62,-0.70,-0.40,-2.74,
2.726,-0.89,3.58,-0.62,-0.75,-0.31,-2.65,
2.726,-1.11,3.31,-0.46,-0.75,-0.31,-2.65,
2.728,-1.11,3.31,-0.46,-0.79,-0.23,-2.57,
2.731,-1.11,3.31,-0.46,-0.83,-0.14,-2.51,
2.731,-1.05,2.31,-0.48,-0.83,-0.14,-2.51,
2.733,-1.05,2.31,-0.48,-0.86,-0.03,-2.47,
2.736,-1.60,1.32,-0.66,-0.86,-0.03,-2.47,
2.737,-1.60,1.32,-0.66,-0.87,0.10,-2.43,
2.738,-1.60,1.32,-0.66,-0.83,0.30,-2.40,
2.741,-1.82,0.76,-1.02,-0.83,0.30,-2.40,
2.767,-1.82,0.76,-1.02,-0.75,0.53,-2.34,
2.768,-1.82,0.76,-1.02,-0.61,0.79,-2.25,
2.768,-1.84,0.32,-0.92,-0.61,0.79,-2.25,
2.768,-1.84,0.32,-0.92,-0.41,1.03,-2.10,
2.768,-1.84,0.32,-0.92,-0.21,1.11,-1.92,
2.769,-1.84,0.32,-0.92,-0.02,0.98,-1.75,
2.769,-1.04,-0.60,0.13,-0.02,0.98,-1.75,
2.769,-1.04,-0.60,0.13,0.14,0.74,-1.59,
2.769,-0.51,-1.25,-0.25,0.14,0.74,-1.59,
2.77,-0.51,-1.25,-0.25,0.28,0.44,-1.45,
2.77,-0.51,-1.25,-0.25,0.40,0.14,-1.32,
2.77,-0.67,-1.18,-0.91,0.40,0.14,-1.32,
2.77,-0.67,-1.18,-0.91,0.51,-0.12,-1.18,
2.771,-0.67,-1.18,-0.91,0.62,-0.32,-1.05,
2.771,-0.67,-1.18,-0.91,0.72,-0.44,-0.92,
2.771,-0.66,-0.92,-1.60,0.72,-0.44,-0.92,
2.771,-0.66,-0.92,-1.60,0.82,-0.48,-0.79,
2.772,-0.77,-0.63,-2.14,0.82,-0.48,-0.79,
2.772,-0.77,-0.63,-2.14,0.90,-0.47,-0.67,
2.773,-0.77,-0.63,-2.14,0.99,-0.43,-0.55,
2.777,-0.70,-0.33,-2.27,0.99,-0.43,-0.55,
2.778,-0.70,-0.33,-2.27,1.06,-0.38,-0.44,
2.778,-0.70,-0.33,-2.27,1.12,-0.33,-0.33,
2.781,-0.70,-0.33,-2.27,1.18,-0.29,-0.24,
2.782,-0.51,-0.12,-2.04,1.18,-0.29,-0.24,
2.782,-0.51,-0.12,-2.04,1.24,-0.27,-0.14,
2.786,-0.51,-0.12,-2.04,1.30,-0.26,-0.06,
2.786,-0.50,-0.05,-1.63,1.30,-0.26,-0.06,
2.789,-0.50,-0.05,-1.63,1.36,-0.28,0.03,
2.79,-0.50,-0.05,-1.63,1.41,-0.31,0.12,
2.79,-0.61,-0.07,-1.18,1.41,-0.31,0.12,
2.792,-0.61,-0.07,-1.18,1.46,-0.35,0.19,
2.795,-0.61,-0.03,-1.05,1.46,-0.35,0.19,
2.796,-0.61,-0.03,-1.05,1.50,-0.40,0.27,
2.797,-0.61,-0.03,-1.05,1.54,-0.46,0.34,
2.8,-0.61,-0.03,-1.05,1.57,-0.51,0.41,
2.8,-0.53,0.08,-0.81,1.57,-0.51,0.41,
2.806,-0.53,0.08,-0.81,1.59,-0.56,0.48,
2.809,-0.53,0.08,-0.81,1.59,-0.60,0.55,
2.809,-0.57,0.14,-1.07,1.59,-0.60,0.55,
2.809,-0.57,0.14,-1.07,1.58,-0.65,0.62,
2.812,-0.57,0.14,-1.07,1.54,-0.68,0.67,
2.813,-0.80,0.07,-1.20,1.54,-0.68,0.67,
2.813,-0.80,0.07,-1.20,1.49,-0.68,0.71,
2.815,-0.80,0.07,-1.20,1.41,-0.65,0.72,
2.816,-0.98,0.14,-1.50,1.41,-0.65,0.72,
2.822,-0.98,0.14,-1.50,1.32,-0.59,0.72,
2.822,-0.98,0.14,-1.50,1.23,-0.50,0.72,
2.823,-1.14,0.20,-1.74,1.23,-0.50,0.72,
2.823,-1.14,0.20,-1.74,1.14,-0.36,0.72,
2.825,-1.14,0.20,-1.74,1.04,-0.20,0.74,
2.825,-1.58,0.50,-1.94,1.04,-0.20,0.74,
2.827,-1.58,0.50,-1.94,0.95,-0.04,0.78,
2.829,-1.58,0.50,-1.94,0.87,0.12,0.85,
2.83,-2.16,0.47,-1.63,0.87,0.12,0.85,
2.832,-2.16,0.47,-1.63,0.79,0.24,0.92,
2.835,-2.16,0.47,-1.63,0.71,0.34,1.01,
2.835,-2.45,0.12,-1.28,0.71,0.34,1.01,
2.837,-2.45,0.12,-1.28,0.63,0.40,1.11,
2.839,-2.45,0.12,-1.28,0.55,0.43,1.22,
2.84,-2.85,-0.39,-1.12,0.55,0.43,1.22,
2.842,-2.85,-0.39,-1.12,0.47,0.41,1.34,
2.844,-2.85,-0.39,-1.12,0.40,0.37,1.48,
2.845,-3.24,-0.87,-0.73,0.40,0.37,1.48,
2.847,-3.24,-0.87,-0.73,0.33,0.29,1.63,
2.849,-3.24,-0.87,-0.73,0.25,0.20,1.78,
2.849,-3.14,-1.45,-0.58,0.25,0.20,1.78,
2.852,-3.14,-1.45,-0.58,0.18,0.08,1.93,
2.855,-2.82,-2.19,-0.28,0.18,0.08,1.93,
2.855,-2.82,-2.19,-0.28,0.11,-0.03,2.08,
2.858,-2.82,-2.19,-0.28,0.05,-0.13,2.22,
2.859,-2.82,-2.19,-0.28,0.00,-0.21,2.37,
2.86,-2.57,-2.96,0.39,0.00,-0.21,2.37,
2.863,-2.57,-2.96,0.39,-0.04,-0.30,2.52,
2.865,-2.57,-2.96,0.39,-0.06,-0.37,2.66,
2.865,-2.03,-4.02,1.40,-0.06,-0.37,2.66,
2.867,-2.03,-4.02,1.40,-0.08,-0.46,2.78,
2.877,-1.40,-4.66,2.38,-0.08,-0.46,2.78,
2.877,-1.40,-4.66,2.38,-0.08,-0.52,2.90,
2.878,-1.40,-4.66,2.38,-0.07,-0.57,3.00,
2.878,-1.06,-5.52,2.87,-0.07,-0.57,3.00,
2.878,-1.06,-5.52,2.87,-0.05,-0.59,3.10,
2.879,-1.06,-5.52,2.87,-0.02,-0.59,3.20,
2.879,-0.96,-6.26,3.49,-0.02,-0.59,3.20,
2.879,-0.96,-6.26,3.49,0.01,-0.58,3.28,
2.882,-0.96,-6.26,3.49,0.05,-0.57,3.36,
2.906,-0.25,-6.56,4.15,0.05,-0.57,3.36,
2.907,-0.25,-6.56,4.15,0.09,-0.55,3.41,
2.907,-0.25,-6.56,4.15,0.13,-0.57,3.42,
2.907,0.58,-6.46,4.73,0.13,-0.57,3.42,
2.907,0.58,-6.46,4.73,0.16,-0.61,3.41,
2.908,0.58,-6.46,4.73,0.19,-0.66,3.38,
2.908,1.19,-6.14,4.84,0.19,-0.66,3.38,
2.908,1.19,-6.14,4.84,0.23,-0.69,3.33,
2.909,1.19,-6.14,4.84,0.25,-0.70,3.26,
2.909,1.25,-5.83,4.43,0.25,-0.70,3.26,
2.909,1.25,-5.83,4.43,0.26,-0.69,3.19,
2.909,1.25,-5.83,4.43,0.26,-0.64,3.10,
2.91,1.25,-5.83,4.43,0.26,-0.57,3.01,
2.91,1.10,-5.45,4.14,0.26,-0.57,3.01,
2.931,1.10,-5.45,4.14,0.25,-0.50,2.91,
2.931,1.10,-5.45,4.14,0.23,-0.41,2.79,
2.931,0.93,-4.87,3.97,0.23,-0.41,2.79,
2.931,0.93,-4.87,3.97,0.22,-0.31,2.68,
2.932,0.93,-4.87,3.97,0.21,-0.16,2.60,
2.932,-0.03,-2.76,2.83,0.21,-0.16,2.60,
2.932,-0.03,-2.76,2.83,0.16,0.01,2.53,
2.932,0.84,-2.15,0.51,0.16,0.01,2.53,
2.933,0.84,-2.15,0.51,0.08,0.19,2.45,
2.933,0.84,-2.15,0.51,-0.02,0.33,2.32,
2.933,0.84,-2.15,0.51,-0.12,0.40,2.17,
2.933,1.56,-2.77,0.57,-0.12,0.40,2.17,
2.934,1.56,-2.77,0.57,-0.21,0.44,2.03,
2.934,1.56,-2.77,0.57,-0.28,0.42,1.89,
2.934,1.01,-2.51,1.20,-0.28,0.42,1.89,
2.935,1.20,-2.07,0.82,-0.28,0.42,1.89,
2.939,1.20,-2.07,0.82,-0.36,0.39,1.76,
2.939,1.20,-2.07,0.82,-0.42,0.36,1.61,
2.939,1.20,-2.07,0.82,-0.49,0.33,1.47,
2.94,1.20,-2.07,0.82,-0.54,0.32,1.30,
2.94,1.93,-1.65,0.38,-0.54,0.32,1.30,
2.942,1.93,-1.65,0.38,-0.59,0.30,1.14,
2.944,1.93,-1.65,0.38,-0.62,0.28,0.97,
2.944,2.29,-1.13,0.14,-0.62,0.28,0.97,
2.946,2.29,-1.13,0.14,-0.66,0.27,0.81,
2.95,2.29,-1.13,0.14,-0.68,0.26,0.65,
2.95,2.64,-0.77,-0.10,-0.68,0.26,0.65,
2.953,2.64,-0.77,-0.10,-0.70,0.26,0.50,
2.954,2.64,-0.77,-0.10,-0.71,0.25,0.35,
2.959,2.97,-0.45,-0.33,-0.71,0.25,0.35,
2.959,2.97,-0.45,-0.33,-0.71,0.24,0.22,
2.959,2.97,-0.45,-0.33,-0.71,0.22,0.10,
2.96,3.13,-0.14,-0.37,-0.71,0.22,0.10,
2.962,3.13,-0.14,-0.37,-0.70,0.20,0.01,
2.965,3.13,-0.14,-0.37,-0.69,0.18,-0.06,
2.966,3.00,-0.03,-0.50,-0.69,0.18,-0.06,
2.966,3.00,-0.03,-0.50,-0.68,0.15,-0.11,
2.976,3.07,0.03,-0.62,-0.68,0.15,-0.11,
2.977,3.07,0.03,-0.62,-0.67,0.12,-0.15,
2.977,3.07,0.03,-0.62,-0.66,0.08,-0.18,
2.979,3.18,0.14,-0.48,-0.66,0.08,-0.18,
2.979,3.18,0.14,-0.48,-0.64,0.04,-0.20,
2.98,3.18,0.14,-0.48,-0.62,-0.00,-0.22,
2.98,3.18,0.14,-0.48,-0.60,-0.04,-0.23,
2.98,2.98,0.25,-0.15,-0.60,-0.04,-0.23,
2.983,2.98,0.25,-0.15,-0.57,-0.08,-0.23,
2.986,2.98,0.25,-0.15,-0.54,-0.11,-0.23,
2.986,2.46,0.25,0.01,-0.54,-0.11,-0.23,
2.987,2.46,0.25,0.01,-0.50,-0.13,-0.22,
3.0,2.46,0.25,0.01,-0.47,-0.15,-0.20,
3.001,1.93,0.17,0.08,-0.47,-0.15,-0.20,
3.002,1.93,0.17,0.08,-0.44,-0.16,-0.19,
3.002,1.93,0.17,0.08,-0.40,-0.18,-0.17,
3.002,1.48,0.21,0.28,-0.40,-0.18,-0.17,
3.003,1.48,0.21,0.28,-0.37,-0.18,-0.15,
3.003,1.30,0.31,0.23,-0.37,-0.18,-0.15,
3.004,1.30,0.31,0.23,-0.33,-0.18,-0.14,
3.004,1.30,0.31,0.23,-0.31,-0.16,-0.13,
3.005,1.16,0.33,0.19,-0.31,-0.16,-0.13,
3.005,1.16,0.33,0.19,-0.28,-0.13,-0.12,
3.007,1.16,0.33,0.19,-0.26,-0.09,-0.11,
3.009,0.98,0.38,0.35,-0.26,-0.09,-0.11,
3.009,0.98,0.38,0.35,-0.24,-0.06,-0.10,
3.012,0.98,0.38,0.35,-0.22,-0.02,-0.09,
3.013,0.77,0.43,0.50,-0.22,-0.02,-0.09,
3.013,0.77,0.43,0.50,-0.21,0.02,-0.07,
3.016,0.77,0.43,0.50,-0.19,0.07,-0.06,
3.018,0.77,0.43,0.50,-0.17,0.11,-0.04,
3.019,0.48,0.43,0.63,-0.17,0.11,-0.04,
3.02,0.48,0.43,0.63,-0.16,0.15,-0.02,
3.023,0.48,0.43,0.63,-0.14,0.19,-0.01,
3.023,0.30,0.53,0.82,-0.14,0.19,-0.01,
3.025,0.30,0.53,0.82,-0.13,0.23,0.01,
3.028,0.30,0.53,0.82,-0.11,0.27,0.01,
3.028,0.06,0.67,0.90,-0.11,0.27,0.01,
3.03,0.06,0.67,0.90,-0.10,0.31,0.02,
3.033,0.06,0.67,0.90,-0.09,0.36,0.03,
3.033,-0.30,0.84,0.88,-0.09,0.36,0.03,
3.036,-0.30,0.84,0.88,-0.08,0.40,0.04,
3.038,-0.64,1.08,0.91,-0.08,0.40,0.04,
3.038,-0.64,1.08,0.91,-0.07,0.43,0.04,
3.04,-0.64,1.08,0.91,-0.06,0.47,0.05,
3.043,-0.64,1.08,0.91,-0.06,0.50,0.06,
3.043,-0.89,1.28,0.81,-0.06,0.50,0.06,
3.045,-0.89,1.28,0.81,-0.05,0.55,0.07,
3.048,-0.99,1.37,0.71,-0.05,0.55,0.07,
3.048,-0.99,1.37,0.71,-0.05,0.60,0.07,
3.05,-0.99,1.37,0.71,-0.06,0.63,0.07,
3.054,-1.03,1.45,0.53,-0.06,0.63,0.07,
3.056,-1.03,1.45,0.53,-0.06,0.67,0.07,
3.056,-1.03,1.45,0.53,-0.07,0.70,0.07,
3.058,-1.12,1.59,0.45,-0.07,0.70,0.07,
3.058,-1.12,1.59,0.45,-0.08,0.73,0.06,
3.06,-1.12,1.59,0.45,-0.09,0.75,0.06,
3.063,-1.12,1.59,0.45,-0.11,0.77,0.06,
3.063,-1.38,1.75,0.29,-0.11,0.77,0.06,
3.065,-1.38,1.75,0.29,-0.13,0.78,0.06,
3.073,-1.38,1.75,0.29,-0.15,0.80,0.06,
3.074,-1.36,1.87,0.14,-0.15,0.80,0.06,
3.074,-1.36,1.87,0.14,-0.17,0.81,0.05,
3.106,-1.36,1.87,0.14,-0.19,0.81,0.05,
3.106,-1.23,1.88,0.08,-0.19,0.81,0.05,
3.106,-1.23,1.88,0.08,-0.20,0.82,0.04,
3.107,-1.23,1.88,0.08,-0.22,0.83,0.03,
3.107,-0.98,1.80,0.05,-0.22,0.83,0.03,
3.107,-0.98,1.80,0.05,-0.23,0.85,0.01,
3.107,-0.98,1.80,0.05,-0.25,0.86,-0.00,
3.108,-0.64,1.73,0.11,-0.25,0.86,-0.00,
3.108,-0.23,1.63,0.25,-0.25,0.86,-0.00,
3.108,-0.23,1.63,0.25,-0.26,0.87,-0.02,
3.108,-0.23,1.63,0.25,-0.26,0.88,-0.04,
3.109,-0.23,1.63,0.25,-0.26,0.88,-0.05,
3.109,0.18,1.58,0.39,-0.26,0.88,-0.05,
3.109,0.18,1.58,0.39,-0.26,0.88,-0.07,
3.109,0.18,1.58,0.39,-0.25,0.87,-0.08,
3.11,0.18,1.58,0.39,-0.25,0.86,-0.09,
3.11,0.55,1.56,0.45,-0.25,0.86,-0.09,
3.11,0.55,1.56,0.45,-0.23,0.85,-0.10,
3.11,0.55,1.56,0.45,-0.22,0.83,-0.10,
3.111,0.85,1.52,0.41,-0.22,0.83,-0.10,
3.111,0.85,1.52,0.41,-0.22,0.82,-0.10,
3.111,0.85,1.52,0.41,-0.21,0.80,-0.10,
3.111,1.15,1.56,0.26,-0.21,0.80,-0.10,
3.111,1.15,1.56,0.26,-0.20,0.77,-0.10,
3.113,1.15,1.56,0.26,-0.19,0.75,-0.10,
3.114,1.67,1.78,0.18,-0.19,0.75,-0.10,
3.114,1.67,1.78,0.18,-0.19,0.75,-0.11,
3.118,1.67,1.78,0.18,-0.18,0.76,-0.13,
3.118,2.11,1.96,0.09,-0.18,0.76,-0.13,
3.122,2.11,1.96,0.09,-0.16,0.77,-0.13,
3.122,2.11,1.96,0.09,-0.15,0.80,-0.14,
3.123,2.13,1.90,0.07,-0.15,0.80,-0.14,
3.125,2.13,1.90,0.07,-0.14,0.81,-0.13,
3.128,2.13,1.90,0.07,-0.11,0.83,-0.12,
3.128,2.22,1.73,0.16,-0.11,0.83,-0.12,
3.13,2.22,1.73,0.16,-0.09,0.84,-0.11,
3.133,2.22,1.73,0.16,-0.06,0.84,-0.10,
3.133,2.20,1.53,0.34,-0.06,0.84,-0.10,
3.135,2.20,1.53,0.34,-0.03,0.84,-0.09,
3.137,2.20,1.53,0.34,0.01,0.83,-0.08,
3.138,2.29,1.41,0.39,0.01,0.83,-0.08,
3.139,2.29,1.41,0.39,0.04,0.81,-0.08,
3.142,2.29,1.41,0.39,0.08,0.79,-0.08,
3.142,2.27,1.30,0.43,0.08,0.79,-0.08,
3.144,2.27,1.30,0.43,0.12,0.76,-0.09,
3.147,2.19,1.24,0.32,0.12,0.76,-0.09,
3.147,2.19,1.24,0.32,0.15,0.73,-0.09,
3.149,2.19,1.24,0.32,0.18,0.70,-0.09,
3.152,2.19,1.24,0.32,0.21,0.66,-0.09,
3.154,1.94,1.14,0.18,0.21,0.66,-0.09,
3.154,1.94,1.14,0.18,0.24,0.62,-0.08,
3.157,1.94,1.14,0.18,0.26,0.59,-0.07,
3.157,1.83,0.97,-0.01,0.26,0.59,-0.07,
3.159,1.83,0.97,-0.01,0.28,0.56,-0.07,
3.162,1.83,0.97,-0.01,0.30,0.53,-0.07,
3.162,1.75,0.86,-0.17,0.30,0.53,-0.07,
3.164,1.75,0.86,-0.17,0.31,0.51,-0.07,
3.171,1.64,0.78,-0.44,0.31,0.51,-0.07,
3.172,1.64,0.78,-0.44,0.32,0.49,-0.07,
3.172,1.64,0.78,-0.44,0.33,0.47,-0.07,
3.173,1.61,0.71,-0.68,0.33,0.47,-0.07,
3.174,1.61,0.71,-0.68,0.33,0.46,-0.07,
3.177,1.61,0.71,-0.68,0.33,0.45,-0.07,
3.2,1.49,0.58,-0.81,0.33,0.45,-0.07,
3.201,1.38,0.51,-1.01,0.33,0.45,-0.07,
3.201,1.38,0.51,-1.01,0.33,0.43,-0.07,
3.202,1.38,0.51,-1.01,0.32,0.42,-0.07,
3.202,1.38,0.51,-1.01,0.31,0.40,-0.08,
3.202,1.38,0.51,-1.01,0.30,0.39,-0.08,
3.203,1.28,0.46,-1.14,0.30,0.39,-0.08,
3.203,1.28,0.46,-1.14,0.29,0.38,-0.08,
3.203,1.28,0.46,-1.14,0.27,0.37,-0.08,
3.204,1.28,0.46,-1.14,0.26,0.36,-0.08,
3.204,1.22,0.44,-1.14,0.26,0.36,-0.08,
3.204,1.22,0.44,-1.14,0.25,0.36,-0.08,
3.205,1.14,0.49,-1.07,0.25,0.36,-0.08,
3.205,1.14,0.49,-1.07,0.24,0.36,-0.08,
3.205,1.14,0.49,-1.07,0.23,0.35,-0.08,
3.206,1.09,0.52,-1.00,0.23,0.35,-0.08,
3.206,1.09,0.52,-1.00,0.22,0.34,-0.07,
3.208,1.11,0.56,-0.95,0.22,0.34,-0.07,
3.208,1.11,0.56,-0.95,0.21,0.33,-0.07,
3.209,1.11,0.56,-0.95,0.20,0.33,-0.06,
3.209,1.11,0.56,-0.95,0.19,0.32,-0.06,
3.211,1.11,0.56,-0.95,0.19,0.32,-0.05,
3.211,1.05,0.62,-1.01,0.19,0.32,-0.05,
3.214,1.05,0.62,-1.01,0.18,0.33,-0.04,
3.216,1.05,0.62,-1.01,0.18,0.33,-0.03,
3.216,0.96,0.70,-1.04,0.18,0.33,-0.03,
3.219,0.96,0.70,-1.04,0.17,0.33,-0.02,
3.223,0.94,0.76,-1.08,0.17,0.33,-0.02,
3.224,0.94,0.76,-1.08,0.17,0.33,-0.01,
3.225,0.94,0.76,-1.08,0.16,0.34,0.00,
3.226,0.94,0.76,-1.08,0.16,0.34,0.01,
3.227,0.93,0.83,-1.09,0.16,0.34,0.01,
3.229,0.93,0.83,-1.09,0.16,0.34,0.02,
3.231,0.93,0.83,-1.09,0.16,0.35,0.03,
3.232,0.91,0.82,-1.17,0.16,0.35,0.03,
3.235,0.91,0.82,-1.17,0.16,0.35,0.05,
3.237,0.91,0.82,-1.17,0.16,0.36,0.06,
3.267,0.87,0.82,-1.21,0.16,0.36,0.06,
3.267,0.87,0.82,-1.21,0.16,0.36,0.07,
3.267,0.80,0.81,-1.32,0.16,0.36,0.07,
3.267,0.80,0.81,-1.32,0.16,0.37,0.08,
3.267,0.80,0.81,-1.32,0.17,0.37,0.09,
3.268,0.80,0.81,-1.32,0.17,0.38,0.10,
3.268,0.64,0.79,-1.44,0.17,0.38,0.10,
3.268,0.64,0.79,-1.44,0.17,0.38,0.11,
3.268,0.52,0.75,-1.57,0.17,0.38,0.11,
3.268,0.52,0.75,-1.57,0.17,0.39,0.12,
3.268,0.52,0.75,-1.57,0.17,0.39,0.13,
3.269,0.52,0.75,-1.57,0.17,0.40,0.14,
3.269,0.37,0.75,-1.75,0.17,0.40,0.14,
3.269,0.37,0.75,-1.75,0.17,0.41,0.15,
3.269,0.37,0.75,-1.75,0.17,0.42,0.16,
3.269,0.19,0.73,-1.89,0.17,0.42,0.16,
3.269,0.19,0.73,-1.89,0.16,0.43,0.16,
3.27,0.19,0.73,-1.89,0.16,0.44,0.17,
3.27,-0.01,0.70,-2.01,0.16,0.44,0.17,
3.27,-0.01,0.70,-2.01,0.15,0.45,0.18,
3.272,-0.01,0.70,-2.01,0.15,0.46,0.19,
3.272,-0.16,0.64,-2.02,0.15,0.46,0.19,
3.277,-0.16,0.64,-2.02,0.14,0.46,0.20,
3.277,-0.16,0.64,-2.02,0.13,0.46,0.21,
3.277,-0.25,0.58,-1.87,0.13,0.46,0.21,
3.28,-0.25,0.58,-1.87,0.13,0.45,0.22,
3.281,-0.30,0.48,-1.60,0.13,0.45,0.22,
3.282,-0.30,0.48,-1.60,0.13,0.44,0.23,
3.284,-0.30,0.48,-1.60,0.13,0.42,0.23,
3.287,-0.30,0.48,-1.60,0.13,0.41,0.24,
3.288,-0.28,0.32,-1.30,0.13,0.41,0.24,
3.289,-0.28,0.32,-1.30,0.14,0.39,0.24,
3.291,-0.28,0.32,-1.30,0.15,0.36,0.24,
3.291,-0.26,0.19,-1.07,0.15,0.36,0.24,
3.293,-0.26,0.19,-1.07,0.16,0.34,0.25,
3.297,-0.26,0.19,-1.07,0.17,0.31,0.25,
3.297,-0.28,0.09,-0.91,0.17,0.31,0.25,
3.3,-0.28,0.09,-0.91,0.18,0.28,0.26,
3.301,-0.28,0.09,-0.91,0.19,0.25,0.26,
3.302,-0.29,0.02,-0.98,0.19,0.25,0.26,
3.31,-0.29,0.02,-0.98,0.20,0.23,0.26,
3.311,-0.28,-0.18,-0.94,0.20,0.23,0.26,
3.311,-0.28,-0.18,-0.94,0.21,0.20,0.26,
3.312,-0.28,-0.18,-0.94,0.21,0.16,0.26,
3.318,-0.28,-0.18,-0.94,0.22,0.12,0.25,
3.319,-0.20,-0.63,-0.72,0.22,0.12,0.25,
3.319,0.08,-1.11,-0.41,0.22,0.12,0.25,
3.32,0.08,-1.11,-0.41,0.23,0.07,0.25,
3.32,0.08,-1.11,-0.41,0.24,0.01,0.24,
3.324,0.08,-1.11,-0.41,0.26,-0.04,0.23,
3.324,0.43,-1.37,-0.24,0.26,-0.04,0.23,
3.325,0.43,-1.37,-0.24,0.27,-0.08,0.22,
3.325,0.43,-1.37,-0.24,0.28,-0.11,0.21,
3.325,0.66,-1.45,-0.37,0.28,-0.11,0.21,
3.326,0.66,-1.45,-0.37,0.29,-0.14,0.20,
3.327,0.66,-1.45,-0.37,0.30,-0.16,0.19,
3.33,0.66,-1.45,-0.37,0.30,-0.17,0.18,
3.33,0.87,-1.56,-0.72,0.30,-0.17,0.18,
3.333,0.87,-1.56,-0.72,0.30,-0.18,0.17,
3.337,1.11,-1.75,-1.25,0.30,-0.18,0.17,
3.337,1.11,-1.75,-1.25,0.30,-0.18,0.16,
3.338,1.11,-1.75,-1.25,0.29,-0.18,0.14,
3.341,1.11,-1.75,-1.25,0.28,-0.19,0.13,
3.342,1.39,-2.02,-1.85,0.28,-0.19,0.13,
3.342,1.39,-2.02,-1.85,0.26,-0.18,0.11,
3.345,1.39,-2.02,-1.85,0.24,-0.18,0.09,
3.345,1.68,-2.32,-2.49,0.24,-0.18,0.09,
3.347,1.68,-2.32,-2.49,0.22,-0.17,0.06,
3.35,1.68,-2.32,-2.49,0.21,-0.16,0.03,
3.35,1.91,-2.61,-3.08,0.21,-0.16,0.03,
3.354,1.91,-2.61,-3.08,0.18,-0.15,0.00,
3.355,1.99,-2.89,-3.76,0.18,-0.15,0.00,
3.355,1.99,-2.89,-3.76,0.17,-0.12,-0.03,
3.358,1.99,-2.89,-3.76,0.14,-0.10,-0.06,
3.361,1.99,-2.89,-3.76,0.12,-0.08,-0.08,
3.361,2.00,-3.05,-4.36,0.12,-0.08,-0.08,
3.363,2.00,-3.05,-4.36,0.10,-0.06,-0.11,
3.366,2.00,-3.05,-4.36,0.07,-0.03,-0.15,
3.367,2.14,-3.22,-4.81,0.07,-0.03,-0.15,
3.367,2.14,-3.22,-4.81,0.05,-0.01,-0.19,
3.374,2.14,-3.22,-4.81,0.03,0.01,-0.23,
3.375,2.02,-3.38,-4.78,0.03,0.01,-0.23,
3.375,2.02,-3.38,-4.78,0.02,0.01,-0.26,
3.376,2.02,-3.38,-4.78,0.01,0.01,-0.30,
3.377,1.74,-3.48,-4.46,0.01,0.01,-0.30,
3.377,1.74,-3.48,-4.46,0.01,0.01,-0.33,
3.38,1.74,-3.48,-4.46,0.02,-0.01,-0.35,
3.382,1.74,-3.48,-4.46,0.04,-0.05,-0.37,
3.386,1.34,-3.60,-3.75,0.04,-0.05,-0.37,
3.386,1.00,-3.74,-2.85,0.04,-0.05,-0.37,
3.387,1.00,-3.74,-2.85,0.06,-0.09,-0.39,
3.402,1.00,-3.74,-2.85,0.09,-0.13,-0.40,
3.403,1.00,-3.74,-2.85,0.13,-0.20,-0.41,
3.404,0.61,-3.91,-1.93,0.13,-0.20,-0.41,
3.404,0.61,-3.91,-1.93,0.17,-0.26,-0.41,
3.404,0.61,-3.91,-1.93,0.21,-0.32,-0.41,
3.405,0.36,-4.11,-1.15,0.21,-0.32,-0.41,
3.405,0.36,-4.11,-1.15,0.24,-0.38,-0.41,
3.406,0.07,-4.35,-0.46,0.24,-0.38,-0.41,
3.406,0.07,-4.35,-0.46,0.28,-0.43,-0.40,
3.426,0.07,-4.35,-0.46,0.32,-0.47,-0.40,
3.427,-0.19,-4.58,0.11,0.32,-0.47,-0.40,
3.427,-0.19,-4.58,0.11,0.35,-0.52,-0.39,
3.427,-0.19,-4.58,0.11,0.39,-0.56,-0.38,
3.427,-0.36,-4.90,0.63,0.39,-0.56,-0.38,
3.427,-0.36,-4.90,0.63,0.42,-0.61,-0.37,
3.427,-0.36,-4.90,0.63,0.45,-0.64,-0.36,
3.428,-0.36,-4.90,0.63,0.47,-0.68,-0.35,
3.428,-0.47,-5.20,1.11,0.47,-0.68,-0.35,
3.428,-0.47,-5.20,1.11,0.50,-0.72,-0.34,
3.428,-0.47,-5.20,1.11,0.52,-0.77,-0.33,
3.428,-0.47,-5.46,1.63,0.52,-0.77,-0.33,
3.428,-0.47,-5.46,1.63,0.54,-0.81,-0.33,
3.429,-0.42,-5.56,2.02,0.54,-0.81,-0.33,
3.429,-0.42,-5.56,2.02,0.55,-0.86,-0.32,
3.429,-0.42,-5.56,2.02,0.56,-0.89,-0.32,
3.43,-0.14,-5.68,2.19,0.56,-0.89,-0.32,
3.43,-0.14,-5.68,2.19,0.57,-0.92,-0.31,
3.436,-0.14,-5.68,2.19,0.56,-0.93,-0.32,
3.437,-0.14,-5.68,2.19,0.55,-0.93,-0.32,
3.437,-0.12,-5.56,2.24,0.55,-0.93,-0.32,
3.437,-0.12,-5.56,2.24,0.55,-0.92,-0.31,
3.439,-0.12,-5.56,2.24,0.53,-0.90,-0.31,
3.44,0.01,-5.10,2.21,0.53,-0.90,-0.31,
3.442,0.01,-5.10,2.21,0.51,-0.87,-0.30,
3.445,0.18,-4.36,2.04,0.51,-0.87,-0.30,
3.445,0.18,-4.36,2.04,0.48,-0.83,-0.30,
3.447,0.18,-4.36,2.04,0.45,-0.78,-0.29,
3.45,0.18,-4.36,2.04,0.41,-0.73,-0.29,
3.451,0.33,-3.29,1.88,0.41,-0.73,-0.29,
3.454,0.33,-3.29,1.88,0.37,-0.68,-0.28,
3.455,0.55,-2.04,1.76,0.37,-0.68,-0.28,
3.455,0.55,-2.04,1.76,0.33,-0.63,-0.27,
3.457,0.55,-2.04,1.76,0.29,-0.57,-0.27,
3.46,0.69,-0.81,1.63,0.29,-0.57,-0.27,
3.461,0.69,-0.81,1.63,0.25,-0.51,-0.25,
3.463,0.69,-0.81,1.63,0.21,-0.45,-0.24,
3.465,0.69,-0.81,1.63,0.17,-0.40,-0.22,
3.465,0.83,0.45,1.56,0.17,-0.40,-0.22,
3.466,0.83,0.45,1.56,0.14,-0.35,-0.21,
3.469,0.98,1.47,1.62,0.14,-0.35,-0.21,
3.469,0.98,1.47,1.62,0.11,-0.30,-0.20,
3.472,0.98,1.47,1.62,0.08,-0.26,-0.18,
3.474,0.98,1.47,1.62,0.07,-0.23,-0.16,
3.474,0.97,2.37,1.88,0.07,-0.23,-0.16,
3.476,0.97,2.37,1.88,0.06,-0.20,-0.13,
3.479,0.97,2.37,1.88,0.06,-0.20,-0.10,
3.479,0.89,2.95,2.28,0.06,-0.20,-0.10,
3.481,0.89,2.95,2.28,0.06,-0.21,-0.07,
3.485,0.89,2.95,2.28,0.07,-0.22,-0.03,
3.488,0.78,3.49,2.37,0.07,-0.22,-0.03,
3.489,0.78,3.49,2.37,0.09,-0.22,0.00,
3.49,0.59,4.08,2.56,0.09,-0.22,0.00,
3.492,0.59,4.08,2.56,0.11,-0.22,0.04,
3.493,0.59,4.08,2.56,0.14,-0.22,0.08,
3.494,0.59,4.08,2.56,0.17,-0.22,0.12,
3.494,0.43,4.49,2.69,0.17,-0.22,0.12,
3.496,0.43,4.49,2.69,0.20,-0.21,0.16,
3.499,0.43,4.49,2.69,0.24,-0.20,0.20,
3.499,0.35,4.71,2.79,0.24,-0.20,0.20,
3.502,0.35,4.71,2.79,0.28,-0.18,0.24,
3.53,0.25,4.92,2.86,0.28,-0.18,0.24,
3.53,0.25,4.92,2.86,0.32,-0.17,0.28,
3.531,0.25,4.92,2.86,0.36,-0.15,0.32,
3.531,0.25,4.92,2.86,0.40,-0.12,0.36,
3.532,0.11,5.07,2.67,0.40,-0.12,0.36,
3.532,0.11,5.07,2.67,0.43,-0.09,0.41,
3.532,0.11,5.07,2.67,0.46,-0.05,0.45,
3.533,-0.05,5.15,2.45,0.46,-0.05,0.45,
3.533,-0.05,5.15,2.45,0.48,0.00,0.50,
3.533,-0.19,5.08,2.35,0.48,0.00,0.50,
3.534,-0.19,5.08,2.35,0.50,0.04,0.56,
3.534,-0.19,5.08,2.35,0.51,0.08,0.61,
3.534,-0.17,4.79,2.47,0.51,0.08,0.61,
3.535,-0.17,4.79,2.47,0.53,0.11,0.65,
3.535,-0.17,4.79,2.47,0.54,0.12,0.69,
3.535,-0.17,4.79,2.47,0.55,0.11,0.73,
3.536,-0.09,4.22,2.94,0.55,0.11,0.73,
3.54,-0.03,3.52,3.29,0.55,0.11,0.73,
3.541,-0.03,3.52,3.29,0.57,0.09,0.75,
3.541,-0.03,3.52,3.29,0.58,0.05,0.77,
3.542,-0.03,3.52,3.29,0.60,0.00,0.78,
3.542,-0.03,3.52,3.29,0.61,-0.05,0.79,
3.542,-0.12,2.77,3.44,0.61,-0.05,0.79,
3.543,-0.12,2.77,3.44,0.61,-0.09,0.79,
3.543,-0.12,2.77,3.44,0.60,-0.13,0.78,
3.544,0.07,2.03,3.06,0.60,-0.13,0.78,
3.55,0.07,2.03,3.06,0.58,-0.15,0.75,
3.551,0.07,2.03,3.06,0.55,-0.17,0.71,
3.551,0.41,1.32,2.60,0.55,-0.17,0.71,
3.551,0.41,1.32,2.60,0.51,-0.17,0.66,
3.554,0.41,1.32,2.60,0.46,-0.18,0.60,
3.555,0.46,0.58,2.05,0.46,-0.18,0.60,
3.557,0.46,0.58,2.05,0.40,-0.18,0.54,
3.56,0.46,0.58,2.05,0.34,-0.16,0.48,
3.56,0.50,-0.15,1.63,0.34,-0.16,0.48,
3.561,0.50,-0.15,1.63,0.28,-0.13,0.40,
3.563,0.50,-0.15,1.63,0.22,-0.09,0.33,
3.563,0.60,-0.81,0.98,0.22,-0.09,0.33,
3.567,0.60,-0.81,0.98,0.17,-0.03,0.25,
3.583,0.76,-1.14,0.47,0.17,-0.03,0.25,
3.584,0.76,-1.14,0.47,0.12,0.03,0.17,
3.584,0.76,-1.14,0.47,0.08,0.09,0.09,
3.584,0.84,-1.23,0.15,0.08,0.09,0.09,
3.585,0.84,-1.23,0.15,0.04,0.13,0.01,
3.585,0.84,-1.23,0.15,0.00,0.14,-0.06,
3.585,0.84,-1.23,0.15,-0.02,0.14,-0.11,
3.585,0.85,-1.23,-0.10,-0.02,0.14,-0.11,
3.586,0.85,-1.23,-0.10,-0.05,0.12,-0.16,
3.586,0.85,-1.16,-0.36,-0.05,0.12,-0.16,
3.586,0.85,-1.16,-0.36,-0.06,0.10,-0.20,
3.586,0.85,-1.16,-0.36,-0.08,0.07,-0.23,
3.595,0.72,-0.97,-0.43,-0.08,0.07,-0.23,
3.596,0.72,-0.97,-0.43,-0.09,0.03,-0.24,
3.596,0.72,-0.97,-0.43,-0.10,-0.02,-0.24,
3.596,0.72,-0.97,-0.43,-0.11,-0.08,-0.24,
3.596,0.59,-0.85,-0.31,-0.11,-0.08,-0.24,
3.597,0.59,-0.85,-0.31,-0.12,-0.15,-0.23,
3.599,0.50,-0.80,-0.10,-0.12,-0.15,-0.23,
3.6,0.50,-0.80,-0.10,-0.13,-0.21,-0.21,
3.601,0.50,-0.80,-0.10,-0.13,-0.26,-0.19,
3.625,0.50,-0.80,-0.10,-0.14,-0.30,-0.18,
3.627,0.72,-0.72,0.05,-0.14,-0.30,-0.18,
3.628,0.72,-0.72,0.05,-0.14,-0.34,-0.17,
3.628,0.89,-0.62,0.16,-0.14,-0.34,-0.17,
3.629,0.89,-0.62,0.16,-0.14,-0.36,-0.16,
3.629,0.89,-0.62,0.16,-0.14,-0.38,-0.14,
3.63,0.90,-0.54,0.19,-0.14,-0.38,-0.14,
3.63,0.90,-0.54,0.19,-0.13,-0.39,-0.12,
3.63,0.90,-0.54,0.19,-0.13,-0.40,-0.10,
3.63,0.87,-0.47,0.06,-0.13,-0.40,-0.10,
3.63,0.87,-0.47,0.06,-0.14,-0.41,-0.08,
3.631,0.87,-0.47,0.06,-0.14,-0.42,-0.06,
3.631,0.87,-0.47,0.06,-0.15,-0.42,-0.03,
3.631,0.83,-0.32,-0.18,-0.15,-0.42,-0.03,
3.631,0.83,-0.32,-0.18,-0.16,-0.42,-0.00,
3.632,0.68,-0.09,-0.47,-0.16,-0.42,-0.00,
3.632,0.68,-0.09,-0.47,-0.17,-0.41,0.03,
3.632,0.68,-0.09,-0.47,-0.18,-0.41,0.07,
3.632,0.68,-0.09,-0.47,-0.19,-0.39,0.11,
3.633,0.48,0.19,-0.78,-0.19,-0.39,0.11,
3.636,0.48,0.19,-0.78,-0.20,-0.38,0.15,
3.639,0.48,0.19,-0.78,-0.21,-0.36,0.20,
3.639,0.33,0.43,-0.93,-0.21,-0.36,0.20,
3.64,0.33,0.43,-0.93,-0.22,-0.34,0.24,
3.643,0.33,0.43,-0.93,-0.23,-0.32,0.29,
3.643,0.07,0.73,-0.93,-0.23,-0.32,0.29,
3.645,0.07,0.73,-0.93,-0.24,-0.31,0.34,
3.648,0.07,0.73,-0.93,-0.24,-0.30,0.39,
3.648,-0.10,1.04,-0.82,-0.24,-0.30,0.39,
3.65,-0.10,1.04,-0.82,-0.24,-0.29,0.43,
3.653,-0.10,1.04,-0.82,-0.24,-0.29,0.47,
3.653,-0.28,1.37,-0.67,-0.24,-0.29,0.47,
3.655,-0.28,1.37,-0.67,-0.24,-0.30,0.50,
3.658,-0.28,1.37,-0.67,-0.23,-0.31,0.53,
3.658,-0.66,1.56,-0.53,-0.23,-0.31,0.53,
3.66,-0.66,1.56,-0.53,-0.22,-0.32,0.55,
3.663,-0.66,1.56,-0.53,-0.21,-0.33,0.57,
3.663,-0.95,1.54,-0.44,-0.21,-0.33,0.57,
3.666,-0.95,1.54,-0.44,-0.20,-0.33,0.58,
3.667,-0.95,1.54,-0.44,-0.19,-0.32,0.58,
3.668,-1.20,1.53,-0.35,-0.19,-0.32,0.58,
3.671,-1.20,1.53,-0.35,-0.17,-0.31,0.58,
3.68,-1.29,1.61,-0.37,-0.17,-0.31,0.58,
3.681,-1.29,1.61,-0.37,-0.15,-0.30,0.58,
3.681,-1.29,1.61,-0.37,-0.14,-0.29,0.57,
3.681,-1.28,1.64,-0.55,-0.14,-0.29,0.57,
3.681,-1.28,1.64,-0.55,-0.13,-0.28,0.56,
3.681,-1.28,1.64,-0.55,-0.13,-0.27,0.54,
3.683,-1.30,1.65,-0.58,-0.13,-0.27,0.54,
3.683,-1.30,1.65,-0.58,-0.12,-0.27,0.52,
3.685,-1.30,1.65,-0.58,-0.12,-0.27,0.50,
3.691,-1.30,1.65,-0.58,-0.11,-0.26,0.47,
3.691,-1.28,1.58,-0.47,-0.11,-0.26,0.47,
3.691,-1.28,1.58,-0.47,-0.11,-0.26,0.44,
3.692,-1.26,1.63,-0.31,-0.11,-0.26,0.44,
3.692,-1.26,1.63,-0.31,-0.10,-0.27,0.41,
3.695,-1.26,1.63,-0.31,-0.09,-0.27,0.38,
3.697,-1.26,1.63,-0.31,-0.07,-0.27,0.36,
3.697,-1.34,1.69,-0.21,-0.07,-0.27,0.36,
3.7,-1.34,1.69,-0.21,-0.06,-0.28,0.33,
3.703,-1.29,1.70,-0.11,-0.06,-0.28,0.33,
3.703,-1.29,1.70,-0.11,-0.04,-0.28,0.31,
3.705,-1.29,1.70,-0.11,-0.02,-0.28,0.28,
3.707,-1.23,1.74,-0.14,-0.02,-0.28,0.28,
3.707,-1.23,1.74,-0.14,-0.00,-0.28,0.26,
3.709,-1.23,1.74,-0.14,0.01,-0.27,0.24,
3.712,-1.23,1.74,-0.14,0.03,-0.26,0.21,
3.712,-1.05,1.73,-0.13,0.03,-0.26,0.21,
3.715,-1.05,1.73,-0.13,0.05,-0.25,0.18,
3.717,-1.05,1.73,-0.13,0.07,-0.25,0.16,
3.717,-0.94,1.65,-0.08,0.07,-0.25,0.16,
3.719,-0.94,1.65,-0.08,0.09,-0.24,0.13,
3.722,-0.76,1.64,-0.06,0.09,-0.24,0.13,
3.722,-0.76,1.64,-0.06,0.11,-0.23,0.10,
3.724,-0.76,1.64,-0.06,0.13,-0.22,0.07,
3.727,-0.76,1.64,-0.06,0.15,-0.20,0.04,
3.727,-0.56,1.62,-0.11,0.15,-0.20,0.04,
3.729,-0.56,1.62,-0.11,0.16,-0.20,0.02,
3.732,-0.56,1.62,-0.11,0.18,-0.19,-0.01,
3.749,-0.46,1.50,-0.18,0.18,-0.19,-0.01,
3.749,-0.46,1.50,-0.18,0.19,-0.19,-0.03,
3.749,-0.46,1.50,-0.18,0.20,-0.19,-0.05,
3.75,-0.33,1.30,-0.16,0.20,-0.19,-0.05,
3.75,-0.33,1.30,-0.16,0.21,-0.19,-0.06,
3.75,-0.33,1.30,-0.16,0.22,-0.20,-0.08,
3.751,-0.11,1.11,-0.16,0.22,-0.20,-0.08,
3.751,-0.11,1.11,-0.16,0.23,-0.20,-0.10,
3.751,-0.11,1.11,-0.16,0.24,-0.20,-0.11,
3.752,0.02,1.04,-0.30,0.24,-0.20,-0.11,
3.752,0.02,1.04,-0.30,0.24,-0.20,-0.12,
3.755,0.02,1.04,-0.30,0.24,-0.19,-0.13,
3.756,0.06,1.06,-0.48,0.24,-0.19,-0.13,
3.756,0.06,1.06,-0.48,0.23,-0.18,-0.13,
3.758,0.11,1.05,-0.67,0.23,-0.18,-0.13,
3.759,0.11,1.05,-0.67,0.22,-0.17,-0.14,
3.76,0.11,1.05,-0.67,0.21,-0.16,-0.14,
3.763,0.17,1.00,-0.78,0.21,-0.16,-0.14,
3.763,0.17,1.00,-0.78,0.20,-0.14,-0.14,
3.764,0.17,1.00,-0.78,0.18,-0.13,-0.15,
3.767,0.17,1.00,-0.78,0.16,-0.12,-0.15,
3.767,0.18,0.95,-0.87,0.16,-0.12,-0.15,
3.777,0.18,0.95,-0.87,0.14,-0.11,-0.15,
3.778,0.18,0.95,-0.87,0.12,-0.10,-0.15,
3.779,0.10,0.94,-0.90,0.12,-0.10,-0.15,
3.779,0.10,0.94,-0.90,0.09,-0.10,-0.15,
3.779,0.01,0.94,-0.95,0.09,-0.10,-0.15,
3.78,0.01,0.94,-0.95,0.07,-0.09,-0.15,
3.78,0.01,0.94,-0.95,0.05,-0.09,-0.14,
3.782,0.01,0.94,-0.95,0.02,-0.09,-0.13,
3.782,-0.09,0.98,-1.02,0.02,-0.09,-0.13,
3.784,-0.09,0.98,-1.02,-0.01,-0.08,-0.13,
3.801,-0.09,0.98,-1.02,-0.03,-0.07,-0.12,
3.804,-0.18,0.99,-1.11,-0.03,-0.07,-0.12,
3.805,-0.18,0.99,-1.11,-0.06,-0.07,-0.11,
3.805,-0.25,0.99,-1.14,-0.06,-0.07,-0.11,
3.805,-0.25,0.99,-1.14,-0.08,-0.06,-0.10,
3.806,-0.25,0.99,-1.14,-0.10,-0.04,-0.09,
3.806,-0.25,0.99,-1.14,-0.11,-0.02,-0.08,
3.807,-0.42,0.99,-1.19,-0.11,-0.02,-0.08,
3.807,-0.42,0.99,-1.19,-0.13,0.00,-0.07,
3.807,-0.52,1.04,-1.22,-0.13,0.00,-0.07,
3.807,-0.52,1.04,-1.22,-0.14,0.02,-0.06,
3.808,-0.52,1.04,-1.22,-0.15,0.03,-0.06,
3.808,-0.52,1.04,-1.22,-0.16,0.04,-0.05,
3.808,-0.68,1.01,-1.16,-0.16,0.04,-0.05,
3.809,-0.68,1.01,-1.16,-0.16,0.06,-0.05,
3.811,-0.68,1.01,-1.16,-0.16,0.07,-0.04,
3.812,-0.86,0.97,-1.15,-0.16,0.07,-0.04,
3.813,-0.86,0.97,-1.15,-0.16,0.07,-0.03,
3.816,-0.86,0.97,-1.15,-0.15,0.08,-0.02,
3.816,-1.06,0.90,-1.12,-0.15,0.08,-0.02,
3.818,-1.06,0.90,-1.12,-0.14,0.07,-0.02,
3.821,-1.13,0.95,-0.99,-0.14,0.07,-0.02,
3.822,-1.13,0.95,-0.99,-0.13,0.06,-0.01,
3.823,-1.13,0.95,-0.99,-0.12,0.03,-0.00,
3.826,-1.13,0.95,-0.99,-0.10,0.01,0.01,
3.826,-1.22,0.91,-1.07,-0.10,0.01,0.01,
3.828,-1.22,0.91,-1.07,-0.09,0.01,0.01,
3.832,-1.22,0.91,-1.07,-0.07,0.00,0.02,
3.832,-1.40,0.83,-1.11,-0.07,0.00,0.02,
3.834,-1.40,0.83,-1.11,-0.05,-0.01,0.02,
3.837,-1.44,0.75,-1.12,-0.05,-0.01,0.02,
3.837,-1.44,0.75,-1.12,-0.03,-0.01,0.02,
3.841,-1.44,0.75,-1.12,-0.01,-0.01,0.02,
3.842,-1.44,0.75,-1.12,0.01,-0.02,0.02,
3.842,-1.63,0.66,-1.09,0.01,-0.02,0.02,
3.843,-1.63,0.66,-1.09,0.02,-0.03,0.02,
3.846,-1.63,0.66,-1.09,0.05,-0.05,0.01,
3.846,-1.77,0.55,-1.01,0.05,-0.05,0.01,
3.848,-1.77,0.55,-1.01,0.07,-0.06,0.01,
3.851,-1.77,0.55,-1.01,0.09,-0.06,-0.00,
3.851,-1.93,0.41,-0.99,0.09,-0.06,-0.00,
3.854,-1.93,0.41,-0.99,0.11,-0.07,-0.02,
3.856,-1.93,0.41,-0.99,0.13,-0.09,-0.04,
3.856,-2.03,0.22,-0.83,0.13,-0.09,-0.04,
3.858,-2.03,0.22,-0.83,0.14,-0.10,-0.05,
3.861,-2.03,0.22,-0.83,0.16,-0.10,-0.07,
3.861,-2.17,0.00,-0.66,0.16,-0.10,-0.07,
3.863,-2.17,0.00,-0.66,0.18,-0.11,-0.09,
3.868,-2.17,0.00,-0.66,0.21,-0.11,-0.11,
3.869,-2.15,-0.20,-0.34,0.21,-0.11,-0.11,
3.875,-2.15,-0.20,-0.34,0.23,-0.12,-0.12,
3.88,-2.00,-0.42,0.07,0.23,-0.12,-0.12,
3.88,-2.00,-0.42,0.07,0.25,-0.13,-0.13,
3.88,-2.00,-0.42,0.07,0.28,-0.13,-0.14,
3.881,-1.77,-0.60,0.28,0.28,-0.13,-0.14,
3.881,-1.77,-0.60,0.28,0.30,-0.14,-0.13,
3.881,-1.77,-0.60,0.28,0.33,-0.14,-0.13,
3.882,-1.77,-0.60,0.28,0.35,-0.14,-0.12,
3.882,-1.45,-0.76,0.28,0.35,-0.14,-0.12,
3.883,-1.45,-0.76,0.28,0.36,-0.13,-0.12,
3.926,-1.45,-0.76,0.28,0.36,-0.12,-0.12,
3.927,-1.23,-0.92,-0.01,0.36,-0.12,-0.12,
3.927,-1.23,-0.92,-0.01,0.35,-0.11,-0.12,
3.927,-1.23,-0.92,-0.01,0.34,-0.08,-0.11,
3.928,-1.18,-0.94,-0.57,0.34,-0.08,-0.11,
3.928,-1.18,-0.94,-0.57,0.31,-0.04,-0.11,
3.928,-1.18,-0.94,-0.57,0.27,-0.01,-0.10,
3.929,-1.24,-0.86,-1.27,0.27,-0.01,-0.10,
3.951,-1.24,-0.86,-1.27,0.23,0.03,-0.10,
3.951,-1.24,-0.86,-1.27,0.17,0.07,-0.10,
3.952,-1.49,-0.76,-1.95,0.17,0.07,-0.10,
3.952,-1.49,-0.76,-1.95,0.12,0.11,-0.09,
3.952,-1.49,-0.76,-1.95,0.06,0.14,-0.08,
3.952,-1.83,-0.71,-2.48,0.06,0.14,-0.08,
3.953,-1.83,-0.71,-2.48,0.01,0.18,-0.06,
3.953,-2.19,-0.73,-2.84,0.01,0.18,-0.06,
3.953,-2.19,-0.73,-2.84,-0.04,0.21,-0.05,
3.953,-2.19,-0.73,-2.84,-0.09,0.23,-0.03,
3.954,-2.19,-0.73,-2.84,-0.12,0.25,-0.01,
3.954,-2.56,-0.86,-2.96,-0.12,0.25,-0.01,
3.954,-2.56,-0.86,-2.96,-0.15,0.25,0.01,
3.954,-2.95,-1.15,-2.96,-0.15,0.25,0.01,
3.955,-2.95,-1.15,-2.96,-0.16,0.25,0.04,
3.955,-2.95,-1.15,-2.96,-0.17,0.24,0.07,
3.955,-2.95,-1.15,-2.96,-0.17,0.23,0.09,
3.955,-3.21,-1.53,-2.85,-0.17,0.23,0.09,
3.956,-3.21,-1.53,-2.85,-0.16,0.20,0.12,
3.956,-3.21,-1.53,-2.85,-0.15,0.17,0.15,
3.956,-3.21,-1.53,-2.85,-0.13,0.13,0.18,
3.956,-3.15,-2.04,-2.58,-0.13,0.13,0.18,
3.957,-3.15,-2.04,-2.58,-0.12,0.09,0.20,
3.957,-2.84,-2.63,-2.21,-0.12,0.09,0.20,
3.957,-2.84,-2.63,-2.21,-0.10,0.04,0.23,
3.957,-2.84,-2.63,-2.21,-0.08,-0.00,0.24,
3.958,-2.34,-3.16,-1.74,-0.08,-0.00,0.24,
3.958,-2.34,-3.16,-1.74,-0.06,-0.05,0.26,
3.958,-2.34,-3.16,-1.74,-0.05,-0.09,0.27,
3.958,-1.62,-3.50,-1.38,-0.05,-0.09,0.27,
3.959,-1.62,-3.50,-1.38,-0.04,-0.13,0.28,
3.959,-1.62,-3.50,-1.38,-0.04,-0.18,0.28,
3.959,-0.86,-3.93,-0.94,-0.04,-0.18,0.28,
3.959,-0.86,-3.93,-0.94,-0.05,-0.24,0.29,
3.96,-0.86,-3.93,-0.94,-0.07,-0.30,0.29,
3.96,-0.28,-4.19,-0.62,-0.07,-0.30,0.29,
3.96,-0.28,-4.19,-0.62,-0.09,-0.37,0.29,
3.96,-0.28,-4.19,-0.62,-0.12,-0.43,0.29,
3.961,0.05,-4.42,-0.34,-0.12,-0.43,0.29,
3.962,0.05,-4.42,-0.34,-0.15,-0.49,0.29,
3.966,0.33,-4.52,-0.13,-0.15,-0.49,0.29,
3.966,0.33,-4.52,-0.13,-0.18,-0.53,0.28,
3.969,0.33,-4.52,-0.13,-0.21,-0.55,0.26,
3.975,0.33,-4.52,-0.13,-0.24,-0.55,0.24,
3.976,0.56,-4.53,0.09,-0.24,-0.55,0.24,
3.976,0.56,-4.53,0.09,-0.27,-0.54,0.22,
3.976,0.56,-4.53,0.09,-0.30,-0.50,0.21,
3.976,0.24,-4.59,0.34,-0.30,-0.50,0.21,
3.978,0.24,-4.59,0.34,-0.32,-0.46,0.21,
3.984,0.24,-4.59,0.34,-0.33,-0.43,0.21,
3.985,0.24,-4.59,0.34,-0.35,-0.40,0.22,
3.985,-0.16,-4.48,0.80,-0.35,-0.40,0.22,
3.985,-0.16,-4.48,0.80,-0.35,-0.38,0.23,
3.985,-0.56,-4.30,1.52,-0.35,-0.38,0.23,
3.995,-0.56,-4.30,1.52,-0.35,-0.38,0.25,
3.996,-0.97,-4.01,2.32,-0.35,-0.38,0.25,
3.996,-0.97,-4.01,2.32,-0.34,-0.38,0.26,
3.996,-0.97,-4.01,2.32,-0.33,-0.38,0.28,
3.996,-0.97,-4.01,2.32,-0.32,-0.38,0.29,
3.996,-1.40,-3.67,3.10,-0.32,-0.38,0.29,
3.997,-1.40,-3.67,3.10,-0.29,-0.37,0.30,
4.0,-1.40,-3.67,3.10,-0.27,-0.37,0.31,
4.002,-1.50,-3.31,3.70,-0.27,-0.37,0.31,
4.006,-1.50,-3.31,3.70,-0.24,-0.36,0.31,
4.007,-1.50,-3.31,3.70,-0.21,-0.34,0.31,
4.008,-1.32,-2.91,4.17,-0.21,-0.34,0.31,
4.008,-1.32,-2.91,4.17,-0.17,-0.34,0.30,
4.011,-1.32,-2.91,4.17,-0.14,-0.35,0.28,
4.011,-1.08,-2.51,4.43,-0.14,-0.35,0.28,
4.012,-1.08,-2.51,4.43,-0.11,-0.38,0.27,
4.016,-1.08,-2.51,4.43,-0.09,-0.42,0.25,
4.016,-0.74,-1.97,4.52,-0.09,-0.42,0.25,
4.018,-0.74,-1.97,4.52,-0.07,-0.47,0.23,
4.021,-0.20,-1.16,4.37,-0.07,-0.47,0.23,
4.021,-0.20,-1.16,4.37,-0.05,-0.52,0.20,
4.023,-0.20,-1.16,4.37,-0.03,-0.56,0.19,
4.026,0.43,-0.22,4.03,-0.03,-0.56,0.19,
4.026,0.43,-0.22,4.03,-0.02,-0.59,0.17,
4.027,0.43,-0.22,4.03,-0.01,-0.61,0.16,
4.03,1.14,0.69,3.66,-0.01,-0.61,0.16,
4.03,1.14,0.69,3.66,0.01,-0.61,0.14,
4.032,1.14,0.69,3.66,0.02,-0.61,0.13,
4.034,1.14,0.69,3.66,0.03,-0.61,0.12,
4.035,1.77,1.38,3.45,0.03,-0.61,0.12,
4.037,1.77,1.38,3.45,0.04,-0.60,0.11,
4.04,2.32,1.88,3.12,0.04,-0.60,0.11,
4.04,2.32,1.88,3.12,0.05,-0.59,0.10,
4.041,2.32,1.88,3.12,0.06,-0.57,0.08,
4.045,2.76,2.26,2.93,0.06,-0.57,0.08,
4.045,2.76,2.26,2.93,0.06,-0.57,0.07,
4.047,2.76,2.26,2.93,0.06,-0.56,0.06,
4.05,3.05,2.51,2.63,0.06,-0.56,0.06,
4.051,3.05,2.51,2.63,0.06,-0.56,0.05,
4.052,3.05,2.51,2.63,0.06,-0.57,0.04,
4.055,3.30,2.58,2.20,0.06,-0.57,0.04,
4.055,3.30,2.58,2.20,0.05,-0.58,0.03,
4.058,3.30,2.58,2.20,0.04,-0.59,0.02,
4.059,3.30,2.58,2.20,0.02,-0.60,0.01,
4.059,3.59,2.60,1.82,0.02,-0.60,0.01,
4.062,3.59,2.60,1.82,-0.00,-0.61,-0.00,
4.089,3.86,2.53,1.27,-0.00,-0.61,-0.00,
4.089,3.86,2.53,1.27,-0.03,-0.60,-0.02,
4.09,3.86,2.53,1.27,-0.06,-0.58,-0.04,
4.09,4.08,2.32,0.74,-0.06,-0.58,-0.04,
4.091,4.08,2.32,0.74,-0.08,-0.55,-0.06,
4.091,3.99,2.09,0.33,-0.08,-0.55,-0.06,
4.092,3.99,2.09,0.33,-0.12,-0.52,-0.08,
4.092,3.99,2.09,0.33,-0.15,-0.49,-0.10,
4.092,3.99,2.09,0.33,-0.18,-0.44,-0.11,
4.093,3.69,1.90,0.02,-0.18,-0.44,-0.11,
4.093,3.69,1.90,0.02,-0.20,-0.38,-0.12,
4.093,3.69,1.90,0.02,-0.22,-0.32,-0.12,
4.094,3.22,1.74,-0.23,-0.22,-0.32,-0.12,
4.094,3.22,1.74,-0.23,-0.24,-0.26,-0.12,
4.095,3.22,1.74,-0.23,-0.24,-0.20,-0.11,
4.095,3.22,1.74,-0.23,-0.25,-0.15,-0.10,
4.095,2.62,1.64,-0.46,-0.25,-0.15,-0.10,
4.096,2.62,1.64,-0.46,-0.25,-0.10,-0.09,
4.096,2.04,1.64,-0.58,-0.25,-0.10,-0.09,
4.096,2.04,1.64,-0.58,-0.25,-0.07,-0.07,
4.097,2.04,1.64,-0.58,-0.25,-0.03,-0.05,
4.108,2.04,1.64,-0.58,-0.24,0.01,-0.04,
4.109,1.59,1.75,-0.74,-0.24,0.01,-0.04,
4.109,1.59,1.75,-0.74,-0.23,0.05,-0.04,
4.11,1.30,1.78,-0.76,-0.23,0.05,-0.04,
4.11,1.30,1.78,-0.76,-0.21,0.10,-0.03,
4.11,1.30,1.78,-0.76,-0.19,0.14,-0.04,
4.11,1.30,1.78,-0.76,-0.18,0.19,-0.04,
4.111,0.99,1.70,-0.69,-0.18,0.19,-0.04,
4.119,0.99,1.70,-0.69,-0.16,0.23,-0.05,
4.12,0.99,1.70,-0.69,-0.13,0.28,-0.06,
4.12,0.85,1.42,-0.47,-0.13,0.28,-0.06,
4.12,0.79,1.09,-0.15,-0.13,0.28,-0.06,
4.12,0.79,1.09,-0.15,-0.11,0.33,-0.07,
4.121,0.79,1.09,-0.15,-0.08,0.37,-0.09,
4.126,0.79,1.09,-0.15,-0.05,0.41,-0.11,
4.127,0.79,1.09,-0.15,-0.02,0.46,-0.12,
4.127,0.65,0.85,0.17,-0.02,0.46,-0.12,
4.127,0.65,0.85,0.17,0.02,0.50,-0.14,
4.128,0.65,0.85,0.17,0.06,0.54,-0.15,
4.129,0.46,0.63,0.30,0.06,0.54,-0.15,
4.131,0.46,0.63,0.30,0.09,0.60,-0.16,
4.133,0.46,0.63,0.30,0.14,0.69,-0.17,
4.133,0.04,0.34,-0.05,0.14,0.69,-0.17,
4.135,0.04,0.34,-0.05,0.19,0.79,-0.18,
4.139,-0.55,0.05,-0.30,0.19,0.79,-0.18,
4.139,-0.55,0.05,-0.30,0.24,0.90,-0.19,
4.141,-0.55,0.05,-0.30,0.30,1.00,-0.19,
4.143,-1.23,-0.34,-0.53,0.30,1.00,-0.19,
4.144,-1.23,-0.34,-0.53,0.36,1.09,-0.20,
4.146,-1.23,-0.34,-0.53,0.41,1.16,-0.21,
4.149,-1.23,-0.34,-0.53,0.47,1.18,-0.21,
4.149,-1.70,-0.71,-0.41,0.47,1.18,-0.21,
4.152,-1.70,-0.71,-0.41,0.53,1.16,-0.21,
4.154,-1.70,-0.71,-0.41,0.58,1.10,-0.21,
4.154,-2.04,-0.97,-0.04,0.58,1.10,-0.21,
4.156,-2.04,-0.97,-0.04,0.63,1.03,-0.21,
4.158,-2.04,-0.97,-0.04,0.68,0.95,-0.20,
4.158,-2.27,-0.98,0.03,0.68,0.95,-0.20,
4.161,-2.27,-0.98,0.03,0.71,0.89,-0.20,
4.163,-2.27,-0.98,0.03,0.74,0.83,-0.20,
4.163,-2.29,-0.95,0.07,0.74,0.83,-0.20,
4.165,-2.29,-0.95,0.07,0.76,0.76,-0.20,
4.17,-2.30,-0.95,0.10,0.76,0.76,-0.20,
4.171,-2.30,-0.95,0.10,0.78,0.70,-0.19,
4.172,-2.30,-0.95,0.10,0.77,0.64,-0.18,
4.174,-2.30,-0.95,0.10,0.76,0.58,-0.18,
4.174,-2.00,-0.85,0.08,0.76,0.58,-0.18,
4.176,-2.00,-0.85,0.08,0.75,0.54,-0.17,
4.178,-2.00,-0.85,0.08,0.72,0.53,-0.17,
4.178,-1.58,-0.75,-0.10,0.72,0.53,-0.17,
4.18,-1.58,-0.75,-0.10,0.68,0.53,-0.17,
4.184,-1.58,-0.75,-0.10,0.64,0.53,-0.17,
4.184,-1.27,-0.55,-0.22,0.64,0.53,-0.17,
4.193,-0.86,-0.26,-0.25,0.64,0.53,-0.17,
4.193,-0.86,-0.26,-0.25,0.59,0.53,-0.17,
4.194,-0.86,-0.26,-0.25,0.54,0.53,-0.18,
4.194,-0.86,-0.26,-0.25,0.48,0.53,-0.19,
4.195,-0.86,-0.26,-0.25,0.42,0.54,-0.20,
4.195,-0.51,0.05,-0.32,0.42,0.54,-0.20,
4.196,-0.51,0.05,-0.32,0.36,0.54,-0.22,
4.198,-0.14,0.35,-0.29,0.36,0.54,-0.22,
4.199,-0.14,0.35,-0.29,0.30,0.54,-0.23,
4.2,-0.14,0.35,-0.29,0.25,0.54,-0.25,
4.204,0.32,0.59,-0.21,0.25,0.54,-0.25,
4.223,0.32,0.59,-0.21,0.20,0.54,-0.27,
4.223,0.32,0.59,-0.21,0.15,0.55,-0.29,
4.224,0.32,0.59,-0.21,0.12,0.57,-0.32,
4.224,0.99,0.62,-0.05,0.12,0.57,-0.32,
4.225,0.99,0.62,-0.05,0.10,0.58,-0.35,
4.225,0.99,0.62,-0.05,0.08,0.61,-0.37,
4.225,1.35,0.73,-0.25,0.08,0.61,-0.37,
4.226,1.35,0.73,-0.25,0.06,0.63,-0.38,
4.226,1.73,0.91,-0.61,0.06,0.63,-0.38,
4.226,1.73,0.91,-0.61,0.05,0.66,-0.39,
4.226,1.73,0.91,-0.61,0.03,0.68,-0.40,
4.227,1.73,0.91,-0.61,0.02,0.70,-0.40,
4.227,2.02,1.06,-0.97,0.02,0.70,-0.40,
4.227,2.02,1.06,-0.97,0.01,0.72,-0.41,
4.228,2.02,1.06,-0.97,0.00,0.73,-0.42,
4.249,2.29,1.21,-1.27,0.00,0.73,-0.42,
4.25,2.29,1.21,-1.27,-0.01,0.72,-0.42,
4.25,2.29,1.21,-1.27,-0.02,0.72,-0.43,
4.25,2.40,1.35,-1.40,-0.02,0.72,-0.43,
4.251,2.40,1.35,-1.40,-0.02,0.71,-0.42,
4.251,2.40,1.35,-1.40,-0.01,0.69,-0.42,
4.251,2.46,1.37,-1.35,-0.01,0.69,-0.42,
4.251,2.46,1.37,-1.35,-0.01,0.67,-0.41,
4.252,2.49,1.41,-1.28,-0.01,0.67,-0.41,
4.252,2.49,1.41,-1.28,-0.00,0.64,-0.41,
4.252,2.49,1.41,-1.28,0.00,0.61,-0.39,
4.252,2.49,1.41,-1.28,0.01,0.58,-0.39,
4.253,2.53,1.46,-1.19,0.01,0.58,-0.39,
4.253,2.53,1.46,-1.19,0.03,0.55,-0.38,
4.253,2.53,1.46,-1.19,0.04,0.52,-0.37,
4.253,2.52,1.53,-1.06,0.04,0.52,-0.37,
4.257,2.52,1.53,-1.06,0.05,0.50,-0.37,
4.258,2.52,1.53,-1.06,0.07,0.48,-0.35,
4.259,2.20,1.57,-0.85,0.07,0.48,-0.35,
4.261,2.20,1.57,-0.85,0.09,0.45,-0.33,
4.263,2.20,1.57,-0.85,0.11,0.42,-0.30,
4.264,1.78,1.56,-0.61,0.11,0.42,-0.30,
4.266,1.78,1.56,-0.61,0.13,0.38,-0.28,
4.268,1.78,1.56,-0.61,0.15,0.35,-0.26,
4.269,1.90,1.63,-0.62,0.15,0.35,-0.26,
4.271,1.90,1.63,-0.62,0.16,0.34,-0.25,
4.278,1.95,1.83,-0.63,0.16,0.34,-0.25,
4.279,1.95,1.83,-0.63,0.18,0.33,-0.25,
4.28,1.95,1.83,-0.63,0.19,0.31,-0.25,
4.28,1.95,1.83,-0.63,0.20,0.30,-0.23,
4.28,1.19,1.86,-0.61,0.20,0.30,-0.23,
4.281,1.19,1.86,-0.61,0.21,0.28,-0.21,
4.284,1.19,1.86,-0.61,0.22,0.27,-0.19,
4.285,0.88,1.87,-0.56,0.22,0.27,-0.19,
4.285,0.88,1.87,-0.56,0.23,0.27,-0.17,
4.293,0.74,1.85,-0.54,0.23,0.27,-0.17,
4.293,0.74,1.85,-0.54,0.24,0.26,-0.16,
4.293,0.74,1.85,-0.54,0.25,0.26,-0.15,
4.294,0.74,1.85,-0.54,0.27,0.25,-0.14,
4.294,0.49,1.76,-0.48,0.27,0.25,-0.14,
4.295,0.49,1.76,-0.48,0.28,0.24,-0.14,
4.297,0.49,1.76,-0.48,0.29,0.23,-0.13,
4.297,0.25,1.72,-0.51,0.29,0.23,-0.13,
4.3,0.25,1.72,-0.51,0.30,0.23,-0.12,
4.302,0.25,1.72,-0.51,0.30,0.24,-0.12,
4.302,0.10,1.65,-0.60,0.30,0.24,-0.12,
4.305,0.10,1.65,-0.60,0.30,0.25,-0.11,
4.307,0.10,1.65,-0.60,0.31,0.25,-0.11,
4.307,-0.05,1.53,-0.56,0.31,0.25,-0.11,
4.309,-0.05,1.53,-0.56,0.31,0.26,-0.11,
4.313,-0.05,1.53,-0.56,0.31,0.27,-0.11,
4.313,-0.15,1.42,-0.51,0.31,0.27,-0.11,
4.315,-0.15,1.42,-0.51,0.31,0.28,-0.11,
4.318,-0.15,1.42,-0.51,0.32,0.29,-0.11,
4.318,-0.17,1.37,-0.42,0.32,0.29,-0.11,
4.32,-0.17,1.37,-0.42,0.32,0.30,-0.11,
4.323,-0.17,1.37,-0.42,0.33,0.31,-0.11,
4.323,-0.10,1.25,-0.41,0.33,0.31,-0.11,
4.325,-0.10,1.25,-0.41,0.34,0.32,-0.11,
4.327,-0.10,1.25,-0.41,0.35,0.33,-0.11,
4.327,-0.08,1.05,-0.46,0.35,0.33,-0.11,
4.329,-0.08,1.05,-0.46,0.36,0.35,-0.11,
4.332,-0.08,1.05,-0.46,0.36,0.36,-0.11,
4.332,-0.04,0.88,-0.62,0.36,0.36,-0.11,
4.334,-0.04,0.88,-0.62,0.37,0.38,-0.11,
4.337,-0.04,0.88,-0.62,0.37,0.40,-0.12,
4.338,0.00,0.68,-0.78,0.37,0.40,-0.12,
4.34,0.00,0.68,-0.78,0.38,0.41,-0.12,
4.342,0.08,0.56,-0.98,0.38,0.41,-0.12,
4.342,0.08,0.56,-0.98,0.38,0.43,-0.12,
4.344,0.08,0.56,-0.98,0.38,0.45,-0.13,
4.347,0.08,0.56,-0.98,0.38,0.47,-0.13,
4.347,0.12,0.50,-1.25,0.38,0.47,-0.13,
4.349,0.12,0.50,-1.25,0.38,0.50,-0.13,
4.351,0.12,0.50,-1.25,0.37,0.53,-0.12,
4.352,0.35,0.49,-1.60,0.37,0.53,-0.12,
4.354,0.35,0.49,-1.60,0.35,0.56,-0.11,
4.357,0.35,0.49,-1.60,0.34,0.59,-0.10,
4.358,0.55,0.50,-1.83,0.34,0.59,-0.10,
4.359,0.55,0.50,-1.83,0.32,0.61,-0.09,
4.362,0.55,0.50,-1.83,0.30,0.63,-0.07,
4.362,0.62,0.50,-2.03,0.30,0.63,-0.07,
4.364,0.62,0.50,-2.03,0.28,0.66,-0.05,
4.366,0.67,0.44,-2.18,0.28,0.66,-0.05,
4.367,0.67,0.44,-2.18,0.26,0.68,-0.03,
4.369,0.67,0.44,-2.18,0.24,0.70,-0.01,
4.376,0.67,0.44,-2.18,0.22,0.72,0.01,
4.377,0.68,0.35,-2.34,0.22,0.72,0.01,
4.377,0.68,0.35,-2.34,0.20,0.74,0.03,
4.378,0.68,0.35,-2.34,0.18,0.76,0.05,
4.378,0.63,0.22,-2.50,0.18,0.76,0.05,
4.38,0.63,0.22,-2.50,0.16,0.78,0.07,
4.382,0.63,0.22,-2.50,0.14,0.79,0.08,
4.382,0.53,0.08,-2.59,0.14,0.79,0.08,
4.384,0.53,0.08,-2.59,0.12,0.80,0.10,
4.406,0.53,0.08,-2.59,0.11,0.81,0.11,
4.407,0.36,-0.07,-2.62,0.11,0.81,0.11,
4.407,0.36,-0.07,-2.62,0.10,0.81,0.12,
4.407,0.36,-0.07,-2.62,0.09,0.82,0.14,
4.407,0.20,-0.23,-2.57,0.09,0.82,0.14,
4.424,0.20,-0.23,-2.57,0.09,0.82,0.14,
4.424,-0.00,-0.33,-2.48,0.09,0.82,0.14,
4.425,-0.00,-0.33,-2.48,0.09,0.82,0.15,
4.425,-0.00,-0.33,-2.48,0.08,0.82,0.16,
4.425,-0.00,-0.33,-2.48,0.09,0.82,0.17,
4.425,-0.00,-0.33,-2.48,0.09,0.81,0.18,
4.425,-0.00,-0.33,-2.48,0.10,0.79,0.18,
4.426,-0.00,-0.33,-2.48,0.11,0.77,0.18,
4.426,-0.00,-0.33,-2.48,0.12,0.75,0.18,
4.426,-0.19,-0.43,-2.26,0.12,0.75,0.18,
4.426,-0.27,-0.62,-1.98,0.12,0.75,0.18,
4.426,-0.36,-0.77,-1.63,0.12,0.75,0.18,
4.427,-0.33,-0.93,-1.26,0.12,0.75,0.18,
4.427,-0.33,-0.93,-1.26,0.14,0.72,0.18,
4.427,-0.33,-0.93,-1.26,0.16,0.69,0.18,
4.427,-0.25,-1.12,-1.05,0.16,0.69,0.18,
4.427,-0.25,-1.12,-1.05,0.18,0.66,0.18,
4.427,-0.25,-1.12,-1.05,0.20,0.64,0.17,
4.428,-0.25,-1.12,-1.05,0.22,0.62,0.17,
4.428,-0.25,-1.12,-1.05,0.24,0.58,0.16,
4.428,-0.23,-1.31,-0.90,0.24,0.58,0.16,
4.43,-0.23,-1.31,-0.90,0.26,0.55,0.16,
4.432,-0.23,-1.31,-0.90,0.27,0.51,0.15,
4.432,-0.13,-1.50,-0.81,0.27,0.51,0.15,
4.435,-0.13,-1.50,-0.81,0.29,0.46,0.14,
4.436,-0.13,-1.50,-0.81,0.30,0.40,0.13,
4.436,0.10,-1.69,-0.39,0.30,0.40,0.13,
4.441,0.10,-1.69,-0.39,0.31,0.32,0.11,
4.441,0.47,-1.95,0.14,0.31,0.32,0.11,
4.441,0.47,-1.95,0.14,0.32,0.25,0.09,
4.447,0.47,-1.95,0.14,0.34,0.17,0.08,
4.447,0.47,-1.95,0.14,0.35,0.12,0.06,
4.447,0.83,-2.09,0.32,0.35,0.12,0.06,
4.448,0.83,-2.09,0.32,0.37,0.07,0.04,
4.451,1.11,-2.12,0.11,0.37,0.07,0.04,
4.451,1.11,-2.12,0.11,0.38,0.03,0.02,
4.454,1.11,-2.12,0.11,0.38,0.01,0.00,
4.457,1.11,-2.12,0.11,0.38,-0.00,-0.01,
4.457,1.39,-2.11,-0.56,0.38,-0.00,-0.01,
4.459,1.39,-2.11,-0.56,0.37,-0.00,-0.02,
4.461,1.57,-2.29,-1.24,0.37,-0.00,-0.02,
4.461,1.57,-2.29,-1.24,0.36,-0.01,-0.04,
4.463,1.57,-2.29,-1.24,0.34,-0.02,-0.05,
4.466,1.57,-2.29,-1.24,0.32,-0.04,-0.07,
4.466,1.71,-2.55,-1.95,0.32,-0.04,-0.07,
4.468,1.71,-2.55,-1.95,0.30,-0.04,-0.09,
4.474,1.88,-3.00,-2.86,0.30,-0.04,-0.09,
4.474,1.88,-3.00,-2.86,0.28,-0.02,-0.11,
4.474,1.88,-3.00,-2.86,0.26,0.00,-0.14,
4.476,1.88,-3.38,-3.81,0.26,0.00,-0.14,
4.476,1.88,-3.38,-3.81,0.23,0.03,-0.16,
4.479,1.88,-3.38,-3.81,0.20,0.07,-0.18,
4.481,1.91,-3.71,-4.84,0.20,0.07,-0.18,
4.481,1.91,-3.71,-4.84,0.17,0.10,-0.20,
4.483,1.91,-3.71,-4.84,0.13,0.14,-0.22,
4.486,1.91,-3.71,-4.84,0.08,0.17,-0.24,
4.487,1.76,-3.91,-5.67,0.08,0.17,-0.24,
4.492,1.76,-3.91,-5.67,0.04,0.21,-0.26,
4.495,1.76,-3.91,-5.67,-0.01,0.24,-0.27,
4.496,1.52,-3.99,-5.98,-0.01,0.24,-0.27,
4.496,1.52,-3.99,-5.98,-0.05,0.26,-0.28,
4.497,1.52,-3.99,-5.98,-0.08,0.27,-0.29,
4.498,1.19,-4.06,-5.64,-0.08,0.27,-0.29,
4.498,1.19,-4.06,-5.64,-0.11,0.26,-0.30,
4.501,1.19,-4.06,-5.64,-0.13,0.25,-0.31,
4.501,0.64,-3.94,-4.94,-0.13,0.25,-0.31,
4.503,0.64,-3.94,-4.94,-0.13,0.23,-0.30,
4.506,0.64,-3.94,-4.94,-0.13,0.18,-0.29,
4.507,0.08,-3.73,-3.79,-0.13,0.18,-0.29,
4.508,0.08,-3.73,-3.79,-0.12,0.12,-0.26,
4.51,0.08,-3.73,-3.79,-0.10,0.07,-0.24,
4.511,-0.57,-3.39,-2.51,-0.10,0.07,-0.24,
4.513,-0.57,-3.39,-2.51,-0.07,0.01,-0.20,
4.515,-0.57,-3.39,-2.51,-0.03,-0.05,-0.16,
4.515,-1.07,-3.01,-1.38,-0.03,-0.05,-0.16,
4.518,-1.07,-3.01,-1.38,0.00,-0.11,-0.11,
4.522,-1.27,-2.72,-0.38,0.00,-0.11,-0.11,
4.522,-1.27,-2.72,-0.38,0.04,-0.17,-0.07,
4.522,-1.27,-2.72,-0.38,0.07,-0.23,-0.04,
4.525,-1.27,-2.72,-0.38,0.10,-0.28,-0.01,
4.525,-1.21,-2.61,0.49,0.10,-0.28,-0.01,
4.527,-1.21,-2.61,0.49,0.13,-0.32,0.01,
4.531,-1.11,-2.82,1.27,0.13,-0.32,0.01,
4.531,-1.11,-2.82,1.27,0.16,-0.36,0.03,
4.532,-1.11,-2.82,1.27,0.18,-0.39,0.05,
4.535,-1.01,-3.18,1.94,0.18,-0.39,0.05,
4.535,-1.01,-3.18,1.94,0.21,-0.43,0.06,
4.54,-1.01,-3.18,1.94,0.24,-0.46,0.07,
4.541,-1.01,-3.18,1.94,0.27,-0.50,0.07,
4.541,-0.78,-3.73,2.55,0.27,-0.50,0.07,
4.544,-0.78,-3.73,2.55,0.30,-0.54,0.07,
4.545,-0.78,-3.73,2.55,0.33,-0.59,0.07,
4.545,-0.72,-4.20,3.01,0.33,-0.59,0.07,
4.547,-0.72,-4.20,3.01,0.36,-0.64,0.06,
4.55,-0.72,-4.20,3.01,0.39,-0.69,0.05,
4.55,-0.44,-4.66,3.32,0.39,-0.69,0.05,
4.552,-0.44,-4.66,3.32,0.41,-0.75,0.03,
4.555,0.04,-4.97,3.31,0.41,-0.75,0.03,
4.556,0.04,-4.97,3.31,0.43,-0.79,0.00,
4.558,0.04,-4.97,3.31,0.44,-0.82,-0.03,
4.57,0.04,-4.97,3.31,0.43,-0.84,-0.07,
4.57,0.43,-4.98,2.96,0.43,-0.84,-0.07,
4.57,0.43,-4.98,2.96,0.42,-0.84,-0.10,
4.571,0.43,-4.98,2.96,0.39,-0.83,-0.13,
4.571,0.83,-4.64,2.42,0.39,-0.83,-0.13,
4.571,0.83,-4.64,2.42,0.35,-0.80,-0.17,
4.571,0.83,-4.64,2.42,0.30,-0.76,-0.20,
4.571,1.20,-3.87,1.75,0.30,-0.76,-0.20,
4.576,1.20,-3.87,1.75,0.24,-0.71,-0.23,
4.576,1.20,-3.87,1.75,0.17,-0.65,-0.25,
4.576,1.45,-2.67,1.23,0.17,-0.65,-0.25,
4.583,1.45,-2.67,1.23,0.09,-0.60,-0.26,
4.584,1.45,-2.67,1.23,0.02,-0.55,-0.27,
4.584,1.71,-1.29,1.11,0.02,-0.55,-0.27,
4.584,1.71,-1.29,1.11,-0.04,-0.51,-0.26,
4.585,1.71,-1.29,1.11,-0.11,-0.49,-0.25,
4.585,1.95,-0.10,1.22,-0.11,-0.49,-0.25,
4.587,1.95,-0.10,1.22,-0.16,-0.48,-0.24,
4.59,1.95,-0.10,1.22,-0.21,-0.47,-0.22,
4.591,2.07,0.74,1.40,-0.21,-0.47,-0.22,
4.592,2.07,0.74,1.40,-0.25,-0.47,-0.19,
4.594,2.07,1.25,1.82,-0.25,-0.47,-0.19,
4.595,2.07,1.25,1.82,-0.27,-0.48,-0.17,
4.597,2.07,1.25,1.82,-0.28,-0.50,-0.14,
4.6,1.96,1.72,2.26,-0.28,-0.50,-0.14,
4.601,1.96,1.72,2.26,-0.28,-0.52,-0.11,
4.603,1.96,1.72,2.26,-0.28,-0.53,-0.08,
4.608,1.96,1.72,2.26,-0.26,-0.54,-0.05,
4.608,1.77,2.26,2.46,-0.26,-0.54,-0.05,
4.608,1.77,2.26,2.46,-0.24,-0.54,-0.02,
4.611,1.48,2.82,2.57,-0.24,-0.54,-0.02,
4.611,1.48,2.82,2.57,-0.22,-0.54,0.00,
4.612,1.48,2.82,2.57,-0.19,-0.53,0.03,
4.615,1.48,2.82,2.57,-0.16,-0.52,0.06,
4.615,1.14,3.27,2.61,-0.16,-0.52,0.06,
4.617,1.14,3.27,2.61,-0.13,-0.50,0.09,
4.619,1.14,3.27,2.61,-0.11,-0.48,0.11,
4.62,0.89,3.56,2.59,-0.11,-0.48,0.11,
4.623,0.89,3.56,2.59,-0.09,-0.46,0.13,
4.628,0.61,3.76,2.50,-0.09,-0.46,0.13,
4.628,0.61,3.76,2.50,-0.06,-0.43,0.15,
4.628,0.61,3.76,2.50,-0.05,-0.39,0.17,
4.63,0.61,3.76,2.50,-0.03,-0.34,0.19,
4.63,0.35,3.85,2.35,-0.03,-0.34,0.19,
4.632,0.35,3.85,2.35,-0.02,-0.28,0.22,
4.634,0.35,3.85,2.35,-0.00,-0.22,0.24,
4.635,0.05,3.82,2.33,-0.00,-0.22,0.24,
4.637,0.05,3.82,2.33,0.01,-0.14,0.26,
4.641,0.05,3.82,2.33,0.03,-0.06,0.29,
4.641,-0.25,3.73,2.44,0.03,-0.06,0.29,
4.642,-0.25,3.73,2.44,0.05,0.02,0.32,
4.644,-0.59,3.48,2.62,0.05,0.02,0.32,
4.645,-0.59,3.48,2.62,0.07,0.10,0.34,
4.647,-0.59,3.48,2.62,0.09,0.17,0.38,
4.649,-0.59,3.48,2.62,0.12,0.25,0.41,
4.649,-1.07,3.17,2.89,0.12,0.25,0.41,
4.651,-1.07,3.17,2.89,0.14,0.32,0.46,
4.655,-1.07,3.17,2.89,0.17,0.39,0.50,
4.655,-1.44,2.79,3.12,0.17,0.39,0.50,
4.657,-1.44,2.79,3.12,0.19,0.46,0.54,
4.66,-1.44,2.79,3.12,0.21,0.51,0.58,
4.66,-1.54,2.45,3.09,0.21,0.51,0.58,
4.661,-1.54,2.45,3.09,0.23,0.55,0.60,
4.666,-1.54,2.45,3.09,0.23,0.59,0.63,
4.667,-1.65,1.92,2.65,0.23,0.59,0.63,
4.667,-1.65,1.92,2.65,0.22,0.60,0.64,
4.669,-1.59,1.33,2.00,0.22,0.60,0.64,
4.674,-1.59,1.33,2.00,0.19,0.60,0.65,
4.676,-1.59,1.33,2.00,0.16,0.60,0.65,
4.677,-1.35,0.98,1.13,0.16,0.60,0.65,
4.677,-1.35,0.98,1.13,0.10,0.60,0.64,
4.677,-1.35,0.98,1.13,0.05,0.60,0.62,
4.686,-1.35,0.98,1.13,-0.02,0.61,0.59,
4.687,-1.19,0.72,0.29,-0.02,0.61,0.59,
4.687,-1.19,0.72,0.29,-0.09,0.63,0.55,
4.687,-1.19,0.72,0.29,-0.16,0.66,0.52,
4.687,-1.24,0.54,-0.54,-0.16,0.66,0.52,
4.687,-1.24,0.54,-0.54,-0.23,0.69,0.48,
4.689,-1.26,0.42,-1.09,-0.23,0.69,0.48,
4.689,-1.26,0.42,-1.09,-0.30,0.72,0.45,
4.692,-1.26,0.42,-1.09,-0.36,0.75,0.43,
4.694,-1.26,0.42,-1.09,-0.42,0.77,0.40,
4.694,-0.99,0.25,-1.36,-0.42,0.77,0.40,
4.697,-0.99,0.25,-1.36,-0.46,0.77,0.38,
4.7,-0.63,-0.11,-0.99,-0.46,0.77,0.38,
4.7,-0.63,-0.11,-0.99,-0.49,0.75,0.37,
4.701,-0.63,-0.11,-0.99,-0.49,0.71,0.35,
4.703,-0.63,-0.11,-0.99,-0.48,0.66,0.34,
4.706,-0.38,-0.46,-0.37,-0.48,0.66,0.34,
4.706,-0.38,-0.46,-0.37,-0.45,0.60,0.33,
4.709,-0.38,-0.46,-0.37,-0.40,0.53,0.32,
4.709,-0.18,-0.73,0.05,-0.40,0.53,0.32,
4.711,-0.18,-0.73,0.05,-0.35,0.46,0.31,
4.713,-0.18,-0.73,0.05,-0.29,0.37,0.30,
4.714,0.13,-0.86,0.31,-0.29,0.37,0.30,
4.716,0.13,-0.86,0.31,-0.23,0.28,0.28,
4.719,0.47,-0.62,0.25,-0.23,0.28,0.28,
4.719,0.47,-0.62,0.25,-0.17,0.19,0.26,
4.723,0.47,-0.62,0.25,-0.12,0.12,0.24,
4.724,0.54,-0.38,0.02,-0.12,0.12,0.24,
4.738,0.54,-0.38,0.02,-0.08,0.04,0.22,
4.739,0.54,-0.38,0.02,-0.04,-0.02,0.21,
4.739,0.54,-0.38,0.02,-0.01,-0.08,0.20,
4.739,0.58,-0.20,-0.05,-0.01,-0.08,0.20,
4.739,0.58,-0.20,-0.05,0.01,-0.13,0.20,
4.74,0.58,-0.20,-0.05,0.02,-0.18,0.20,
4.74,0.73,-0.11,-0.13,0.02,-0.18,0.20,
4.74,0.73,-0.11,-0.13,0.03,-0.21,0.20,
4.74,1.17,-0.13,-0.35,0.03,-0.21,0.20,
4.741,1.17,-0.13,-0.35,0.03,-0.23,0.19,
4.741,1.17,-0.13,-0.35,0.03,-0.24,0.17,
4.743,1.22,-0.11,-0.43,0.03,-0.24,0.17,
4.744,1.22,-0.11,-0.43,0.01,-0.25,0.16,
4.746,1.22,-0.11,-0.43,-0.00,-0.25,0.16,
4.748,1.22,-0.11,-0.43,-0.02,-0.24,0.15,
4.748,1.09,0.05,-0.53,-0.02,-0.24,0.15,
4.751,1.09,0.05,-0.53,-0.05,-0.23,0.15,
4.754,0.99,0.30,-0.62,-0.05,-0.23,0.15,
4.754,0.99,0.30,-0.62,-0.07,-0.21,0.15,
4.756,0.99,0.30,-0.62,-0.10,-0.19,0.15,
4.758,0.99,0.30,-0.62,-0.13,-0.17,0.15,
4.758,0.85,0.60,-0.56,-0.13,-0.17,0.15,
4.761,0.85,0.60,-0.56,-0.16,-0.15,0.15,
4.763,0.85,0.60,-0.56,-0.19,-0.13,0.16,
4.763,0.57,0.87,-0.50,-0.19,-0.13,0.16,
4.766,0.57,0.87,-0.50,-0.21,-0.11,0.17,
4.768,0.57,0.87,-0.50,-0.24,-0.11,0.18,
4.768,0.27,1.05,-0.23,-0.24,-0.11,0.18,
4.77,0.27,1.05,-0.23,-0.25,-0.12,0.20,
4.781,0.27,1.05,-0.23,-0.26,-0.13,0.21,
4.781,0.14,1.13,0.01,-0.26,-0.13,0.21,
4.781,0.14,1.13,0.01,-0.26,-0.14,0.23,
4.781,0.14,1.13,0.01,-0.27,-0.14,0.24,
4.781,0.04,1.29,-0.04,-0.27,-0.14,0.24,
4.782,0.04,1.29,-0.04,-0.27,-0.14,0.25,
4.783,0.04,1.29,-0.04,-0.27,-0.13,0.26,
4.784,-0.01,1.47,-0.10,-0.27,-0.13,0.26,
4.785,-0.01,1.47,-0.10,-0.27,-0.13,0.26,
4.788,-0.01,1.47,-0.10,-0.27,-0.14,0.27,
4.789,-0.09,1.62,-0.09,-0.27,-0.14,0.27,
4.793,-0.09,1.62,-0.09,-0.27,-0.14,0.28,
4.793,-0.21,1.70,-0.04,-0.27,-0.14,0.28,
4.794,-0.21,1.70,-0.04,-0.27,-0.15,0.29,
4.796,-0.21,1.70,-0.04,-0.26,-0.16,0.29,
4.798,-0.09,1.73,-0.04,-0.26,-0.16,0.29,
4.799,-0.09,1.73,-0.04,-0.26,-0.18,0.29,
4.801,-0.09,1.73,-0.04,-0.25,-0.18,0.28,
4.803,-0.06,1.79,0.06,-0.25,-0.18,0.28,
4.803,-0.06,1.79,0.06,-0.23,-0.19,0.27,
4.805,-0.06,1.79,0.06,-0.22,-0.19,0.26,
4.81,-0.06,1.79,0.06,-0.20,-0.19,0.25,
4.81,-0.11,1.82,0.02,-0.20,-0.19,0.25,
4.81,-0.11,1.82,0.02,-0.18,-0.18,0.23,
4.813,-0.11,1.82,0.02,-0.16,-0.18,0.22,
4.813,-0.07,1.87,-0.07,-0.16,-0.18,0.22,
4.815,-0.07,1.87,-0.07,-0.15,-0.17,0.20,
4.818,-0.07,1.87,-0.07,-0.14,-0.17,0.18,
4.818,-0.16,1.93,-0.14,-0.14,-0.17,0.18,
4.82,-0.16,1.93,-0.14,-0.13,-0.17,0.17,
4.825,-0.16,1.93,-0.14,-0.12,-0.17,0.16,
4.825,-0.27,2.01,-0.29,-0.12,-0.17,0.16,
4.826,-0.27,2.01,-0.29,-0.11,-0.18,0.16,
4.828,-0.27,2.01,-0.29,-0.11,-0.17,0.15,
4.828,-0.36,2.01,-0.36,-0.11,-0.17,0.15,
4.83,-0.36,2.01,-0.36,-0.10,-0.17,0.14,
4.832,-0.36,2.01,-0.36,-0.10,-0.16,0.14,
4.832,-0.33,1.96,-0.42,-0.10,-0.16,0.14,
4.835,-0.33,1.96,-0.42,-0.09,-0.15,0.13,
4.838,-0.33,1.96,-0.42,-0.08,-0.15,0.12,
4.838,-0.26,1.95,-0.53,-0.08,-0.15,0.12,
4.84,-0.26,1.95,-0.53,-0.08,-0.14,0.10,
4.843,-0.26,1.95,-0.53,-0.08,-0.13,0.09,
4.844,-0.11,1.85,-0.55,-0.08,-0.13,0.09,
4.848,-0.11,1.85,-0.55,-0.07,-0.13,0.08,
4.848,-0.11,1.85,-0.55,-0.07,-0.12,0.06,
4.849,-0.05,1.78,-0.64,-0.07,-0.12,0.06,
4.851,-0.05,1.78,-0.64,-0.07,-0.11,0.05,
4.852,-0.05,1.78,-0.64,-0.06,-0.11,0.04,
4.852,-0.13,1.64,-0.71,-0.06,-0.11,0.04,
4.856,-0.13,1.64,-0.71,-0.06,-0.10,0.03,
4.857,-0.09,1.51,-0.78,-0.06,-0.10,0.03,
4.858,-0.09,1.51,-0.78,-0.06,-0.10,0.03,
4.86,-0.09,1.51,-0.78,-0.06,-0.10,0.02,
4.863,-0.09,1.51,-0.78,-0.06,-0.10,0.01,
4.863,-0.05,1.40,-0.80,-0.06,-0.10,0.01,
4.864,-0.05,1.40,-0.80,-0.07,-0.10,0.00,
4.867,-0.05,1.40,-0.80,-0.07,-0.09,-0.01,
4.867,-0.02,1.26,-0.82,-0.07,-0.09,-0.01,
4.875,-0.02,1.26,-0.82,-0.07,-0.09,-0.01,
4.876,-0.01,1.13,-0.82,-0.07,-0.09,-0.01,
4.876,-0.01,1.13,-0.82,-0.08,-0.09,-0.02,
4.876,-0.01,1.13,-0.82,-0.08,-0.08,-0.03,
4.877,-0.03,0.91,-0.78,-0.08,-0.08,-0.03,
4.878,-0.03,0.91,-0.78,-0.08,-0.07,-0.04,
4.88,-0.03,0.91,-0.78,-0.08,-0.07,-0.04,
4.883,-0.03,0.91,-0.78,-0.08,-0.06,-0.05,
4.884,0.00,0.87,-0.84,-0.08,-0.06,-0.05,
4.885,0.00,0.87,-0.84,-0.08,-0.05,-0.06,
4.891,0.00,0.87,-0.84,-0.08,-0.04,-0.07,
4.891,0.00,0.87,-0.84,-0.09,-0.02,-0.07,
4.903,0.02,0.95,-1.02,-0.09,-0.02,-0.07,
4.903,0.02,0.95,-1.02,-0.10,-0.01,-0.08,
4.903,-0.08,0.99,-1.19,-0.10,-0.01,-0.08,
4.903,-0.08,0.99,-1.19,-0.11,0.01,-0.08,
4.903,-0.16,1.13,-1.41,-0.11,0.01,-0.08,
4.904,-0.16,1.13,-1.41,-0.12,0.02,-0.08,
4.904,-0.16,1.13,-1.41,-0.13,0.03,-0.08,
4.904,-0.27,1.27,-1.50,-0.13,0.03,-0.08,
4.906,-0.27,1.27,-1.50,-0.14,0.04,-0.07,
4.906,-0.27,1.27,-1.50,-0.16,0.04,-0.07,
4.908,-0.27,1.27,-1.50,-0.17,0.04,-0.06,
4.91,-0.32,1.40,-1.54,-0.17,0.04,-0.06,
4.91,-0.32,1.40,-1.54,-0.18,0.04,-0.05,
4.914,-0.32,1.40,-1.54,-0.20,0.03,-0.04,
4.914,-0.52,1.59,-1.59,-0.20,0.03,-0.04,
4.914,-0.52,1.59,-1.59,-0.22,0.03,-0.03,
4.917,-0.77,1.65,-1.65,-0.22,0.03,-0.03,
4.917,-0.77,1.65,-1.65,-0.23,0.02,-0.02,
4.919,-0.77,1.65,-1.65,-0.24,0.01,0.00,
4.923,-0.77,1.65,-1.65,-0.25,-0.01,0.02,
4.923,-0.85,1.64,-1.43,-0.25,-0.01,0.02,
4.925,-0.85,1.64,-1.43,-0.25,-0.03,0.03,
4.927,-0.85,1.64,-1.43,-0.25,-0.05,0.05,
4.927,-0.86,1.65,-1.29,-0.25,-0.05,0.05,
4.929,-0.86,1.65,-1.29,-0.25,-0.09,0.06,
4.932,-0.86,1.71,-1.04,-0.25,-0.09,0.06,
4.932,-0.86,1.71,-1.04,-0.24,-0.15,0.08,
4.934,-0.86,1.71,-1.04,-0.24,-0.19,0.10,
4.937,-0.93,1.63,-1.09,-0.24,-0.19,0.10,
4.937,-0.93,1.63,-1.09,-0.23,-0.21,0.12,
4.94,-0.93,1.63,-1.09,-0.22,-0.22,0.14,
4.942,-0.89,1.54,-1.01,-0.22,-0.22,0.14,
4.942,-0.89,1.54,-1.01,-0.21,-0.22,0.15,
4.944,-0.89,1.54,-1.01,-0.20,-0.24,0.17,
4.946,-0.89,1.54,-1.01,-0.20,-0.26,0.17,
4.947,-0.81,1.34,-0.90,-0.20,-0.26,0.17,
4.949,-0.81,1.34,-0.90,-0.19,-0.27,0.18,
4.951,-0.81,1.34,-0.90,-0.18,-0.27,0.18,
4.952,-0.85,1.22,-0.96,-0.18,-0.27,0.18,
4.954,-0.85,1.22,-0.96,-0.17,-0.28,0.18,
4.958,-0.88,0.94,-0.96,-0.17,-0.28,0.18,
