
time,ax,ay,az,wx,wy,wz,
0.003,0.40,0.87,0.12,0.16,0.04,-0.38,
0.003,0.54,0.77,0.56,0.16,0.04,-0.38,
0.004,0.54,0.77,0.56,0.14,0.04,-0.39,
0.004,0.76,0.96,1.91,0.14,0.04,-0.39,
0.004,0.76,0.96,1.91,0.15,0.01,-0.41,
0.005,0.76,0.96,1.91,0.17,-0.01,-0.43,
0.005,0.76,0.96,1.91,0.18,-0.01,-0.44,
0.005,0.58,0.96,1.60,0.18,-0.01,-0.44,
0.006,0.58,0.96,1.60,0.18,-0.01,-0.45,
0.015,0.55,0.98,1.11,0.18,-0.01,-0.45,
0.015,0.55,0.98,1.11,0.18,-0.01,-0.45,
0.015,0.55,0.98,1.11,0.17,-0.02,-0.45,
0.016,0.55,0.98,1.11,0.15,-0.04,-0.46,
0.016,0.73,1.07,0.62,0.15,-0.04,-0.46,
0.016,0.73,1.07,0.62,0.12,-0.06,-0.48,
0.018,0.73,1.07,0.62,0.08,-0.08,-0.50,
0.018,0.91,1.17,0.10,0.08,-0.08,-0.50,
0.02,0.91,1.17,0.10,0.04,-0.09,-0.52,
0.024,0.91,1.17,0.10,-0.01,-0.09,-0.54,
0.024,0.92,1.20,-0.41,-0.01,-0.09,-0.54,
0.025,0.92,1.20,-0.41,-0.08,-0.08,-0.56,
0.028,0.76,1.14,-0.92,-0.08,-0.08,-0.56,
0.028,0.76,1.14,-0.92,-0.15,-0.07,-0.58,
0.03,0.76,1.14,-0.92,-0.23,-0.05,-0.59,
0.033,0.76,1.14,-0.92,-0.31,-0.04,-0.60,
0.033,0.56,1.03,-1.09,-0.31,-0.04,-0.60,
0.035,0.56,1.03,-1.09,-0.40,-0.03,-0.62,
0.037,0.56,1.03,-1.09,-0.48,-0.02,-0.63,
0.038,0.33,0.97,-0.93,-0.48,-0.02,-0.63,
0.052,0.10,0.87,-0.45,-0.48,-0.02,-0.63,
0.052,-0.18,0.71,0.21,-0.48,-0.02,-0.63,
0.052,-0.18,0.71,0.21,-0.56,-0.01,-0.63,
0.053,-0.18,0.71,0.21,-0.63,-0.01,-0.64,
0.053,-0.18,0.71,0.21,-0.69,-0.00,-0.64,
0.053,-0.18,0.71,0.21,-0.75,0.00,-0.63,
0.053,-0.18,0.71,0.21,-0.78,0.00,-0.63,
0.053,-0.35,0.59,1.58,-0.78,0.00,-0.63,
0.054,-0.35,0.59,1.58,-0.80,-0.02,-0.62,
0.055,-0.35,0.59,1.58,-0.79,-0.06,-0.62,
0.057,-0.35,0.59,1.58,-0.76,-0.09,-0.61,
0.057,-0.49,0.68,2.88,-0.76,-0.09,-0.61,
0.06,-0.49,0.68,2.88,-0.73,-0.12,-0.60,
0.062,-0.49,0.68,2.88,-0.68,-0.13,-0.58,
0.063,-1.07,0.71,2.83,-0.68,-0.13,-0.58,
0.064,-1.07,0.71,2.83,-0.64,-0.16,-0.55,
0.068,-1.07,0.71,2.83,-0.59,-0.19,-0.51,
0.068,-1.38,0.46,2.62,-0.59,-0.19,-0.51,
0.07,-1.38,0.46,2.62,-0.55,-0.23,-0.47,
0.072,-1.11,0.13,2.66,-0.55,-0.23,-0.47,
0.072,-1.11,0.13,2.66,-0.49,-0.27,-0.43,
0.076,-1.11,0.13,2.66,-0.43,-0.32,-0.40,
0.077,-1.11,0.13,2.66,-0.37,-0.35,-0.38,
0.077,-0.65,-0.16,2.62,-0.37,-0.35,-0.38,
0.083,-0.65,-0.16,2.62,-0.31,-0.38,-0.36,
0.083,-0.65,-0.16,2.62,-0.25,-0.40,-0.35,
0.083,-0.30,-0.38,2.27,-0.25,-0.40,-0.35,
0.085,-0.30,-0.38,2.27,-0.19,-0.40,-0.34,
0.087,-0.30,-0.38,2.27,-0.14,-0.40,-0.33,
0.088,0.08,-0.50,1.87,-0.14,-0.40,-0.33,
0.089,0.08,-0.50,1.87,-0.08,-0.40,-0.34,
0.098,0.08,-0.50,1.87,-0.03,-0.40,-0.34,
0.098,0.41,-0.59,1.55,-0.03,-0.40,-0.34,
0.098,0.41,-0.59,1.55,0.01,-0.39,-0.34,
0.098,0.41,-0.59,1.55,0.06,-0.38,-0.35,
0.099,0.64,-0.59,1.25,0.06,-0.38,-0.35,
0.099,0.64,-0.59,1.25,0.11,-0.36,-0.36,
0.102,0.64,-0.59,1.25,0.15,-0.33,-0.36,
0.102,0.78,-0.59,0.92,0.15,-0.33,-0.36,
0.104,0.78,-0.59,0.92,0.19,-0.29,-0.37,
0.107,0.97,-0.60,0.67,0.19,-0.29,-0.37,
0.107,0.97,-0.60,0.67,0.22,-0.26,-0.38,
0.113,0.97,-0.60,0.67,0.26,-0.22,-0.39,
0.114,0.97,-0.60,0.67,0.28,-0.17,-0.40,
0.114,1.19,-0.71,0.39,0.28,-0.17,-0.40,
0.114,1.19,-0.71,0.39,0.31,-0.13,-0.42,
0.117,1.25,-0.82,0.08,0.31,-0.13,-0.42,
0.118,1.25,-0.82,0.08,0.33,-0.08,-0.43,
0.119,1.25,-0.82,0.08,0.34,-0.04,-0.44,
0.126,1.25,-0.82,0.08,0.35,0.01,-0.45,
0.126,1.25,-0.82,0.08,0.35,0.07,-0.46,
0.126,1.24,-0.92,-0.13,0.35,0.07,-0.46,
0.126,1.18,-0.95,-0.24,0.35,0.07,-0.46,
0.127,1.18,-0.95,-0.24,0.34,0.12,-0.46,
0.129,1.18,-0.95,-0.24,0.34,0.17,-0.47,
0.132,1.18,-0.95,-0.24,0.32,0.21,-0.47,
0.132,1.09,-0.95,-0.30,0.32,0.21,-0.47,
0.135,1.09,-0.95,-0.30,0.31,0.26,-0.48,
0.137,1.09,-0.95,-0.30,0.29,0.29,-0.48,
0.137,0.96,-1.01,-0.23,0.29,0.29,-0.48,
0.142,0.96,-1.01,-0.23,0.27,0.32,-0.49,
0.142,0.77,-1.06,-0.07,0.27,0.32,-0.49,
0.143,0.77,-1.06,-0.07,0.25,0.35,-0.49,
0.145,0.77,-1.06,-0.07,0.23,0.37,-0.50,
0.146,0.77,-1.06,-0.07,0.21,0.39,-0.50,
0.147,0.57,-1.11,0.15,0.21,0.39,-0.50,
0.149,0.57,-1.11,0.15,0.18,0.40,-0.50,
0.151,0.57,-1.11,0.15,0.16,0.40,-0.50,
0.151,0.31,-1.14,0.41,0.16,0.40,-0.50,
0.154,0.31,-1.14,0.41,0.14,0.40,-0.50,
0.156,0.31,-1.14,0.41,0.12,0.39,-0.49,
0.156,0.09,-1.14,0.72,0.12,0.39,-0.49,
0.159,0.09,-1.14,0.72,0.10,0.38,-0.49,
0.161,0.09,-1.14,0.72,0.09,0.35,-0.48,
0.162,-0.11,-1.17,0.98,0.09,0.35,-0.48,
0.166,-0.11,-1.17,0.98,0.07,0.32,-0.47,
0.166,-0.26,-1.21,1.17,0.07,0.32,-0.47,
0.166,-0.26,-1.21,1.17,0.07,0.29,-0.47,
0.171,-0.26,-1.21,1.17,0.06,0.25,-0.46,
0.173,-0.40,-1.30,1.24,0.06,0.25,-0.46,
0.173,-0.40,-1.30,1.24,0.05,0.20,-0.46,
0.174,-0.40,-1.30,1.24,0.04,0.16,-0.46,
0.176,-0.40,-1.30,1.24,0.04,0.11,-0.45,
0.176,-0.48,-1.34,1.23,0.04,0.11,-0.45,
0.179,-0.48,-1.34,1.23,0.03,0.07,-0.45,
0.181,-0.48,-1.34,1.23,0.03,0.02,-0.44,
0.181,-0.54,-1.40,1.14,0.03,0.02,-0.44,
0.184,-0.54,-1.40,1.14,0.03,-0.02,-0.44,
0.187,-0.54,-1.42,0.99,0.03,-0.02,-0.44,
0.187,-0.54,-1.42,0.99,0.02,-0.06,-0.44,
0.189,-0.54,-1.42,0.99,0.02,-0.10,-0.44,
0.192,-0.54,-1.42,0.99,0.02,-0.13,-0.44,
0.192,-0.52,-1.41,0.82,0.02,-0.13,-0.44,
0.193,-0.52,-1.41,0.82,0.02,-0.16,-0.44,
0.197,-0.52,-1.41,0.82,0.02,-0.19,-0.43,
0.197,-0.51,-1.41,0.62,0.02,-0.19,-0.43,
0.198,-0.51,-1.41,0.62,0.02,-0.21,-0.43,
0.201,-0.51,-1.41,0.62,0.02,-0.23,-0.43,
0.201,-0.48,-1.41,0.39,0.02,-0.23,-0.43,
0.203,-0.48,-1.41,0.39,0.02,-0.25,-0.42,
0.206,-0.43,-1.40,0.18,0.02,-0.25,-0.42,
0.206,-0.43,-1.40,0.18,0.03,-0.26,-0.42,
0.21,-0.43,-1.40,0.18,0.03,-0.27,-0.42,
0.211,-0.39,-1.40,-0.03,0.03,-0.27,-0.42,
0.211,-0.39,-1.40,-0.03,0.04,-0.28,-0.41,
0.214,-0.39,-1.40,-0.03,0.05,-0.28,-0.41,
0.22,-0.30,-1.37,-0.26,0.05,-0.28,-0.41,
0.22,-0.30,-1.37,-0.26,0.06,-0.28,-0.41,
0.22,-0.30,-1.37,-0.26,0.06,-0.28,-0.40,
0.222,-0.19,-1.33,-0.51,0.06,-0.28,-0.40,
0.222,-0.19,-1.33,-0.51,0.07,-0.27,-0.40,
0.223,-0.19,-1.33,-0.51,0.08,-0.27,-0.40,
0.226,-0.19,-1.33,-0.51,0.10,-0.26,-0.40,
0.226,-0.11,-1.28,-0.72,0.10,-0.26,-0.40,
0.23,-0.11,-1.28,-0.72,0.11,-0.25,-0.40,
0.231,-0.05,-1.21,-0.91,0.11,-0.25,-0.40,
0.231,-0.05,-1.21,-0.91,0.12,-0.24,-0.40,
0.233,-0.05,-1.21,-0.91,0.13,-0.23,-0.40,
0.236,0.03,-1.13,-1.10,0.13,-0.23,-0.40,
0.236,0.03,-1.13,-1.10,0.14,-0.22,-0.39,
0.238,0.03,-1.13,-1.10,0.15,-0.21,-0.39,
0.241,0.03,-1.13,-1.10,0.15,-0.19,-0.39,
0.241,0.12,-1.07,-1.28,0.15,-0.19,-0.39,
0.243,0.12,-1.07,-1.28,0.16,-0.18,-0.38,
0.26,0.23,-1.02,-1.42,0.16,-0.18,-0.38,
0.26,0.23,-1.02,-1.42,0.16,-0.17,-0.38,
0.261,0.23,-1.02,-1.42,0.17,-0.16,-0.37,
0.261,0.23,-1.02,-1.42,0.17,-0.15,-0.37,
0.261,0.33,-0.96,-1.55,0.17,-0.15,-0.37,
0.262,0.33,-0.96,-1.55,0.18,-0.14,-0.37,
0.262,0.45,-0.92,-1.62,0.18,-0.14,-0.37,
0.262,0.45,-0.92,-1.62,0.18,-0.13,-0.37,
0.263,0.45,-0.92,-1.62,0.18,-0.12,-0.37,
0.263,0.56,-0.88,-1.71,0.18,-0.12,-0.37,
0.263,0.56,-0.88,-1.71,0.18,-0.12,-0.37,
0.264,0.56,-0.88,-1.71,0.18,-0.11,-0.37,
0.266,0.66,-0.83,-1.80,0.18,-0.11,-0.37,
0.266,0.66,-0.83,-1.80,0.19,-0.10,-0.37,
0.268,0.66,-0.83,-1.80,0.19,-0.09,-0.38,
0.27,0.66,-0.83,-1.80,0.19,-0.09,-0.38,
0.271,0.75,-0.76,-1.87,0.19,-0.09,-0.38,
0.273,0.75,-0.76,-1.87,0.19,-0.08,-0.39,
0.275,0.75,-0.76,-1.87,0.18,-0.07,-0.39,
0.276,0.83,-0.68,-1.93,0.18,-0.07,-0.39,
0.278,0.83,-0.68,-1.93,0.18,-0.06,-0.40,
0.28,0.83,-0.68,-1.93,0.17,-0.05,-0.40,
0.281,0.90,-0.63,-1.98,0.17,-0.05,-0.40,
0.283,0.90,-0.63,-1.98,0.17,-0.04,-0.41,
0.286,0.96,-0.57,-2.00,0.17,-0.04,-0.41,
0.286,0.96,-0.57,-2.00,0.16,-0.02,-0.41,
0.288,0.96,-0.57,-2.00,0.15,-0.01,-0.42,
0.297,0.96,-0.57,-2.00,0.15,0.00,-0.42,
0.297,0.98,-0.49,-1.99,0.15,0.00,-0.42,
0.297,0.98,-0.49,-1.99,0.14,0.02,-0.43,
0.298,0.98,-0.45,-1.91,0.14,0.02,-0.43,
0.298,0.98,-0.45,-1.91,0.13,0.03,-0.43,
0.298,0.98,-0.45,-1.91,0.13,0.04,-0.43,
0.3,0.98,-0.45,-1.91,0.12,0.06,-0.43,
0.3,0.92,-0.38,-1.82,0.12,0.06,-0.43,
0.303,0.92,-0.38,-1.82,0.11,0.07,-0.44,
0.306,0.87,-0.35,-1.70,0.11,0.07,-0.44,
0.306,0.87,-0.35,-1.70,0.11,0.09,-0.44,
0.309,0.87,-0.35,-1.70,0.10,0.10,-0.44,
0.31,0.76,-0.28,-1.57,0.10,0.10,-0.44,
0.31,0.76,-0.28,-1.57,0.10,0.11,-0.43,
0.313,0.76,-0.28,-1.57,0.10,0.12,-0.43,
0.315,0.76,-0.28,-1.57,0.09,0.13,-0.43,
0.315,0.66,-0.20,-1.42,0.09,0.13,-0.43,
0.317,0.66,-0.20,-1.42,0.09,0.14,-0.42,
0.32,0.66,-0.20,-1.42,0.09,0.15,-0.42,
0.32,0.57,-0.13,-1.28,0.09,0.15,-0.42,
0.322,0.57,-0.13,-1.28,0.09,0.16,-0.41,
0.325,0.45,-0.07,-1.14,0.09,0.16,-0.41,
0.326,0.45,-0.07,-1.14,0.09,0.17,-0.40,
0.327,0.45,-0.07,-1.14,0.09,0.17,-0.39,
0.33,0.35,-0.03,-1.02,0.09,0.17,-0.39,
0.33,0.35,-0.03,-1.02,0.09,0.17,-0.37,
0.332,0.35,-0.03,-1.02,0.09,0.18,-0.36,
0.335,0.35,-0.03,-1.02,0.09,0.18,-0.35,
0.335,0.29,0.00,-0.97,0.09,0.18,-0.35,
0.337,0.29,0.00,-0.97,0.09,0.18,-0.34,
0.34,0.29,0.00,-0.97,0.09,0.18,-0.32,
0.34,0.21,0.02,-0.89,0.09,0.18,-0.32,
0.343,0.21,0.02,-0.89,0.08,0.19,-0.31,
0.345,0.21,0.02,-0.89,0.08,0.19,-0.30,
0.345,0.15,0.03,-0.82,0.08,0.19,-0.30,
0.347,0.15,0.03,-0.82,0.08,0.19,-0.29,
0.35,0.15,0.03,-0.82,0.08,0.18,-0.28,
0.35,0.09,0.03,-0.78,0.08,0.18,-0.28,
0.352,0.09,0.03,-0.78,0.08,0.18,-0.27,
0.354,0.09,0.03,-0.78,0.08,0.17,-0.26,
0.355,0.04,0.02,-0.74,0.08,0.17,-0.26,
0.358,0.04,0.02,-0.74,0.08,0.17,-0.25,
0.36,0.07,0.04,-0.74,0.08,0.17,-0.25,
0.36,0.07,0.04,-0.74,0.08,0.17,-0.24,
0.362,0.07,0.04,-0.74,0.08,0.17,-0.23,
0.364,0.07,0.04,-0.74,0.08,0.17,-0.22,
0.365,0.08,0.03,-0.76,0.08,0.17,-0.22,
0.367,0.08,0.03,-0.76,0.08,0.17,-0.21,
0.369,0.08,0.03,-0.76,0.08,0.17,-0.21,
0.37,0.09,0.05,-0.78,0.08,0.17,-0.21,
0.372,0.09,0.05,-0.78,0.08,0.17,-0.20,
0.375,0.06,0.07,-0.78,0.08,0.17,-0.20,
0.375,0.06,0.07,-0.78,0.08,0.16,-0.20,
0.377,0.06,0.07,-0.78,0.08,0.16,-0.19,
0.38,0.06,0.07,-0.78,0.09,0.16,-0.19,
0.38,0.05,0.06,-0.80,0.09,0.16,-0.19,
0.382,0.05,0.06,-0.80,0.09,0.15,-0.18,
0.385,0.05,0.06,-0.80,0.09,0.15,-0.18,
0.385,0.04,0.06,-0.82,0.09,0.15,-0.18,
0.387,0.04,0.06,-0.82,0.09,0.15,-0.17,
0.389,0.04,0.06,-0.82,0.09,0.14,-0.17,
0.389,0.03,0.07,-0.86,0.09,0.14,-0.17,
0.396,0.03,0.07,-0.86,0.10,0.14,-0.16,
0.396,0.03,0.07,-0.86,0.10,0.13,-0.16,
0.396,0.05,0.11,-0.89,0.10,0.13,-0.16,
0.397,0.05,0.11,-0.89,0.10,0.13,-0.15,
0.399,0.05,0.11,-0.89,0.10,0.13,-0.15,
0.4,0.05,0.15,-0.93,0.10,0.13,-0.15,
0.402,0.05,0.15,-0.93,0.11,0.12,-0.14,
0.404,0.04,0.18,-0.99,0.11,0.12,-0.14,
0.405,0.04,0.18,-0.99,0.11,0.12,-0.14,
0.407,0.04,0.18,-0.99,0.11,0.11,-0.13,
0.412,0.04,0.18,-0.99,0.11,0.11,-0.13,
0.429,0.04,0.18,-0.99,0.12,0.11,-0.12,
0.429,0.04,0.20,-1.07,0.12,0.11,-0.12,
0.43,0.06,0.23,-1.18,0.12,0.11,-0.12,
0.43,0.06,0.23,-1.18,0.12,0.11,-0.12,
0.43,0.06,0.23,-1.18,0.12,0.11,-0.12,
0.43,0.07,0.26,-1.27,0.12,0.11,-0.12,
0.43,0.07,0.26,-1.27,0.12,0.11,-0.11,
0.43,0.07,0.26,-1.27,0.12,0.12,-0.11,
0.431,0.06,0.27,-1.38,0.12,0.12,-0.11,
0.431,0.06,0.27,-1.38,0.11,0.13,-0.11,
0.431,0.06,0.27,-1.38,0.11,0.14,-0.10,
0.431,0.06,0.27,-1.38,0.10,0.15,-0.10,
0.431,0.06,0.30,-1.45,0.10,0.15,-0.10,
0.431,0.06,0.30,-1.45,0.10,0.16,-0.10,
0.434,0.06,0.30,-1.45,0.09,0.17,-0.09,
0.434,0.04,0.33,-1.48,0.09,0.17,-0.09,
0.436,0.04,0.33,-1.48,0.08,0.18,-0.09,
0.439,0.04,0.33,-1.48,0.07,0.19,-0.09,
0.439,-0.01,0.36,-1.49,0.07,0.19,-0.09,
0.442,-0.01,0.36,-1.49,0.07,0.20,-0.08,
0.444,-0.01,0.36,-1.49,0.06,0.21,-0.08,
0.444,-0.05,0.42,-1.46,0.06,0.21,-0.08,
0.446,-0.05,0.42,-1.46,0.05,0.22,-0.07,
0.449,-0.05,0.42,-1.46,0.04,0.23,-0.07,
0.449,-0.13,0.46,-1.43,0.04,0.23,-0.07,
0.451,-0.13,0.46,-1.43,0.03,0.24,-0.07,
0.454,-0.13,0.46,-1.43,0.01,0.25,-0.06,
0.454,-0.16,0.49,-1.40,0.01,0.25,-0.06,
0.456,-0.16,0.49,-1.40,-0.00,0.26,-0.05,
0.459,-0.16,0.49,-1.40,-0.02,0.27,-0.05,
0.459,-0.17,0.53,-1.37,-0.02,0.27,-0.05,
0.461,-0.17,0.53,-1.37,-0.04,0.28,-0.04,
0.464,-0.17,0.53,-1.37,-0.06,0.29,-0.03,
0.464,-0.17,0.53,-1.33,-0.06,0.29,-0.03,
0.466,-0.17,0.53,-1.33,-0.08,0.29,-0.03,
0.469,-0.17,0.53,-1.33,-0.11,0.29,-0.02,
0.469,-0.14,0.53,-1.27,-0.11,0.29,-0.02,
0.471,-0.14,0.53,-1.27,-0.13,0.30,-0.02,
0.474,-0.14,0.53,-1.27,-0.16,0.30,-0.01,
0.477,-0.12,0.55,-1.17,-0.16,0.30,-0.01,
0.477,-0.12,0.55,-1.17,-0.18,0.31,-0.01,
0.481,-0.12,0.55,-1.17,-0.21,0.31,-0.00,
0.482,-0.14,0.57,-1.07,-0.21,0.31,-0.00,
0.483,-0.14,0.57,-1.07,-0.24,0.32,0.00,
0.484,-0.21,0.59,-0.95,-0.24,0.32,0.00,
0.485,-0.21,0.59,-0.95,-0.26,0.33,0.00,
0.486,-0.21,0.59,-0.95,-0.29,0.35,0.01,
0.488,-0.21,0.59,-0.95,-0.32,0.36,0.02,
0.489,-0.33,0.60,-0.82,-0.32,0.36,0.02,
0.494,-0.33,0.60,-0.82,-0.34,0.37,0.03,
0.494,-0.33,0.60,-0.82,-0.36,0.38,0.04,
0.495,-0.47,0.59,-0.65,-0.36,0.38,0.04,
0.496,-0.47,0.59,-0.65,-0.39,0.39,0.06,
0.5,-0.61,0.58,-0.53,-0.39,0.39,0.06,
0.5,-0.61,0.58,-0.53,-0.41,0.40,0.08,
0.504,-0.72,0.61,-0.30,-0.41,0.40,0.08,
0.504,-0.72,0.61,-0.30,-0.43,0.40,0.10,
0.504,-0.72,0.61,-0.30,-0.45,0.41,0.12,
0.506,-0.72,0.61,-0.30,-0.47,0.41,0.14,
0.509,-0.82,0.58,-0.04,-0.47,0.41,0.14,
0.509,-0.82,0.58,-0.04,-0.48,0.40,0.16,
0.511,-0.82,0.58,-0.04,-0.50,0.39,0.19,
0.513,-0.91,0.51,0.21,-0.50,0.39,0.19,
0.513,-0.91,0.51,0.21,-0.51,0.38,0.21,
0.515,-0.91,0.51,0.21,-0.52,0.36,0.23,
0.518,-0.91,0.51,0.21,-0.53,0.34,0.26,
0.518,-0.92,0.44,0.39,-0.53,0.34,0.26,
0.521,-0.92,0.44,0.39,-0.54,0.32,0.27,
0.523,-0.92,0.44,0.39,-0.55,0.30,0.29,
0.523,-0.84,0.37,0.52,-0.55,0.30,0.29,
0.525,-0.84,0.37,0.52,-0.56,0.28,0.30,
0.528,-0.84,0.37,0.52,-0.57,0.26,0.31,
0.528,-0.71,0.31,0.55,-0.57,0.26,0.31,
0.53,-0.71,0.31,0.55,-0.58,0.25,0.31,
0.533,-0.53,0.29,0.58,-0.58,0.25,0.31,
0.533,-0.53,0.29,0.58,-0.59,0.23,0.31,
0.536,-0.53,0.29,0.58,-0.60,0.21,0.30,
0.538,-0.38,0.35,0.62,-0.60,0.21,0.30,
0.538,-0.38,0.35,0.62,-0.61,0.20,0.29,
0.543,-0.38,0.35,0.62,-0.62,0.19,0.28,
0.543,-0.29,0.41,0.63,-0.62,0.19,0.28,
0.544,-0.29,0.41,0.63,-0.63,0.17,0.26,
0.548,-0.29,0.41,0.63,-0.64,0.18,0.24,
0.549,-0.29,0.41,0.63,-0.62,0.26,0.19,
0.549,-0.30,0.16,0.37,-0.62,0.26,0.19,
0.55,-0.30,0.16,0.37,-0.58,0.35,0.12,
0.553,0.01,0.31,1.06,-0.58,0.35,0.12,
0.553,0.01,0.31,1.06,-0.54,0.38,0.07,
0.555,0.01,0.31,1.06,-0.53,0.35,0.05,
0.56,0.08,0.79,1.64,-0.53,0.35,0.05,
0.56,0.08,0.79,1.64,-0.55,0.27,0.04,
0.561,0.08,0.79,1.64,-0.58,0.17,0.06,
0.566,0.08,0.79,1.64,-0.63,0.11,0.08,
0.567,-0.17,0.87,1.51,-0.63,0.11,0.08,
0.57,-0.17,0.87,1.51,-0.67,0.07,0.10,
0.571,-0.17,0.87,1.51,-0.70,0.06,0.12,
0.571,-0.58,0.54,1.19,-0.70,0.06,0.12,
0.571,-0.58,0.54,1.19,-0.73,0.06,0.14,
0.573,-0.58,0.54,1.19,-0.75,0.07,0.15,
0.573,-0.86,0.41,1.23,-0.75,0.07,0.15,
0.592,-0.86,0.41,1.23,-0.76,0.07,0.17,
0.592,-0.84,0.56,1.68,-0.76,0.07,0.17,
0.593,-0.84,0.56,1.68,-0.77,0.06,0.17,
0.593,-0.84,0.56,1.68,-0.77,0.04,0.18,
0.593,-0.84,0.56,1.68,-0.77,0.02,0.18,
0.593,-0.69,0.84,2.07,-0.77,0.02,0.18,
0.593,-0.69,0.84,2.07,-0.77,-0.00,0.18,
0.593,-0.69,0.84,2.07,-0.76,-0.02,0.17,
0.594,-0.54,1.02,2.22,-0.76,-0.02,0.17,
0.594,-0.54,1.02,2.22,-0.75,-0.02,0.17,
0.605,-0.54,1.02,2.22,-0.74,-0.01,0.17,
0.606,-0.51,1.09,2.07,-0.74,-0.01,0.17,
0.607,-0.51,1.09,2.07,-0.73,0.00,0.17,
0.607,-0.51,1.09,2.07,-0.73,0.03,0.18,
0.608,-0.62,1.06,1.81,-0.73,0.03,0.18,
0.608,-0.62,1.06,1.81,-0.73,0.06,0.19,
0.609,-0.86,0.93,1.66,-0.73,0.06,0.19,
0.609,-0.86,0.93,1.66,-0.74,0.09,0.21,
0.609,-0.86,0.93,1.66,-0.76,0.13,0.23,
0.61,-1.18,0.75,1.61,-0.76,0.13,0.23,
0.61,-1.18,0.75,1.61,-0.77,0.16,0.25,
0.611,-1.18,0.75,1.61,-0.79,0.19,0.28,
0.613,-1.18,0.75,1.61,-0.81,0.22,0.31,
0.613,-1.54,0.56,1.67,-0.81,0.22,0.31,
0.615,-1.54,0.56,1.67,-0.83,0.24,0.34,
0.617,-1.54,0.56,1.67,-0.85,0.27,0.38,
0.618,-1.88,0.41,1.85,-0.85,0.27,0.38,
0.621,-1.88,0.41,1.85,-0.86,0.28,0.42,
0.622,-1.88,0.41,1.85,-0.88,0.30,0.46,
0.623,-2.17,0.23,2.13,-0.88,0.30,0.46,
0.629,-2.17,0.23,2.13,-0.88,0.31,0.51,
0.63,-2.37,0.03,2.43,-0.88,0.31,0.51,
0.63,-2.37,0.03,2.43,-0.88,0.33,0.55,
0.637,-2.37,0.03,2.43,-0.87,0.34,0.59,
0.638,-2.45,-0.20,2.73,-0.87,0.34,0.59,
0.638,-2.45,-0.20,2.73,-0.86,0.34,0.63,
0.638,-2.45,-0.20,2.73,-0.85,0.33,0.66,
0.639,-2.45,-0.20,2.73,-0.83,0.32,0.69,
0.639,-2.42,-0.43,3.00,-0.83,0.32,0.69,
0.64,-2.42,-0.43,3.00,-0.81,0.30,0.72,
0.645,-2.32,-0.63,3.24,-0.81,0.30,0.72,
0.646,-2.32,-0.63,3.24,-0.78,0.27,0.74,
0.646,-2.32,-0.63,3.24,-0.75,0.24,0.76,
0.647,-2.14,-0.77,3.39,-0.75,0.24,0.76,
0.647,-2.14,-0.77,3.39,-0.72,0.20,0.78,
0.649,-2.14,-0.77,3.39,-0.69,0.17,0.78,
0.652,-2.14,-0.77,3.39,-0.66,0.13,0.79,
0.652,-1.84,-0.89,3.42,-0.66,0.13,0.79,
0.654,-1.84,-0.89,3.42,-0.62,0.10,0.79,
0.658,-1.58,-0.97,3.41,-0.62,0.10,0.79,
0.659,-1.58,-0.97,3.41,-0.58,0.06,0.79,
0.661,-1.58,-0.97,3.41,-0.54,0.03,0.78,
0.662,-1.58,-0.97,3.41,-0.50,-0.01,0.77,
0.662,-1.38,-1.06,3.31,-0.50,-0.01,0.77,
0.665,-1.38,-1.06,3.31,-0.46,-0.04,0.76,
0.668,-1.38,-1.06,3.31,-0.42,-0.08,0.75,
0.668,-1.22,-1.11,3.16,-0.42,-0.08,0.75,
0.669,-1.22,-1.11,3.16,-0.38,-0.11,0.73,
0.672,-1.22,-1.11,3.16,-0.34,-0.14,0.72,
0.672,-1.13,-1.18,2.94,-0.34,-0.14,0.72,
0.676,-1.13,-1.18,2.94,-0.31,-0.17,0.70,
0.677,-1.13,-1.18,2.94,-0.27,-0.20,0.69,
0.677,-1.09,-1.22,2.65,-0.27,-0.20,0.69,
0.679,-1.09,-1.22,2.65,-0.23,-0.23,0.67,
0.682,-1.04,-1.22,2.37,-0.23,-0.23,0.67,
0.682,-1.04,-1.22,2.37,-0.20,-0.26,0.66,
0.684,-1.04,-1.22,2.37,-0.16,-0.29,0.65,
0.687,-1.04,-1.22,2.37,-0.13,-0.31,0.64,
0.687,-1.00,-1.19,2.08,-0.13,-0.31,0.64,
0.689,-1.00,-1.19,2.08,-0.10,-0.34,0.63,
0.692,-1.00,-1.19,2.08,-0.07,-0.36,0.63,
0.692,-0.95,-1.10,1.75,-0.07,-0.36,0.63,
0.694,-0.95,-1.10,1.75,-0.04,-0.37,0.63,
0.697,-0.95,-1.10,1.75,-0.01,-0.39,0.62,
0.697,-0.88,-1.03,1.40,-0.01,-0.39,0.62,
0.699,-0.88,-1.03,1.40,0.01,-0.39,0.63,
0.702,-0.88,-1.03,1.40,0.04,-0.39,0.63,
0.702,-0.80,-0.96,1.04,0.04,-0.39,0.63,
0.704,-0.80,-0.96,1.04,0.06,-0.39,0.63,
0.707,-0.80,-0.96,1.04,0.09,-0.39,0.64,
0.707,-0.69,-0.88,0.69,0.09,-0.39,0.64,
0.714,-0.69,-0.88,0.69,0.11,-0.39,0.64,
0.716,-0.69,-0.88,0.69,0.13,-0.38,0.64,
0.717,-0.58,-0.82,0.36,0.13,-0.38,0.64,
0.718,-0.58,-0.82,0.36,0.14,-0.37,0.64,
0.718,-0.58,-0.82,0.36,0.16,-0.36,0.64,
0.719,-0.46,-0.77,0.04,0.16,-0.36,0.64,
0.72,-0.46,-0.77,0.04,0.17,-0.34,0.64,
0.723,-0.46,-0.77,0.04,0.18,-0.31,0.65,
0.726,-0.34,-0.73,-0.28,0.18,-0.31,0.65,
0.727,-0.34,-0.73,-0.28,0.19,-0.28,0.64,
0.727,-0.34,-0.73,-0.28,0.20,-0.26,0.64,
0.727,-0.28,-0.68,-0.54,0.20,-0.26,0.64,
0.735,-0.28,-0.68,-0.54,0.21,-0.23,0.65,
0.737,-0.28,-0.68,-0.54,0.21,-0.20,0.65,
0.737,-0.23,-0.62,-0.73,0.21,-0.20,0.65,
0.737,-0.23,-0.62,-0.73,0.20,-0.17,0.65,
0.738,-0.23,-0.62,-0.73,0.20,-0.14,0.65,
0.738,-0.21,-0.58,-0.88,0.20,-0.14,0.65,
0.741,-0.21,-0.58,-0.88,0.19,-0.11,0.66,
0.767,-0.21,-0.59,-0.91,0.19,-0.11,0.66,
0.767,-0.21,-0.59,-0.91,0.19,-0.09,0.66,
0.767,-0.21,-0.59,-0.91,0.18,-0.06,0.67,
0.768,-0.21,-0.59,-0.91,0.18,-0.04,0.67,
0.768,-0.21,-0.59,-0.91,0.17,-0.02,0.68,
0.768,-0.23,-0.63,-0.93,0.17,-0.02,0.68,
0.769,-0.23,-0.63,-0.93,0.16,0.00,0.68,
0.769,-0.23,-0.65,-0.91,0.16,0.00,0.68,
0.769,-0.23,-0.65,-0.91,0.16,0.02,0.69,
0.769,-0.23,-0.65,-0.91,0.16,0.03,0.69,
0.77,-0.24,-0.67,-0.86,0.16,0.03,0.69,
0.77,-0.24,-0.67,-0.86,0.15,0.05,0.69,
0.77,-0.24,-0.67,-0.86,0.16,0.05,0.69,
0.77,-0.24,-0.67,-0.86,0.15,0.06,0.70,
0.771,-0.23,-0.69,-0.77,0.15,0.06,0.70,
0.771,-0.23,-0.69,-0.77,0.16,0.05,0.70,
0.771,-0.24,-0.65,-0.77,0.16,0.05,0.70,
0.771,-0.24,-0.65,-0.77,0.16,0.05,0.69,
0.772,-0.24,-0.65,-0.78,0.16,0.05,0.69,
0.772,-0.24,-0.65,-0.78,0.15,0.04,0.70,
0.774,-0.24,-0.65,-0.78,0.16,0.03,0.70,
0.776,-0.24,-0.65,-0.78,0.16,0.02,0.69,
0.777,-0.25,-0.66,-0.82,0.16,0.02,0.69,
0.779,-0.25,-0.66,-0.82,0.16,0.01,0.69,
0.781,-0.25,-0.66,-0.82,0.16,-0.01,0.69,
0.781,-0.21,-0.64,-0.87,0.16,-0.01,0.69,
0.783,-0.21,-0.64,-0.87,0.15,-0.02,0.69,
0.786,-0.21,-0.64,-0.87,0.15,-0.04,0.69,
0.787,-0.18,-0.60,-0.96,0.15,-0.04,0.69,
0.788,-0.18,-0.60,-0.96,0.15,-0.05,0.68,
0.791,-0.18,-0.60,-0.96,0.15,-0.06,0.67,
0.791,-0.18,-0.54,-1.06,0.15,-0.06,0.67,
0.794,-0.18,-0.54,-1.06,0.15,-0.08,0.67,
0.796,-0.18,-0.54,-1.06,0.15,-0.09,0.66,
0.796,-0.14,-0.45,-1.16,0.15,-0.09,0.66,
0.798,-0.14,-0.45,-1.16,0.15,-0.11,0.66,
0.801,-0.14,-0.45,-1.16,0.15,-0.12,0.65,
0.801,-0.12,-0.34,-1.23,0.15,-0.12,0.65,
0.803,-0.12,-0.34,-1.23,0.16,-0.13,0.65,
0.806,-0.12,-0.34,-1.23,0.16,-0.13,0.64,
0.806,-0.13,-0.24,-1.37,0.16,-0.13,0.64,
0.811,-0.13,-0.24,-1.37,0.17,-0.12,0.64,
0.812,-0.19,-0.27,-1.89,0.17,-0.12,0.64,
0.812,-0.19,-0.27,-1.89,0.19,-0.06,0.63,
0.814,-0.19,-0.27,-1.89,0.21,-0.01,0.62,
0.816,-0.03,-0.13,-1.72,0.21,-0.01,0.62,
0.816,-0.03,-0.13,-1.72,0.22,0.00,0.62,
0.818,-0.03,-0.13,-1.72,0.23,-0.00,0.62,
0.821,-0.03,-0.13,-1.72,0.24,0.01,0.62,
0.821,-0.14,-0.06,-1.77,0.24,0.01,0.62,
0.825,-0.14,-0.06,-1.77,0.26,0.06,0.60,
0.829,-0.14,-0.06,-1.77,0.28,0.10,0.59,
0.83,-0.10,0.01,-1.58,0.28,0.10,0.59,
0.83,-0.10,0.01,-1.58,0.29,0.10,0.58,
0.837,0.01,0.20,-1.29,0.29,0.10,0.58,
0.837,-0.07,0.22,-1.43,0.29,0.10,0.58,
0.837,-0.07,0.22,-1.43,0.28,0.08,0.59,
0.837,-0.07,0.22,-1.43,0.27,0.05,0.60,
0.837,-0.07,0.22,-1.43,0.26,0.02,0.62,
0.838,-0.07,0.22,-1.43,0.24,-0.00,0.64,
0.841,-0.07,0.22,-1.43,0.23,-0.01,0.67,
0.842,-0.21,0.11,-1.68,0.23,-0.01,0.67,
0.843,-0.21,0.11,-1.68,0.22,-0.01,0.69,
0.845,-0.25,0.11,-1.82,0.22,-0.01,0.69,
0.846,-0.25,0.11,-1.82,0.20,-0.01,0.71,
0.848,-0.25,0.11,-1.82,0.19,-0.00,0.73,
0.85,-0.25,0.11,-1.82,0.18,0.00,0.75,
0.85,-0.24,0.17,-1.83,0.18,0.00,0.75,
0.853,-0.24,0.17,-1.83,0.17,0.01,0.76,
0.855,-0.24,0.17,-1.83,0.15,0.01,0.77,
0.855,-0.18,0.20,-1.76,0.15,0.01,0.77,
0.858,-0.18,0.20,-1.76,0.14,0.01,0.77,
0.862,-0.13,0.21,-1.70,0.14,0.01,0.77,
0.865,-0.13,0.21,-1.70,0.13,0.01,0.78,
0.866,-0.13,0.21,-1.70,0.11,0.01,0.78,
0.866,-0.13,0.21,-1.70,0.09,0.01,0.78,
0.866,-0.08,0.16,-1.60,0.09,0.01,0.78,
0.868,-0.08,0.16,-1.60,0.08,0.01,0.78,
0.87,-0.08,0.16,-1.60,0.06,0.00,0.78,
0.87,-0.07,0.11,-1.49,0.06,0.00,0.78,
0.873,-0.07,0.11,-1.49,0.04,-0.01,0.78,
0.876,-0.07,0.11,-1.49,0.02,-0.01,0.78,
0.877,-0.12,0.02,-1.37,0.02,-0.01,0.78,
0.878,-0.12,0.02,-1.37,-0.00,-0.02,0.78,
0.882,-0.12,0.02,-1.37,-0.02,-0.03,0.78,
0.882,-0.10,-0.04,-1.26,-0.02,-0.03,0.78,
0.882,-0.10,-0.04,-1.26,-0.04,-0.05,0.78,
0.885,-0.09,-0.10,-1.16,-0.04,-0.05,0.78,
0.886,-0.09,-0.10,-1.16,-0.05,-0.05,0.77,
0.887,-0.09,-0.10,-1.16,-0.07,-0.07,0.76,
0.89,-0.09,-0.10,-1.16,-0.08,-0.08,0.75,
0.89,-0.07,-0.14,-1.04,-0.08,-0.08,0.75,
0.898,-0.07,-0.14,-1.04,-0.09,-0.10,0.74,
0.899,-0.07,-0.15,-0.90,-0.09,-0.10,0.74,
0.9,-0.07,-0.15,-0.90,-0.10,-0.12,0.72,
0.9,-0.07,-0.15,-0.90,-0.10,-0.13,0.71,
0.907,-0.11,-0.13,-0.78,-0.10,-0.13,0.71,
0.908,-0.10,-0.12,-0.71,-0.10,-0.13,0.71,
0.908,-0.10,-0.12,-0.71,-0.11,-0.16,0.69,
0.909,-0.10,-0.12,-0.71,-0.10,-0.17,0.67,
0.937,-0.10,-0.12,-0.71,-0.10,-0.19,0.65,
0.938,-0.10,-0.12,-0.71,-0.09,-0.20,0.64,
0.938,-0.10,-0.12,-0.71,-0.09,-0.21,0.61,
0.938,-0.10,-0.09,-0.69,-0.09,-0.21,0.61,
0.939,-0.10,-0.09,-0.69,-0.08,-0.22,0.59,
0.939,-0.10,-0.09,-0.69,-0.07,-0.22,0.57,
0.939,-0.07,-0.08,-0.69,-0.07,-0.22,0.57,
0.94,-0.07,-0.08,-0.69,-0.06,-0.23,0.55,
0.94,-0.11,-0.00,-0.67,-0.06,-0.23,0.55,
0.94,-0.11,-0.00,-0.67,-0.05,-0.23,0.52,
0.941,-0.11,-0.00,-0.67,-0.05,-0.23,0.50,
0.941,-0.14,0.09,-0.68,-0.05,-0.23,0.50,
0.941,-0.14,0.09,-0.68,-0.04,-0.23,0.48,
0.942,-0.14,0.09,-0.68,-0.03,-0.22,0.46,
0.942,-0.14,0.09,-0.68,-0.02,-0.22,0.43,
0.942,-0.20,0.19,-0.67,-0.02,-0.22,0.43,
0.943,-0.20,0.19,-0.67,-0.01,-0.22,0.41,
0.943,-0.23,0.30,-0.67,-0.01,-0.22,0.41,
0.943,-0.23,0.30,-0.67,-0.00,-0.22,0.40,
0.943,-0.23,0.30,-0.67,0.01,-0.21,0.38,
0.944,-0.23,0.30,-0.67,0.01,-0.20,0.37,
0.944,-0.31,0.40,-0.68,0.01,-0.20,0.37,
0.944,-0.31,0.40,-0.68,0.02,-0.18,0.35,
0.945,-0.36,0.49,-0.68,0.02,-0.18,0.35,
0.945,-0.36,0.49,-0.68,0.03,-0.17,0.34,
0.949,-0.36,0.49,-0.68,0.04,-0.16,0.33,
0.95,-0.36,0.49,-0.68,0.05,-0.13,0.32,
0.951,-0.46,0.58,-0.69,0.05,-0.13,0.32,
0.952,-0.46,0.58,-0.69,0.05,-0.11,0.32,
0.955,-0.51,0.65,-0.68,0.05,-0.11,0.32,
0.955,-0.51,0.65,-0.68,0.06,-0.09,0.31,
0.957,-0.51,0.65,-0.68,0.07,-0.07,0.31,
0.963,-0.53,0.71,-0.67,0.07,-0.07,0.31,
0.963,-0.53,0.71,-0.67,0.07,-0.05,0.31,
0.964,-0.53,0.71,-0.67,0.08,-0.03,0.31,
0.965,-0.53,0.71,-0.67,0.09,-0.02,0.31,
0.965,-0.55,0.74,-0.62,0.09,-0.02,0.31,
0.968,-0.55,0.74,-0.62,0.11,0.00,0.31,
0.969,-0.54,0.76,-0.55,0.11,0.00,0.31,
0.97,-0.54,0.76,-0.55,0.12,0.02,0.30,
0.972,-0.54,0.76,-0.55,0.14,0.04,0.30,
0.974,-0.54,0.76,-0.55,0.16,0.06,0.30,
0.975,-0.53,0.79,-0.46,0.16,0.06,0.30,
0.977,-0.53,0.79,-0.46,0.18,0.07,0.30,
0.979,-0.53,0.79,-0.46,0.20,0.09,0.29,
0.98,-0.50,0.78,-0.41,0.20,0.09,0.29,
0.982,-0.50,0.78,-0.41,0.23,0.11,0.28,
0.984,-0.50,0.78,-0.41,0.26,0.12,0.28,
0.984,-0.43,0.76,-0.38,0.26,0.12,0.28,
0.987,-0.43,0.76,-0.38,0.29,0.13,0.27,
0.989,-0.43,0.76,-0.38,0.32,0.15,0.26,
0.989,-0.35,0.73,-0.40,0.32,0.15,0.26,
0.992,-0.35,0.73,-0.40,0.35,0.16,0.24,
0.995,-0.23,0.72,-0.41,0.35,0.16,0.24,
0.995,-0.23,0.72,-0.41,0.38,0.18,0.23,
0.996,-0.23,0.72,-0.41,0.42,0.19,0.21,
0.999,-0.23,0.72,-0.41,0.45,0.20,0.19,
0.999,-0.11,0.72,-0.45,0.45,0.20,0.19,
1.001,-0.11,0.72,-0.45,0.49,0.22,0.17,
1.004,-0.11,0.72,-0.45,0.52,0.23,0.15,
1.004,-0.05,0.73,-0.51,0.52,0.23,0.15,
1.007,-0.05,0.73,-0.51,0.55,0.24,0.12,
1.013,-0.00,0.76,-0.59,0.55,0.24,0.12,
1.013,-0.00,0.76,-0.59,0.59,0.26,0.09,
1.014,-0.00,0.76,-0.59,0.62,0.27,0.07,
1.014,-0.00,0.76,-0.59,0.65,0.28,0.04,
1.015,0.00,0.76,-0.68,0.65,0.28,0.04,
1.016,0.00,0.76,-0.68,0.68,0.30,0.02,
1.019,0.00,0.76,-0.68,0.72,0.31,-0.01,
1.019,-0.01,0.75,-0.74,0.72,0.31,-0.01,
1.021,-0.01,0.75,-0.74,0.75,0.33,-0.03,
1.024,-0.01,0.75,-0.74,0.78,0.34,-0.06,
1.025,-0.03,0.74,-0.82,0.78,0.34,-0.06,
1.027,-0.03,0.74,-0.82,0.80,0.35,-0.08,
1.03,-0.03,0.74,-0.82,0.83,0.37,-0.10,
1.03,-0.05,0.75,-0.92,0.83,0.37,-0.10,
1.032,-0.05,0.75,-0.92,0.86,0.38,-0.13,
1.035,-0.05,0.75,-0.92,0.88,0.40,-0.15,
1.035,-0.07,0.79,-1.03,0.88,0.40,-0.15,
1.036,-0.07,0.79,-1.03,0.90,0.42,-0.17,
1.039,-0.07,0.79,-1.03,0.92,0.45,-0.19,
1.039,-0.09,0.87,-1.16,0.92,0.45,-0.19,
1.041,-0.09,0.87,-1.16,0.94,0.47,-0.20,
1.044,-0.09,0.87,-1.16,0.95,0.50,-0.21,
1.044,-0.11,0.94,-1.29,0.95,0.50,-0.21,
1.046,-0.11,0.94,-1.29,0.97,0.54,-0.22,
1.049,-0.11,0.94,-1.29,0.98,0.58,-0.23,
1.049,-0.15,0.98,-1.47,0.98,0.58,-0.23,
1.051,-0.15,0.98,-1.47,0.99,0.62,-0.24,
1.054,-0.15,0.98,-1.47,0.99,0.67,-0.25,
1.054,-0.26,0.97,-1.65,0.99,0.67,-0.25,
1.056,-0.26,0.97,-1.65,1.00,0.72,-0.25,
1.059,-0.26,0.97,-1.65,1.01,0.77,-0.26,
1.059,-0.39,0.93,-1.78,1.01,0.77,-0.26,
1.061,-0.39,0.93,-1.78,1.02,0.82,-0.26,
1.063,-0.39,0.93,-1.78,1.02,0.88,-0.27,
1.064,-0.46,0.86,-1.94,1.02,0.88,-0.27,
1.066,-0.46,0.86,-1.94,1.03,0.95,-0.27,
1.068,-0.46,0.86,-1.94,1.04,1.02,-0.28,
1.069,-0.45,0.84,-2.14,1.04,1.02,-0.28,
1.083,-0.45,0.84,-2.14,1.04,1.10,-0.28,
1.084,-0.31,0.82,-2.38,1.04,1.10,-0.28,
1.084,-0.31,0.82,-2.38,1.06,1.18,-0.29,
1.084,-0.31,0.82,-2.38,1.06,1.27,-0.30,
1.084,-0.09,0.80,-2.65,1.06,1.27,-0.30,
1.085,-0.09,0.80,-2.65,1.07,1.37,-0.30,
1.085,-0.09,0.80,-2.65,1.07,1.47,-0.31,
1.085,-0.09,0.80,-2.65,1.08,1.58,-0.32,
1.085,0.18,0.78,-2.85,1.08,1.58,-0.32,
1.086,0.18,0.78,-2.85,1.08,1.69,-0.33,
1.089,0.18,0.78,-2.85,1.09,1.80,-0.34,
1.089,0.45,0.76,-2.98,1.09,1.80,-0.34,
1.091,0.45,0.76,-2.98,1.10,1.91,-0.35,
1.098,0.45,0.76,-2.98,1.11,2.01,-0.37,
1.099,0.62,0.78,-2.96,1.11,2.01,-0.37,
1.1,0.62,0.78,-2.96,1.13,2.12,-0.38,
1.1,0.68,0.91,-2.73,1.13,2.12,-0.38,
1.1,0.68,0.91,-2.73,1.15,2.22,-0.40,
1.101,0.68,0.91,-2.73,1.17,2.32,-0.41,
1.103,0.68,0.91,-2.73,1.20,2.42,-0.41,
1.103,0.58,1.07,-2.35,1.20,2.42,-0.41,
1.108,0.35,1.21,-1.93,1.20,2.42,-0.41,
1.117,0.35,1.21,-1.93,1.25,2.50,-0.41,
1.118,0.35,1.21,-1.93,1.30,2.58,-0.40,
1.119,0.35,1.21,-1.93,1.36,2.66,-0.38,
1.119,0.35,1.21,-1.93,1.42,2.72,-0.36,
1.119,0.09,1.19,-1.66,1.42,2.72,-0.36,
1.119,0.09,1.19,-1.66,1.49,2.77,-0.33,
1.12,0.09,1.19,-1.66,1.58,2.80,-0.30,
1.12,-0.06,1.01,-1.63,1.58,2.80,-0.30,
1.121,-0.06,1.01,-1.63,1.66,2.83,-0.27,
1.123,-0.07,0.74,-1.89,1.66,2.83,-0.27,
1.123,-0.07,0.74,-1.89,1.75,2.86,-0.25,
1.127,-0.07,0.74,-1.89,1.83,2.89,-0.22,
1.128,-0.07,0.74,-1.89,1.92,2.93,-0.20,
1.128,0.11,0.35,-2.37,1.92,2.93,-0.20,
1.13,0.11,0.35,-2.37,2.00,2.97,-0.18,
1.133,0.11,0.35,-2.37,2.08,3.01,-0.17,
1.133,0.46,-0.06,-2.97,2.08,3.01,-0.17,
1.136,0.46,-0.06,-2.97,2.15,3.07,-0.17,
1.138,0.46,-0.06,-2.97,2.22,3.14,-0.17,
1.138,0.89,-0.45,-3.67,2.22,3.14,-0.17,
1.14,0.89,-0.45,-3.67,2.29,3.22,-0.18,
1.143,0.89,-0.45,-3.67,2.35,3.31,-0.19,
1.144,1.36,-0.82,-4.34,2.35,3.31,-0.19,
1.146,1.36,-0.82,-4.34,2.41,3.42,-0.22,
1.148,1.36,-0.82,-4.34,2.46,3.52,-0.25,
1.148,1.75,-1.21,-4.92,2.46,3.52,-0.25,
1.15,1.75,-1.21,-4.92,2.50,3.64,-0.28,
1.152,1.75,-1.21,-4.92,2.54,3.75,-0.32,
1.153,2.08,-1.64,-5.37,2.54,3.75,-0.32,
1.155,2.08,-1.64,-5.37,2.58,3.87,-0.37,
1.157,2.08,-1.64,-5.37,2.62,3.99,-0.42,
1.157,2.38,-2.10,-5.70,2.62,3.99,-0.42,
1.16,2.38,-2.10,-5.70,2.65,4.10,-0.48,
1.162,2.38,-2.10,-5.70,2.68,4.22,-0.55,
1.163,2.69,-2.58,-5.92,2.68,4.22,-0.55,
1.165,2.69,-2.58,-5.92,2.71,4.34,-0.62,
1.167,2.69,-2.58,-5.92,2.74,4.45,-0.69,
1.167,2.98,-3.01,-6.08,2.74,4.45,-0.69,
1.171,2.98,-3.01,-6.08,2.76,4.56,-0.77,
1.173,2.98,-3.01,-6.08,2.79,4.67,-0.85,
1.173,3.33,-3.44,-6.12,2.79,4.67,-0.85,
1.175,3.33,-3.44,-6.12,2.81,4.77,-0.93,
1.178,3.68,-3.88,-6.16,2.81,4.77,-0.93,
1.179,3.68,-3.88,-6.16,2.83,4.87,-1.02,
1.18,3.68,-3.88,-6.16,2.85,4.97,-1.12,
1.183,3.68,-3.88,-6.16,2.87,5.06,-1.21,
1.183,4.01,-4.29,-6.14,2.87,5.06,-1.21,
1.185,4.01,-4.29,-6.14,2.89,5.15,-1.31,
1.189,4.01,-4.29,-6.14,2.90,5.24,-1.42,
1.189,4.28,-4.70,-6.09,2.90,5.24,-1.42,
1.191,4.28,-4.70,-6.09,2.93,5.31,-1.52,
1.194,4.52,-5.09,-6.07,2.93,5.31,-1.52,
1.195,4.52,-5.09,-6.07,2.95,5.39,-1.63,
1.196,4.52,-5.09,-6.07,2.97,5.47,-1.74,
1.197,4.52,-5.09,-6.07,2.99,5.54,-1.84,
1.2,4.52,-5.09,-6.07,3.01,5.61,-1.95,
1.2,4.68,-5.51,-6.00,3.01,5.61,-1.95,
1.202,4.68,-5.51,-6.00,3.02,5.68,-2.06,
1.203,4.71,-5.92,-5.89,3.02,5.68,-2.06,
1.206,4.71,-5.92,-5.89,3.04,5.75,-2.16,
1.208,4.71,-5.92,-5.89,3.05,5.81,-2.27,
1.208,4.71,-6.24,-5.68,3.05,5.81,-2.27,
1.215,4.71,-6.24,-5.68,3.07,5.86,-2.37,
1.215,4.52,-6.47,-5.33,3.07,5.86,-2.37,
1.215,4.52,-6.47,-5.33,3.08,5.90,-2.47,
1.216,4.52,-6.47,-5.33,3.09,5.92,-2.56,
1.217,4.52,-6.47,-5.33,3.11,5.93,-2.64,
1.217,4.21,-6.65,-4.85,3.11,5.93,-2.64,
1.219,4.21,-6.65,-4.85,3.13,5.92,-2.71,
1.222,4.21,-6.65,-4.85,3.15,5.91,-2.78,
1.222,3.85,-6.88,-4.34,3.15,5.91,-2.78,
1.224,3.85,-6.88,-4.34,3.18,5.88,-2.84,
1.227,3.85,-6.88,-4.34,3.20,5.85,-2.90,
1.228,3.48,-7.14,-3.91,3.20,5.85,-2.90,
1.235,3.10,-7.42,-3.61,3.20,5.85,-2.90,
1.236,3.10,-7.42,-3.61,3.23,5.80,-2.95,
1.236,3.10,-7.42,-3.61,3.26,5.76,-2.99,
1.236,3.10,-7.42,-3.61,3.29,5.70,-3.03,
1.25,3.10,-7.42,-3.61,3.31,5.66,-3.07,
1.25,2.78,-7.65,-3.44,3.31,5.66,-3.07,
1.251,2.78,-7.65,-3.44,3.32,5.60,-3.11,
1.251,2.78,-7.65,-3.44,3.34,5.55,-3.15,
1.251,2.61,-7.80,-3.32,3.34,5.55,-3.15,
1.252,2.61,-7.80,-3.32,3.34,5.50,-3.19,
1.252,2.61,-7.80,-3.32,3.34,5.45,-3.22,
1.252,2.60,-7.90,-3.22,3.34,5.45,-3.22,
1.252,2.60,-7.90,-3.22,3.32,5.39,-3.26,
1.253,2.60,-7.90,-3.22,3.31,5.34,-3.30,
1.253,2.65,-8.06,-3.16,3.31,5.34,-3.30,
1.255,2.65,-8.06,-3.16,3.28,5.28,-3.34,
1.257,2.65,-8.06,-3.16,3.26,5.23,-3.39,
1.257,2.67,-8.29,-3.06,3.26,5.23,-3.39,
1.261,2.67,-8.29,-3.06,3.22,5.17,-3.44,
1.262,2.67,-8.29,-3.06,3.19,5.11,-3.49,
1.262,2.66,-8.55,-2.94,3.19,5.11,-3.49,
1.264,2.66,-8.55,-2.94,3.15,5.05,-3.54,
1.267,2.66,-8.55,-2.94,3.11,4.99,-3.60,
1.267,2.64,-8.88,-2.73,3.11,4.99,-3.60,
1.269,2.64,-8.88,-2.73,3.06,4.92,-3.67,
1.272,2.64,-8.88,-2.73,3.02,4.85,-3.73,
1.272,2.66,-9.23,-2.44,3.02,4.85,-3.73,
1.274,2.66,-9.23,-2.44,2.98,4.77,-3.81,
1.277,2.68,-9.61,-2.13,2.98,4.77,-3.81,
1.278,2.68,-9.61,-2.13,2.93,4.69,-3.89,
1.279,2.68,-9.61,-2.13,2.89,4.61,-3.97,
1.283,2.70,-9.94,-1.83,2.89,4.61,-3.97,
1.283,2.70,-9.94,-1.83,2.85,4.53,-4.05,
1.284,2.70,-9.94,-1.83,2.81,4.44,-4.14,
1.287,2.70,-9.94,-1.83,2.77,4.35,-4.23,
1.287,2.69,-10.23,-1.53,2.77,4.35,-4.23,
1.289,2.69,-10.23,-1.53,2.72,4.26,-4.33,
1.292,2.69,-10.23,-1.53,2.68,4.16,-4.43,
1.292,2.57,-10.55,-1.24,2.68,4.16,-4.43,
1.301,2.57,-10.55,-1.24,2.63,4.06,-4.53,
1.301,2.47,-10.87,-0.85,2.63,4.06,-4.53,
1.302,2.47,-10.87,-0.85,2.58,3.95,-4.64,
1.302,2.47,-10.87,-0.85,2.54,3.84,-4.74,
1.305,2.38,-11.18,-0.46,2.54,3.84,-4.74,
1.305,2.38,-11.18,-0.46,2.49,3.71,-4.85,
1.306,2.38,-11.18,-0.46,2.44,3.59,-4.97,
1.306,2.38,-11.18,-0.46,2.39,3.45,-5.08,
1.307,2.22,-11.47,-0.07,2.39,3.45,-5.08,
1.309,2.22,-11.47,-0.07,2.33,3.32,-5.19,
1.312,1.98,-11.67,0.25,2.33,3.32,-5.19,
1.312,1.98,-11.67,0.25,2.28,3.18,-5.31,
1.314,1.98,-11.67,0.25,2.23,3.05,-5.43,
1.316,1.98,-11.67,0.25,2.17,2.91,-5.54,
1.316,1.68,-11.92,0.56,2.17,2.91,-5.54,
1.318,1.68,-11.92,0.56,2.11,2.76,-5.66,
1.321,1.68,-11.92,0.56,2.05,2.61,-5.77,
1.322,1.39,-12.17,0.89,2.05,2.61,-5.77,
1.323,1.39,-12.17,0.89,1.99,2.45,-5.89,
1.327,1.39,-12.17,0.89,1.92,2.29,-6.00,
1.327,1.04,-12.38,1.17,1.92,2.29,-6.00,
1.331,1.04,-12.38,1.17,1.85,2.12,-6.12,
1.332,0.60,-12.54,1.35,1.85,2.12,-6.12,
1.332,0.60,-12.54,1.35,1.78,1.96,-6.23,
1.334,0.60,-12.54,1.35,1.70,1.81,-6.34,
1.336,0.60,-12.54,1.35,1.62,1.65,-6.45,
1.336,0.08,-12.64,1.46,1.62,1.65,-6.45,
1.339,0.08,-12.64,1.46,1.53,1.50,-6.55,
1.341,0.08,-12.64,1.46,1.44,1.34,-6.65,
1.341,-0.49,-12.71,1.57,1.44,1.34,-6.65,
1.344,-0.49,-12.71,1.57,1.34,1.19,-6.74,
1.346,-1.12,-12.75,1.66,1.34,1.19,-6.74,
1.346,-1.12,-12.75,1.66,1.24,1.04,-6.83,
1.349,-1.12,-12.75,1.66,1.14,0.89,-6.92,
1.352,-1.95,-12.76,1.69,1.14,0.89,-6.92,
1.352,-1.95,-12.76,1.69,1.03,0.75,-6.99,
1.355,-1.95,-12.76,1.69,0.91,0.61,-7.05,
1.356,-1.95,-12.76,1.69,0.79,0.47,-7.11,
1.356,-2.99,-12.72,1.68,0.79,0.47,-7.11,
1.362,-4.12,-12.68,1.62,0.79,0.47,-7.11,
1.363,-4.12,-12.68,1.62,0.66,0.34,-7.15,
1.363,-4.12,-12.68,1.62,0.53,0.21,-7.18,
1.363,-4.12,-12.68,1.62,0.40,0.08,-7.19,
1.366,-4.12,-12.68,1.62,0.26,-0.05,-7.20,
1.366,-5.10,-12.68,1.57,0.26,-0.05,-7.20,
1.368,-5.10,-12.68,1.57,0.12,-0.17,-7.19,
1.371,-5.10,-12.68,1.57,-0.03,-0.29,-7.18,
1.371,-5.92,-12.71,1.53,-0.03,-0.29,-7.18,
1.373,-5.92,-12.71,1.53,-0.17,-0.40,-7.16,
1.376,-6.66,-12.82,1.48,-0.17,-0.40,-7.16,
1.378,-6.66,-12.82,1.48,-0.32,-0.50,-7.14,
1.379,-6.66,-12.82,1.48,-0.47,-0.60,-7.11,
1.381,-6.66,-12.82,1.48,-0.62,-0.70,-7.08,
1.381,-7.31,-13.04,1.46,-0.62,-0.70,-7.08,
1.383,-7.31,-13.04,1.46,-0.77,-0.78,-7.05,
1.386,-7.31,-13.04,1.46,-0.92,-0.86,-7.03,
1.386,-7.81,-13.32,1.48,-0.92,-0.86,-7.03,
1.389,-7.81,-13.32,1.48,-1.06,-0.93,-7.01,
1.391,-8.34,-13.58,1.63,-1.06,-0.93,-7.01,
1.392,-8.34,-13.58,1.63,-1.21,-0.99,-7.00,
1.396,-8.34,-13.58,1.63,-1.34,-1.04,-6.99,
1.397,-8.88,-13.68,1.75,-1.34,-1.04,-6.99,
1.398,-8.88,-13.68,1.75,-1.48,-1.08,-6.98,
1.403,-8.88,-13.68,1.75,-1.61,-1.10,-6.97,
1.403,-9.33,-13.60,1.87,-1.61,-1.10,-6.97,
1.426,-9.33,-13.60,1.87,-1.74,-1.11,-6.96,
1.427,-9.33,-13.60,1.87,-1.86,-1.12,-6.96,
1.427,-9.33,-13.60,1.87,-1.98,-1.12,-6.95,
1.427,-9.76,-13.35,2.07,-1.98,-1.12,-6.95,
1.427,-9.76,-13.35,2.07,-2.09,-1.12,-6.94,
1.428,-10.13,-13.01,2.28,-2.09,-1.12,-6.94,
1.428,-10.13,-13.01,2.28,-2.20,-1.12,-6.93,
1.429,-10.13,-13.01,2.28,-2.30,-1.11,-6.92,
1.429,-10.13,-13.01,2.28,-2.38,-1.09,-6.90,
1.429,-10.45,-12.54,2.57,-2.38,-1.09,-6.90,
1.429,-10.45,-12.54,2.57,-2.47,-1.07,-6.88,
1.43,-10.45,-12.54,2.57,-2.55,-1.03,-6.85,
1.43,-10.73,-11.98,2.89,-2.55,-1.03,-6.85,
1.43,-10.73,-11.98,2.89,-2.62,-0.99,-6.82,
1.431,-10.73,-11.98,2.89,-2.69,-0.94,-6.79,
1.431,-11.03,-11.29,3.32,-2.69,-0.94,-6.79,
1.431,-11.03,-11.29,3.32,-2.74,-0.89,-6.75,
1.432,-11.25,-10.48,3.89,-2.74,-0.89,-6.75,
1.432,-11.25,-10.48,3.89,-2.79,-0.83,-6.70,
1.433,-11.25,-10.48,3.89,-2.83,-0.77,-6.65,
1.438,-11.49,-9.59,4.54,-2.83,-0.77,-6.65,
1.438,-11.49,-9.59,4.54,-2.86,-0.71,-6.60,
1.438,-11.49,-9.59,4.54,-2.87,-0.65,-6.53,
1.44,-11.49,-9.59,4.54,-2.88,-0.59,-6.46,
1.441,-11.77,-8.65,5.19,-2.88,-0.59,-6.46,
1.444,-11.77,-8.65,5.19,-2.88,-0.53,-6.38,
1.447,-11.77,-8.65,5.19,-2.86,-0.48,-6.29,
1.447,-12.11,-7.69,5.87,-2.86,-0.48,-6.29,
1.449,-12.11,-7.69,5.87,-2.84,-0.43,-6.20,
1.451,-12.40,-6.67,6.54,-2.84,-0.43,-6.20,
1.452,-12.40,-6.67,6.54,-2.80,-0.39,-6.09,
1.452,-12.40,-6.67,6.54,-2.76,-0.36,-5.98,
1.456,-12.66,-5.66,7.18,-2.76,-0.36,-5.98,
1.456,-12.66,-5.66,7.18,-2.70,-0.33,-5.87,
1.457,-12.66,-5.66,7.18,-2.64,-0.31,-5.74,
1.462,-12.92,-4.64,7.78,-2.64,-0.31,-5.74,
1.462,-12.92,-4.64,7.78,-2.57,-0.30,-5.61,
1.464,-12.92,-4.64,7.78,-2.49,-0.30,-5.47,
1.467,-13.16,-3.70,8.34,-2.49,-0.30,-5.47,
1.467,-13.16,-3.70,8.34,-2.40,-0.32,-5.33,
1.467,-13.16,-3.70,8.34,-2.30,-0.34,-5.19,
1.471,-13.37,-2.79,8.75,-2.30,-0.34,-5.19,
1.471,-13.37,-2.79,8.75,-2.19,-0.37,-5.04,
1.472,-13.37,-2.79,8.75,-2.08,-0.42,-4.88,
1.475,-13.37,-2.79,8.75,-1.96,-0.46,-4.72,
1.475,-13.47,-1.88,8.92,-1.96,-0.46,-4.72,
1.48,-13.47,-1.88,8.92,-1.85,-0.51,-4.55,
1.48,-13.43,-1.04,8.88,-1.85,-0.51,-4.55,
1.481,-13.43,-1.04,8.88,-1.73,-0.56,-4.38,
1.482,-13.43,-1.04,8.88,-1.61,-0.62,-4.20,
1.485,-13.24,-0.31,8.68,-1.61,-0.62,-4.20,
1.485,-13.24,-0.31,8.68,-1.50,-0.68,-4.03,
1.487,-13.24,-0.31,8.68,-1.40,-0.74,-3.85,
1.497,-12.93,0.29,8.31,-1.40,-0.74,-3.85,
1.499,-12.93,0.29,8.31,-1.29,-0.80,-3.67,
1.499,-12.93,0.29,8.31,-1.19,-0.87,-3.49,
1.5,-12.93,0.29,8.31,-1.10,-0.93,-3.31,
1.501,-12.50,0.73,7.81,-1.10,-0.93,-3.31,
1.501,-12.50,0.73,7.81,-1.01,-0.99,-3.14,
1.502,-11.97,0.94,7.15,-1.01,-0.99,-3.14,
1.502,-11.97,0.94,7.15,-0.94,-1.04,-2.97,
1.503,-11.97,0.94,7.15,-0.86,-1.10,-2.81,
1.507,-11.36,0.95,6.47,-0.86,-1.10,-2.81,
1.508,-11.36,0.95,6.47,-0.80,-1.16,-2.66,
1.508,-11.36,0.95,6.47,-0.74,-1.22,-2.51,
1.51,-11.36,0.95,6.47,-0.70,-1.27,-2.38,
1.511,-10.69,0.82,5.70,-0.70,-1.27,-2.38,
1.516,-10.69,0.82,5.70,-0.65,-1.33,-2.25,
1.517,-10.69,0.82,5.70,-0.62,-1.39,-2.13,
1.518,-10.01,0.58,4.96,-0.62,-1.39,-2.13,
1.518,-10.01,0.58,4.96,-0.59,-1.45,-2.02,
1.521,-9.31,0.26,4.13,-0.59,-1.45,-2.02,
1.521,-9.31,0.26,4.13,-0.56,-1.50,-1.93,
1.522,-9.31,0.26,4.13,-0.55,-1.55,-1.84,
1.525,-9.31,0.26,4.13,-0.54,-1.59,-1.77,
1.525,-8.62,-0.13,3.31,-0.54,-1.59,-1.77,
1.528,-8.62,-0.13,3.31,-0.54,-1.62,-1.71,
1.532,-7.99,-0.45,2.58,-0.54,-1.62,-1.71,
1.533,-7.99,-0.45,2.58,-0.54,-1.66,-1.66,
1.533,-7.99,-0.45,2.58,-0.55,-1.68,-1.62,
1.534,-7.99,-0.45,2.58,-0.56,-1.71,-1.58,
1.534,-7.45,-0.68,1.95,-0.56,-1.71,-1.58,
1.537,-7.45,-0.68,1.95,-0.57,-1.73,-1.56,
1.539,-7.00,-0.82,1.42,-0.57,-1.73,-1.56,
1.539,-7.00,-0.82,1.42,-0.59,-1.75,-1.53,
1.542,-7.00,-0.82,1.42,-0.62,-1.77,-1.52,
1.545,-6.59,-0.89,0.94,-0.62,-1.77,-1.52,
1.545,-6.59,-0.89,0.94,-0.64,-1.78,-1.50,
1.547,-6.59,-0.89,0.94,-0.67,-1.79,-1.49,
1.549,-6.59,-0.89,0.94,-0.70,-1.80,-1.49,
1.55,-6.19,-0.93,0.51,-0.70,-1.80,-1.49,
1.552,-6.19,-0.93,0.51,-0.73,-1.81,-1.49,
1.554,-5.79,-0.91,0.13,-0.73,-1.81,-1.49,
1.554,-5.79,-0.91,0.13,-0.76,-1.81,-1.49,
1.556,-5.79,-0.91,0.13,-0.80,-1.81,-1.50,
1.559,-5.79,-0.91,0.13,-0.84,-1.81,-1.51,
1.559,-5.45,-0.91,-0.23,-0.84,-1.81,-1.51,
1.563,-5.45,-0.91,-0.23,-0.88,-1.80,-1.52,
1.564,-5.45,-0.91,-0.23,-0.93,-1.79,-1.54,
1.565,-5.15,-0.85,-0.54,-0.93,-1.79,-1.54,
1.589,-5.15,-0.85,-0.54,-0.97,-1.78,-1.56,
1.589,-5.15,-0.85,-0.54,-1.02,-1.76,-1.58,
1.59,-4.93,-0.73,-0.74,-1.02,-1.76,-1.58,
1.59,-4.93,-0.73,-0.74,-1.07,-1.75,-1.60,
1.59,-4.93,-0.73,-0.74,-1.12,-1.73,-1.62,
1.59,-4.75,-0.58,-0.84,-1.12,-1.73,-1.62,
1.591,-4.75,-0.58,-0.84,-1.16,-1.72,-1.65,
1.591,-4.75,-0.58,-0.84,-1.20,-1.71,-1.67,
1.591,-4.62,-0.32,-0.81,-1.20,-1.71,-1.67,
1.591,-4.62,-0.32,-0.81,-1.24,-1.69,-1.68,
1.592,-4.53,-0.01,-0.71,-1.24,-1.69,-1.68,
1.592,-4.53,-0.01,-0.71,-1.27,-1.68,-1.70,
1.592,-4.53,-0.01,-0.71,-1.30,-1.67,-1.72,
1.592,-4.49,0.33,-0.62,-1.30,-1.67,-1.72,
1.593,-4.49,0.33,-0.62,-1.32,-1.65,-1.74,
1.593,-4.49,0.33,-0.62,-1.34,-1.63,-1.76,
1.594,-4.49,0.33,-0.62,-1.35,-1.61,-1.77,
1.596,-4.41,0.62,-0.63,-1.35,-1.61,-1.77,
1.597,-4.41,0.62,-0.63,-1.36,-1.57,-1.80,
1.599,-4.26,0.78,-0.76,-1.36,-1.57,-1.80,
1.599,-4.26,0.78,-0.76,-1.37,-1.54,-1.82,
1.603,-4.26,0.78,-0.76,-1.38,-1.49,-1.84,
1.605,-4.26,0.78,-0.76,-1.40,-1.44,-1.87,
1.606,-4.11,0.96,-1.01,-1.40,-1.44,-1.87,
1.606,-4.11,0.96,-1.01,-1.41,-1.38,-1.90,
1.609,-4.11,0.96,-1.01,-1.44,-1.31,-1.93,
1.61,-4.06,1.13,-1.22,-1.44,-1.31,-1.93,
1.611,-4.06,1.13,-1.22,-1.46,-1.25,-1.96,
1.614,-4.06,1.13,-1.22,-1.48,-1.17,-1.99,
1.614,-4.15,1.33,-1.34,-1.48,-1.17,-1.99,
1.617,-4.15,1.33,-1.34,-1.51,-1.09,-2.01,
1.618,-4.15,1.33,-1.34,-1.54,-1.00,-2.04,
1.619,-4.40,1.47,-1.35,-1.54,-1.00,-2.04,
1.621,-4.40,1.47,-1.35,-1.57,-0.91,-2.06,
1.624,-4.40,1.47,-1.35,-1.60,-0.81,-2.08,
1.624,-4.78,1.52,-1.25,-1.60,-0.81,-2.08,
1.631,-4.78,1.52,-1.25,-1.63,-0.71,-2.10,
1.631,-4.78,1.52,-1.25,-1.66,-0.62,-2.11,
1.631,-5.32,1.46,-1.02,-1.66,-0.62,-2.11,
1.632,-5.32,1.46,-1.02,-1.68,-0.51,-2.12,
1.634,-5.32,1.46,-1.02,-1.70,-0.41,-2.13,
1.634,-5.90,1.29,-0.70,-1.70,-0.41,-2.13,
1.636,-5.90,1.29,-0.70,-1.72,-0.30,-2.14,
1.639,-5.90,1.29,-0.70,-1.73,-0.20,-2.15,
1.639,-6.55,1.08,-0.33,-1.73,-0.20,-2.15,
1.641,-6.55,1.08,-0.33,-1.74,-0.09,-2.15,
1.655,-6.55,1.08,-0.33,-1.74,0.02,-2.15,
1.655,-6.55,1.08,-0.33,-1.74,0.14,-2.16,
1.655,-7.16,0.87,0.13,-1.74,0.14,-2.16,
1.656,-7.16,0.87,0.13,-1.74,0.25,-2.16,
1.656,-7.77,0.72,0.67,-1.74,0.25,-2.16,
1.656,-7.77,0.72,0.67,-1.72,0.37,-2.17,
1.656,-7.77,0.72,0.67,-1.70,0.49,-2.18,
1.657,-8.20,0.77,1.28,-1.70,0.49,-2.18,
1.657,-8.20,0.77,1.28,-1.68,0.60,-2.19,
1.658,-8.20,0.77,1.28,-1.64,0.71,-2.21,
1.659,-8.53,1.09,2.05,-1.64,0.71,-2.21,
1.661,-8.53,1.09,2.05,-1.60,0.82,-2.23,
1.663,-8.80,1.64,2.87,-1.60,0.82,-2.23,
1.664,-8.80,1.64,2.87,-1.54,0.92,-2.25,
1.666,-8.80,1.64,2.87,-1.48,1.02,-2.28,
1.668,-8.80,1.64,2.87,-1.41,1.11,-2.30,
1.668,-9.02,2.31,3.72,-1.41,1.11,-2.30,
1.67,-9.02,2.31,3.72,-1.32,1.20,-2.32,
1.674,-9.02,2.31,3.72,-1.23,1.27,-2.34,
1.674,-9.15,3.29,4.57,-1.23,1.27,-2.34,
1.676,-9.15,3.29,4.57,-1.13,1.33,-2.36,
1.679,-9.31,4.51,5.40,-1.13,1.33,-2.36,
1.679,-9.31,4.51,5.40,-1.01,1.39,-2.38,
1.681,-9.31,4.51,5.40,-0.89,1.43,-2.38,
1.684,-9.31,4.51,5.40,-0.76,1.47,-2.38,
1.684,-9.62,5.88,6.16,-0.76,1.47,-2.38,
1.685,-9.62,5.88,6.16,-0.62,1.49,-2.37,
1.688,-9.62,5.88,6.16,-0.47,1.50,-2.34,
1.688,-10.06,7.35,6.89,-0.47,1.50,-2.34,
1.69,-10.06,7.35,6.89,-0.32,1.50,-2.29,
1.695,-10.06,7.35,6.89,-0.17,1.49,-2.23,
1.696,-10.52,8.72,7.37,-0.17,1.49,-2.23,
1.696,-10.52,8.72,7.37,-0.03,1.50,-2.17,
1.7,-10.52,8.72,7.37,0.09,1.50,-2.10,
1.701,-10.83,9.87,7.59,0.09,1.50,-2.10,
1.701,-10.83,9.87,7.59,0.22,1.45,-2.01,
1.704,-11.15,10.93,7.79,0.22,1.45,-2.01,
1.705,-11.15,10.93,7.79,0.35,1.36,-1.89,
1.706,-11.15,10.93,7.79,0.48,1.25,-1.74,
1.708,-11.15,10.93,7.79,0.61,1.12,-1.56,
1.709,-11.61,11.57,7.65,0.61,1.12,-1.56,
1.711,-11.61,11.57,7.65,0.74,0.99,-1.35,
1.714,-12.00,11.81,7.29,0.74,0.99,-1.35,
1.715,-12.00,11.81,7.29,0.86,0.84,-1.11,
1.716,-12.00,11.81,7.29,0.97,0.70,-0.85,
1.718,-12.00,11.81,7.29,1.07,0.55,-0.56,
1.718,-12.14,11.60,6.61,1.07,0.55,-0.56,
1.72,-12.14,11.60,6.61,1.16,0.42,-0.26,
1.723,-12.14,11.60,6.61,1.24,0.29,0.05,
1.723,-11.99,10.95,5.73,1.24,0.29,0.05,
1.725,-11.99,10.95,5.73,1.30,0.17,0.36,
1.728,-11.54,9.93,4.67,1.30,0.17,0.36,
1.728,-11.54,9.93,4.67,1.34,0.05,0.67,
1.732,-11.54,9.93,4.67,1.37,-0.05,0.97,
1.747,-11.54,9.93,4.67,1.39,-0.15,1.25,
1.748,-10.78,8.66,3.50,1.39,-0.15,1.25,
1.748,-10.78,8.66,3.50,1.38,-0.25,1.52,
1.748,-10.78,8.66,3.50,1.36,-0.34,1.76,
1.749,-9.81,7.35,2.34,1.36,-0.34,1.76,
1.749,-9.81,7.35,2.34,1.33,-0.44,1.97,
1.749,-9.81,7.35,2.34,1.29,-0.55,2.16,
1.749,-8.72,6.08,1.26,1.29,-0.55,2.16,
1.75,-8.72,6.08,1.26,1.24,-0.65,2.32,
1.75,-8.72,6.08,1.26,1.18,-0.77,2.46,
1.75,-7.58,4.86,0.30,1.18,-0.77,2.46,
1.75,-7.58,4.86,0.30,1.11,-0.88,2.57,
1.753,-7.58,4.86,0.30,1.04,-1.00,2.67,
1.754,-6.53,3.73,-0.59,1.04,-1.00,2.67,
1.755,-6.53,3.73,-0.59,0.96,-1.12,2.75,
1.757,-6.53,3.73,-0.59,0.86,-1.22,2.81,
1.758,-5.44,2.69,-1.47,0.86,-1.22,2.81,
1.761,-5.44,2.69,-1.47,0.76,-1.33,2.86,
1.763,-5.44,2.69,-1.47,0.65,-1.43,2.89,
1.763,-4.31,1.77,-2.34,0.65,-1.43,2.89,
1.765,-4.31,1.77,-2.34,0.53,-1.52,2.91,
1.767,-4.31,1.77,-2.34,0.40,-1.61,2.91,
1.767,-3.15,1.00,-3.19,0.40,-1.61,2.91,
1.77,-3.15,1.00,-3.19,0.25,-1.69,2.90,
1.772,-3.15,1.00,-3.19,0.09,-1.77,2.89,
1.772,-2.05,0.44,-3.98,0.09,-1.77,2.89,
1.774,-2.05,0.44,-3.98,-0.09,-1.84,2.86,
1.778,-1.03,0.09,-4.66,-0.09,-1.84,2.86,
1.778,-1.03,0.09,-4.66,-0.29,-1.90,2.83,
1.781,-1.03,0.09,-4.66,-0.50,-1.95,2.79,
1.783,-1.03,0.09,-4.66,-0.73,-2.00,2.75,
1.783,-0.20,-0.12,-5.14,-0.73,-2.00,2.75,
1.785,-0.20,-0.12,-5.14,-0.96,-2.05,2.71,
1.788,0.43,-0.21,-5.37,-0.96,-2.05,2.71,
1.79,0.43,-0.21,-5.37,-1.21,-2.09,2.68,
1.791,0.43,-0.21,-5.37,-1.47,-2.13,2.64,
1.793,0.43,-0.21,-5.37,-1.72,-2.18,2.61,
1.793,0.90,-0.29,-5.32,-1.72,-2.18,2.61,
1.797,0.90,-0.29,-5.32,-1.98,-2.23,2.59,
1.797,0.90,-0.29,-5.32,-2.24,-2.28,2.58,
1.797,1.25,-0.36,-4.99,-2.24,-2.28,2.58,
1.801,1.25,-0.36,-4.99,-2.48,-2.33,2.57,
1.806,1.25,-0.36,-4.99,-2.72,-2.38,2.57,
1.806,1.25,-0.36,-4.99,-2.95,-2.44,2.57,
1.807,1.48,-0.42,-4.44,-2.95,-2.44,2.57,
1.807,1.48,-0.42,-4.44,-3.16,-2.50,2.59,
1.808,1.74,-0.52,-3.75,-3.16,-2.50,2.59,
1.809,1.74,-0.52,-3.75,-3.37,-2.56,2.61,
1.812,2.00,-0.70,-3.02,-3.37,-2.56,2.61,
1.813,2.00,-0.70,-3.02,-3.55,-2.62,2.64,
1.815,2.00,-0.70,-3.02,-3.72,-2.69,2.67,
1.817,2.37,-0.95,-2.35,-3.72,-2.69,2.67,
1.817,2.37,-0.95,-2.35,-3.88,-2.74,2.70,
1.82,2.37,-0.95,-2.35,-4.02,-2.80,2.74,
1.822,2.79,-1.28,-1.82,-4.02,-2.80,2.74,
1.822,2.79,-1.28,-1.82,-4.14,-2.85,2.77,
1.824,2.79,-1.28,-1.82,-4.25,-2.90,2.80,
1.827,2.79,-1.28,-1.82,-4.34,-2.95,2.82,
1.827,3.33,-1.68,-1.35,-4.34,-2.95,2.82,
1.83,3.33,-1.68,-1.35,-4.42,-2.99,2.84,
1.832,3.92,-2.15,-1.03,-4.42,-2.99,2.84,
1.832,3.92,-2.15,-1.03,-4.49,-3.02,2.85,
1.834,3.92,-2.15,-1.03,-4.54,-3.04,2.86,
1.837,3.92,-2.15,-1.03,-4.57,-3.06,2.86,
1.837,4.53,-2.64,-0.79,-4.57,-3.06,2.86,
1.839,4.53,-2.64,-0.79,-4.60,-3.06,2.85,
1.842,4.53,-2.64,-0.79,-4.61,-3.06,2.83,
1.842,5.18,-3.11,-0.58,-4.61,-3.06,2.83,
1.844,5.18,-3.11,-0.58,-4.61,-3.04,2.80,
1.847,5.18,-3.11,-0.58,-4.60,-3.01,2.76,
1.848,5.78,-3.57,-0.39,-4.60,-3.01,2.76,
1.849,5.78,-3.57,-0.39,-4.57,-2.97,2.72,
1.852,5.78,-3.57,-0.39,-4.53,-2.92,2.67,
1.852,6.27,-4.04,-0.19,-4.53,-2.92,2.67,
1.854,6.27,-4.04,-0.19,-4.47,-2.86,2.60,
1.857,6.27,-4.04,-0.19,-4.40,-2.80,2.53,
1.857,6.76,-4.51,0.05,-4.40,-2.80,2.53,
1.859,6.76,-4.51,0.05,-4.32,-2.73,2.46,
1.862,7.14,-5.04,0.30,-4.32,-2.73,2.46,
1.862,7.14,-5.04,0.30,-4.22,-2.66,2.37,
1.864,7.14,-5.04,0.30,-4.11,-2.58,2.28,
1.867,7.14,-5.04,0.30,-3.99,-2.51,2.17,
1.867,7.54,-5.58,0.50,-3.99,-2.51,2.17,
1.869,7.54,-5.58,0.50,-3.85,-2.43,2.06,
1.872,7.54,-5.58,0.50,-3.70,-2.33,1.92,
1.872,8.13,-6.00,0.61,-3.70,-2.33,1.92,
1.874,8.13,-6.00,0.61,-3.55,-2.23,1.75,
1.878,8.74,-6.40,0.72,-3.55,-2.23,1.75,
1.878,8.74,-6.40,0.72,-3.40,-2.12,1.56,
1.88,8.74,-6.40,0.72,-3.24,-2.04,1.38,
1.882,8.98,-7.06,0.73,-3.24,-2.04,1.38,
1.882,8.98,-7.06,0.73,-3.06,-1.95,1.20,
1.884,8.98,-7.06,0.73,-2.88,-1.86,1.03,
1.886,8.94,-7.43,0.67,-2.88,-1.86,1.03,
1.886,8.94,-7.43,0.67,-2.69,-1.75,0.86,
1.889,8.94,-7.43,0.67,-2.49,-1.62,0.70,
1.891,8.94,-7.43,0.67,-2.29,-1.50,0.55,
1.892,8.96,-7.44,0.77,-2.29,-1.50,0.55,
1.897,8.96,-7.44,0.77,-2.08,-1.36,0.39,
1.898,8.96,-7.44,0.77,-1.87,-1.23,0.24,
1.922,9.09,-7.17,0.89,-1.87,-1.23,0.24,
1.922,9.09,-7.17,0.89,-1.66,-1.10,0.08,
1.922,9.17,-6.84,1.05,-1.66,-1.10,0.08,
1.923,9.17,-6.84,1.05,-1.44,-0.97,-0.08,
1.923,9.17,-6.84,1.05,-1.22,-0.85,-0.24,
1.923,9.07,-6.60,1.13,-1.22,-0.85,-0.24,
1.924,9.07,-6.60,1.13,-1.00,-0.74,-0.41,
1.924,9.07,-6.60,1.13,-0.79,-0.62,-0.57,
1.924,9.07,-6.60,1.13,-0.58,-0.51,-0.74,
1.925,8.73,-6.43,1.13,-0.58,-0.51,-0.74,
1.925,8.73,-6.43,1.13,-0.37,-0.40,-0.90,
1.925,8.73,-6.43,1.13,-0.17,-0.29,-1.06,
1.925,8.20,-6.29,1.05,-0.17,-0.29,-1.06,
1.926,8.20,-6.29,1.05,0.02,-0.19,-1.21,
1.926,7.52,-6.13,0.88,0.02,-0.19,-1.21,
1.926,7.52,-6.13,0.88,0.20,-0.09,-1.37,
1.926,7.52,-6.13,0.88,0.37,-0.00,-1.52,
1.927,7.52,-6.13,0.88,0.54,0.08,-1.67,
1.927,6.78,-5.92,0.63,0.54,0.08,-1.67,
1.93,6.78,-5.92,0.63,0.69,0.15,-1.82,
1.932,6.78,-5.92,0.63,0.84,0.21,-1.96,
1.933,6.00,-5.62,0.36,0.84,0.21,-1.96,
1.933,6.00,-5.62,0.36,0.97,0.26,-2.09,
1.936,6.00,-5.62,0.36,1.10,0.30,-2.22,
1.936,5.14,-5.25,0.08,1.10,0.30,-2.22,
1.938,5.14,-5.25,0.08,1.22,0.34,-2.34,
1.941,5.14,-5.25,0.08,1.32,0.38,-2.45,
1.941,4.25,-4.83,-0.21,1.32,0.38,-2.45,
1.943,4.25,-4.83,-0.21,1.43,0.41,-2.56,
1.947,3.34,-4.37,-0.50,1.43,0.41,-2.56,
1.948,3.34,-4.37,-0.50,1.52,0.44,-2.66,
1.948,3.34,-4.37,-0.50,1.61,0.45,-2.75,
1.951,3.34,-4.37,-0.50,1.69,0.46,-2.83,
1.951,2.41,-3.92,-0.79,1.69,0.46,-2.83,
1.953,2.41,-3.92,-0.79,1.77,0.46,-2.90,
1.956,2.41,-3.92,-0.79,1.84,0.46,-2.97,
1.956,1.50,-3.45,-1.11,1.84,0.46,-2.97,
1.958,1.50,-3.45,-1.11,1.90,0.45,-3.03,
1.961,0.54,-3.01,-1.46,1.90,0.45,-3.03,
1.962,0.54,-3.01,-1.46,1.96,0.45,-3.09,
1.964,0.54,-3.01,-1.46,2.00,0.44,-3.13,
1.966,0.54,-3.01,-1.46,2.05,0.44,-3.16,
1.967,-0.43,-2.51,-1.89,2.05,0.44,-3.16,
1.969,-0.43,-2.51,-1.89,2.08,0.43,-3.18,
1.971,-0.43,-2.51,-1.89,2.11,0.42,-3.18,
1.972,-1.31,-1.97,-2.37,2.11,0.42,-3.18,
1.974,-1.31,-1.97,-2.37,2.12,0.41,-3.18,
1.975,-1.31,-1.97,-2.37,2.13,0.40,-3.17,
1.976,-2.11,-1.43,-2.90,2.13,0.40,-3.17,
1.981,-2.11,-1.43,-2.90,2.13,0.40,-3.15,
1.981,-2.11,-1.43,-2.90,2.13,0.39,-3.12,
1.983,-2.83,-0.87,-3.37,2.13,0.39,-3.12,
1.983,-2.83,-0.87,-3.37,2.12,0.39,-3.08,
1.986,-3.45,-0.32,-3.87,2.12,0.39,-3.08,
1.986,-3.45,-0.32,-3.87,2.10,0.39,-3.04,
1.988,-3.45,-0.32,-3.87,2.08,0.39,-3.00,
1.99,-3.45,-0.32,-3.87,2.05,0.39,-2.94,
1.991,-3.88,0.22,-4.34,2.05,0.39,-2.94,
1.993,-3.88,0.22,-4.34,2.02,0.40,-2.89,
2.0,-4.13,0.79,-4.78,2.02,0.40,-2.89,
2.001,-4.13,0.79,-4.78,1.98,0.41,-2.83,
2.001,-4.13,0.79,-4.78,1.93,0.43,-2.77,
2.002,-4.29,1.40,-5.21,1.93,0.43,-2.77,
2.002,-4.29,1.40,-5.21,1.88,0.46,-2.72,
2.005,-4.29,1.40,-5.21,1.83,0.49,-2.65,
2.007,-4.29,1.40,-5.21,1.77,0.52,-2.59,
2.007,-4.42,1.97,-5.55,1.77,0.52,-2.59,
2.01,-4.42,1.97,-5.55,1.70,0.56,-2.53,
2.011,-4.42,1.97,-5.55,1.64,0.60,-2.47,
2.018,-4.48,2.50,-5.77,1.64,0.60,-2.47,
2.018,-4.48,2.50,-5.77,1.57,0.64,-2.41,
2.018,-4.53,2.99,-5.81,1.57,0.64,-2.41,
2.018,-4.53,2.99,-5.81,1.49,0.68,-2.35,
2.019,-4.53,2.99,-5.81,1.42,0.71,-2.28,
2.021,-4.59,3.38,-5.74,1.42,0.71,-2.28,
2.021,-4.59,3.38,-5.74,1.34,0.75,-2.22,
2.022,-4.59,3.38,-5.74,1.27,0.79,-2.16,
2.025,-4.65,3.74,-5.53,1.27,0.79,-2.16,
2.026,-4.65,3.74,-5.53,1.19,0.83,-2.10,
2.028,-4.65,3.74,-5.53,1.12,0.86,-2.05,
2.033,-4.65,3.74,-5.53,1.05,0.88,-1.99,
2.033,-4.73,3.97,-5.20,1.05,0.88,-1.99,
2.033,-4.73,3.97,-5.20,0.98,0.90,-1.94,
2.035,-4.83,4.16,-4.81,0.98,0.90,-1.94,
2.035,-4.83,4.16,-4.81,0.92,0.91,-1.89,
2.038,-4.83,4.16,-4.81,0.86,0.92,-1.84,
2.04,-4.83,4.16,-4.81,0.79,0.92,-1.80,
2.04,-4.96,4.31,-4.40,0.79,0.92,-1.80,
2.042,-4.96,4.31,-4.40,0.73,0.91,-1.75,
2.045,-4.96,4.31,-4.40,0.68,0.90,-1.70,
2.047,-5.10,4.42,-3.97,0.68,0.90,-1.70,
2.048,-5.10,4.42,-3.97,0.62,0.89,-1.65,
2.051,-5.24,4.51,-3.56,0.62,0.89,-1.65,
2.051,-5.24,4.51,-3.56,0.57,0.86,-1.61,
2.052,-5.24,4.51,-3.56,0.52,0.84,-1.57,
2.055,-5.24,4.51,-3.56,0.47,0.81,-1.53,
2.056,-5.33,4.56,-3.17,0.47,0.81,-1.53,
2.057,-5.33,4.56,-3.17,0.42,0.77,-1.49,
2.06,-5.33,4.56,-3.17,0.38,0.74,-1.46,
2.06,-5.43,4.61,-2.81,0.38,0.74,-1.46,
2.086,-5.43,4.61,-2.81,0.34,0.70,-1.43,
2.086,-5.43,4.61,-2.81,0.29,0.66,-1.39,
2.087,-5.57,4.69,-2.52,0.29,0.66,-1.39,
2.087,-5.57,4.69,-2.52,0.25,0.62,-1.36,
2.087,-5.74,4.77,-2.31,0.25,0.62,-1.36,
2.087,-5.74,4.77,-2.31,0.21,0.58,-1.34,
2.088,-5.74,4.77,-2.31,0.17,0.54,-1.30,
2.088,-5.92,4.88,-2.12,0.17,0.54,-1.30,
2.088,-5.92,4.88,-2.12,0.13,0.50,-1.27,
2.088,-5.92,4.88,-2.12,0.09,0.47,-1.24,
2.089,-6.19,4.94,-1.98,0.09,0.47,-1.24,
2.089,-6.19,4.94,-1.98,0.05,0.44,-1.21,
2.089,-6.19,4.94,-1.98,0.01,0.42,-1.18,
2.089,-6.54,5.00,-1.85,0.01,0.42,-1.18,
2.092,-6.54,5.00,-1.85,-0.02,0.40,-1.14,
2.093,-6.54,5.00,-1.85,-0.06,0.38,-1.10,
2.093,-6.54,5.00,-1.85,-0.09,0.37,-1.06,
2.093,-6.87,5.07,-1.72,-0.09,0.37,-1.06,
2.093,-6.87,5.07,-1.72,-0.11,0.35,-1.02,
2.096,-6.87,5.07,-1.72,-0.14,0.35,-0.97,
2.097,-7.15,5.16,-1.61,-0.14,0.35,-0.97,
2.097,-7.15,5.16,-1.61,-0.16,0.35,-0.92,
2.1,-7.42,5.20,-1.46,-0.16,0.35,-0.92,
2.1,-7.42,5.20,-1.46,-0.19,0.36,-0.87,
2.103,-7.42,5.20,-1.46,-0.21,0.37,-0.81,
2.106,-7.42,5.20,-1.46,-0.23,0.39,-0.76,
2.107,-7.64,5.31,-1.30,-0.23,0.39,-0.76,
2.108,-7.64,5.31,-1.30,-0.25,0.40,-0.71,
2.11,-7.82,5.35,-1.09,-0.25,0.40,-0.71,
2.11,-7.82,5.35,-1.09,-0.26,0.42,-0.65,
2.114,-7.82,5.35,-1.09,-0.28,0.45,-0.60,
2.115,-8.03,5.38,-0.85,-0.28,0.45,-0.60,
2.115,-8.03,5.38,-0.85,-0.30,0.47,-0.54,
2.121,-8.03,5.38,-0.85,-0.31,0.49,-0.49,
2.121,-8.29,5.35,-0.60,-0.31,0.49,-0.49,
2.121,-8.29,5.35,-0.60,-0.33,0.52,-0.43,
2.123,-8.29,5.35,-0.60,-0.34,0.54,-0.36,
2.126,-8.29,5.35,-0.60,-0.36,0.58,-0.30,
2.127,-8.46,5.39,-0.30,-0.36,0.58,-0.30,
2.127,-8.46,5.39,-0.30,-0.37,0.60,-0.24,
2.132,-8.65,5.35,0.07,-0.37,0.60,-0.24,
2.132,-8.65,5.35,0.07,-0.38,0.63,-0.17,
2.133,-8.65,5.35,0.07,-0.38,0.65,-0.11,
2.134,-8.87,5.22,0.43,-0.38,0.65,-0.11,
2.134,-8.87,5.22,0.43,-0.39,0.68,-0.04,
2.136,-8.87,5.22,0.43,-0.40,0.70,0.03,
2.139,-9.04,5.10,0.79,-0.40,0.70,0.03,
2.14,-9.04,5.10,0.79,-0.40,0.72,0.10,
2.142,-9.04,5.10,0.79,-0.40,0.74,0.17,
2.148,-9.22,4.87,1.14,-0.40,0.74,0.17,
2.149,-9.22,4.87,1.14,-0.40,0.75,0.24,
2.149,-9.22,4.87,1.14,-0.40,0.77,0.30,
2.149,-9.46,4.53,1.44,-0.40,0.77,0.30,
2.149,-9.46,4.53,1.44,-0.40,0.79,0.37,
2.152,-9.46,4.53,1.44,-0.40,0.80,0.44,
2.155,-9.46,4.53,1.44,-0.39,0.82,0.51,
2.156,-9.61,4.16,1.76,-0.39,0.82,0.51,
2.157,-9.61,4.16,1.76,-0.38,0.84,0.57,
2.16,-9.79,3.76,2.03,-0.38,0.84,0.57,
2.16,-9.79,3.76,2.03,-0.37,0.85,0.63,
2.168,-9.79,3.76,2.03,-0.36,0.87,0.69,
2.168,-9.95,3.35,2.31,-0.36,0.87,0.69,
2.169,-9.95,3.35,2.31,-0.34,0.90,0.75,
2.169,-9.95,3.35,2.31,-0.32,0.92,0.80,
2.169,-10.10,2.97,2.59,-0.32,0.92,0.80,
2.17,-10.10,2.97,2.59,-0.29,0.94,0.85,
2.171,-10.10,2.97,2.59,-0.27,0.96,0.90,
2.174,-10.10,2.97,2.59,-0.23,0.98,0.95,
2.174,-10.21,2.66,2.89,-0.23,0.98,0.95,
2.176,-10.21,2.66,2.89,-0.20,1.00,0.99,
2.179,-10.22,2.44,3.21,-0.20,1.00,0.99,
2.18,-10.22,2.44,3.21,-0.16,1.01,1.03,
2.181,-10.22,2.44,3.21,-0.12,1.03,1.07,
2.184,-10.11,2.38,3.48,-0.12,1.03,1.07,
2.184,-10.11,2.38,3.48,-0.07,1.04,1.10,
2.186,-10.11,2.38,3.48,-0.02,1.04,1.14,
2.189,-10.11,2.38,3.48,0.04,1.04,1.17,
2.189,-9.96,2.43,3.75,0.04,1.04,1.17,
2.191,-9.96,2.43,3.75,0.10,1.04,1.20,
2.194,-9.96,2.43,3.75,0.16,1.03,1.23,
2.194,-9.78,2.53,3.99,0.16,1.03,1.23,
2.2,-9.78,2.53,3.99,0.23,1.01,1.26,
2.214,-9.62,2.69,4.19,0.23,1.01,1.26,
2.215,-9.62,2.69,4.19,0.30,0.98,1.30,
2.215,-9.62,2.69,4.19,0.38,0.95,1.34,
2.215,-9.62,2.69,4.19,0.45,0.91,1.38,
2.216,-9.49,2.85,4.29,0.45,0.91,1.38,
2.216,-9.49,2.85,4.29,0.53,0.88,1.43,
2.216,-9.49,2.85,4.29,0.60,0.84,1.48,
2.216,-9.34,3.02,4.26,0.60,0.84,1.48,
2.217,-9.34,3.02,4.26,0.67,0.81,1.55,
2.217,-9.34,3.02,4.26,0.73,0.78,1.61,
2.217,-9.13,3.15,4.17,0.73,0.78,1.61,
2.217,-9.13,3.15,4.17,0.79,0.75,1.68,
2.226,-9.13,3.15,4.17,0.84,0.72,1.76,
2.227,-8.89,3.24,3.97,0.84,0.72,1.76,
2.227,-8.89,3.24,3.97,0.89,0.70,1.84,
2.227,-8.89,3.24,3.97,0.93,0.68,1.93,
2.227,-8.55,3.23,3.70,0.93,0.68,1.93,
2.227,-8.55,3.23,3.70,0.96,0.67,2.01,
2.24,-8.55,3.23,3.70,0.99,0.65,2.10,
2.24,-8.12,3.13,3.38,0.99,0.65,2.10,
2.24,-8.12,3.13,3.38,1.00,0.65,2.18,
2.24,-8.12,3.13,3.38,1.02,0.64,2.27,
2.24,-7.67,2.94,3.06,1.02,0.64,2.27,
2.24,-7.67,2.94,3.06,1.02,0.63,2.35,
2.241,-7.67,2.94,3.06,1.02,0.63,2.42,
2.241,-7.21,2.64,2.79,1.02,0.63,2.42,
2.241,-7.21,2.64,2.79,1.02,0.63,2.50,
2.245,-7.21,2.64,2.79,1.01,0.62,2.57,
2.246,-6.80,2.31,2.60,1.01,0.62,2.57,
2.246,-6.80,2.31,2.60,1.01,0.63,2.63,
2.25,-6.80,2.31,2.60,1.00,0.63,2.70,
2.251,-6.39,1.93,2.45,1.00,0.63,2.70,
2.251,-6.39,1.93,2.45,0.99,0.63,2.75,
2.253,-6.39,1.93,2.45,0.98,0.64,2.80,
2.253,-5.96,1.56,2.37,0.98,0.64,2.80,
2.255,-5.96,1.56,2.37,0.98,0.65,2.85,
2.258,-5.96,1.56,2.37,0.97,0.66,2.88,
2.258,-5.52,1.15,2.29,0.97,0.66,2.88,
2.26,-5.52,1.15,2.29,0.97,0.67,2.92,
2.263,-5.52,1.15,2.29,0.97,0.69,2.94,
2.264,-5.14,0.80,2.27,0.97,0.69,2.94,
2.265,-5.14,0.80,2.27,0.97,0.71,2.97,
2.268,-5.14,0.80,2.27,0.97,0.73,2.98,
2.268,-4.79,0.50,2.32,0.97,0.73,2.98,
2.27,-4.79,0.50,2.32,0.97,0.75,3.00,
2.273,-4.79,0.50,2.32,0.98,0.77,3.01,
2.273,-4.45,0.26,2.36,0.98,0.77,3.01,
2.276,-4.45,0.26,2.36,0.99,0.79,3.02,
2.278,-4.45,0.26,2.36,1.00,0.82,3.03,
2.281,-4.18,0.06,2.44,1.00,0.82,3.03,
2.281,-4.18,0.06,2.44,1.02,0.84,3.03,
2.284,-4.18,0.06,2.44,1.04,0.87,3.04,
2.284,-4.00,-0.13,2.54,1.04,0.87,3.04,
2.291,-4.00,-0.13,2.54,1.07,0.90,3.04,
2.292,-4.00,-0.13,2.54,1.09,0.93,3.04,
2.292,-3.89,-0.36,2.62,1.09,0.93,3.04,
2.292,-3.89,-0.36,2.62,1.12,0.96,3.05,
2.295,-3.89,-0.36,2.62,1.14,0.99,3.05,
2.295,-3.84,-0.59,2.70,1.14,0.99,3.05,
2.296,-3.84,-0.59,2.70,1.17,1.01,3.06,
2.3,-3.84,-0.59,2.70,1.20,1.04,3.06,
2.301,-3.79,-0.83,2.79,1.20,1.04,3.06,
2.301,-3.79,-0.83,2.79,1.23,1.06,3.07,
2.303,-3.73,-1.04,2.83,1.23,1.06,3.07,
2.303,-3.73,-1.04,2.83,1.26,1.08,3.08,
2.305,-3.73,-1.04,2.83,1.29,1.11,3.09,
2.308,-3.67,-1.25,2.84,1.29,1.11,3.09,
2.308,-3.67,-1.25,2.84,1.32,1.13,3.10,
2.31,-3.67,-1.25,2.84,1.34,1.15,3.11,
2.313,-3.67,-1.25,2.84,1.37,1.17,3.12,
2.314,-3.56,-1.42,2.88,1.37,1.17,3.12,
2.317,-3.56,-1.42,2.88,1.40,1.18,3.13,
2.318,-3.56,-1.42,2.88,1.42,1.20,3.14,
2.319,-3.45,-1.57,2.87,1.42,1.20,3.14,
2.32,-3.45,-1.57,2.87,1.44,1.21,3.15,
2.323,-3.27,-1.72,2.86,1.44,1.21,3.15,
2.323,-3.27,-1.72,2.86,1.46,1.22,3.16,
2.325,-3.27,-1.72,2.86,1.48,1.23,3.17,
2.334,-3.10,-1.90,2.84,1.48,1.23,3.17,
2.334,-3.10,-1.90,2.84,1.50,1.24,3.18,
2.335,-3.10,-1.90,2.84,1.51,1.25,3.18,
2.335,-3.10,-1.90,2.84,1.53,1.26,3.19,
2.336,-2.90,-2.03,2.80,1.53,1.26,3.19,
2.336,-2.90,-2.03,2.80,1.54,1.26,3.19,
2.338,-2.90,-2.03,2.80,1.55,1.27,3.20,
2.338,-2.68,-2.13,2.73,1.55,1.27,3.20,
2.34,-2.68,-2.13,2.73,1.56,1.28,3.20,
2.343,-2.68,-2.13,2.73,1.56,1.28,3.20,
2.343,-2.47,-2.25,2.70,1.56,1.28,3.20,
2.352,-2.47,-2.25,2.70,1.57,1.29,3.21,
2.353,-2.47,-2.25,2.70,1.57,1.30,3.21,
2.353,-2.27,-2.38,2.64,1.57,1.30,3.21,
2.354,-2.27,-2.38,2.64,1.57,1.30,3.21,
2.354,-2.03,-2.49,2.66,1.57,1.30,3.21,
2.354,-2.03,-2.49,2.66,1.57,1.30,3.21,
2.355,-2.03,-2.49,2.66,1.57,1.30,3.20,
2.357,-2.03,-2.49,2.66,1.57,1.30,3.20,
2.358,-1.78,-2.57,2.67,1.57,1.30,3.20,
2.359,-1.78,-2.57,2.67,1.57,1.30,3.19,
2.362,-1.78,-2.57,2.67,1.57,1.29,3.18,
2.363,-1.51,-2.59,2.71,1.57,1.29,3.18,
2.365,-1.51,-2.59,2.71,1.57,1.29,3.17,
2.367,-1.51,-2.59,2.71,1.57,1.28,3.16,
2.368,-1.25,-2.58,2.75,1.57,1.28,3.16,
2.369,-1.25,-2.58,2.75,1.56,1.28,3.15,
2.372,-1.25,-2.58,2.75,1.56,1.27,3.15,
2.372,-1.07,-2.57,2.80,1.56,1.27,3.15,
2.374,-1.07,-2.57,2.80,1.57,1.26,3.14,
2.378,-0.90,-2.58,2.82,1.57,1.26,3.14,
2.378,-0.90,-2.58,2.82,1.57,1.25,3.13,
2.38,-0.90,-2.58,2.82,1.57,1.24,3.13,
2.382,-0.74,-2.56,2.84,1.57,1.24,3.13,
2.383,-0.74,-2.56,2.84,1.58,1.22,3.12,
2.384,-0.74,-2.56,2.84,1.58,1.21,3.12,
2.387,-0.74,-2.56,2.84,1.59,1.19,3.12,
2.387,-0.60,-2.59,2.86,1.59,1.19,3.12,
2.389,-0.60,-2.59,2.86,1.60,1.18,3.12,
2.392,-0.60,-2.59,2.86,1.60,1.17,3.12,
2.408,-0.50,-2.67,2.80,1.60,1.17,3.12,
2.408,-0.50,-2.67,2.80,1.61,1.16,3.13,
2.409,-0.42,-2.81,2.73,1.61,1.16,3.13,
2.409,-0.42,-2.81,2.73,1.61,1.15,3.13,
2.409,-0.42,-2.81,2.73,1.61,1.14,3.13,
2.409,-0.42,-2.81,2.73,1.61,1.14,3.14,
2.409,-0.33,-2.95,2.64,1.61,1.14,3.14,
2.41,-0.33,-2.95,2.64,1.61,1.13,3.14,
2.41,-0.33,-2.95,2.64,1.60,1.12,3.14,
2.41,-0.25,-3.11,2.55,1.60,1.12,3.14,
2.41,-0.25,-3.11,2.55,1.60,1.11,3.14,
2.417,-0.18,-3.27,2.46,1.60,1.11,3.14,
2.418,-0.18,-3.27,2.46,1.59,1.10,3.14,
2.419,-0.18,-3.27,2.46,1.58,1.09,3.15,
2.419,-0.14,-3.42,2.36,1.58,1.09,3.15,
2.42,-0.14,-3.42,2.36,1.58,1.08,3.15,
2.42,-0.14,-3.42,2.36,1.57,1.07,3.15,
2.422,-0.14,-3.42,2.36,1.56,1.06,3.15,
2.423,-0.06,-3.58,2.25,1.56,1.06,3.15,
2.424,-0.06,-3.58,2.25,1.55,1.04,3.15,
2.427,-0.06,-3.58,2.25,1.53,1.03,3.15,
2.427,0.03,-3.75,2.08,1.53,1.03,3.15,
2.436,0.03,-3.75,2.08,1.52,1.03,3.15,
2.437,0.03,-3.75,2.08,1.50,1.03,3.15,
2.438,0.14,-3.87,1.89,1.50,1.03,3.15,
2.438,0.14,-3.87,1.89,1.48,1.02,3.15,
2.439,0.14,-3.87,1.89,1.46,1.02,3.15,
2.439,0.22,-4.01,1.69,1.46,1.02,3.15,
2.439,0.22,-4.01,1.69,1.43,1.02,3.14,
2.443,0.22,-4.01,1.69,1.40,1.01,3.14,
2.446,0.30,-4.14,1.51,1.40,1.01,3.14,
2.447,0.30,-4.14,1.51,1.36,1.00,3.14,
2.447,0.30,-4.14,1.51,1.33,1.00,3.14,
2.447,0.35,-4.27,1.34,1.33,1.00,3.14,
2.46,0.35,-4.27,1.34,1.29,1.00,3.13,
2.46,0.35,-4.27,1.34,1.24,1.00,3.12,
2.46,0.40,-4.44,1.20,1.24,1.00,3.12,
2.461,0.40,-4.44,1.20,1.19,0.99,3.12,
2.461,0.40,-4.44,1.20,1.13,0.99,3.10,
2.461,0.48,-4.61,1.12,1.13,0.99,3.10,
2.461,0.48,-4.61,1.12,1.07,0.99,3.09,
2.464,0.54,-4.79,1.09,1.07,0.99,3.09,
2.465,0.54,-4.79,1.09,1.01,0.98,3.08,
2.466,0.54,-4.79,1.09,0.94,0.97,3.06,
2.467,0.59,-4.96,1.09,0.94,0.97,3.06,
2.468,0.59,-4.96,1.09,0.88,0.96,3.05,
2.468,0.59,-4.96,1.09,0.81,0.94,3.03,
2.471,0.59,-4.96,1.09,0.74,0.93,3.02,
2.471,0.60,-5.12,1.14,0.74,0.93,3.02,
2.473,0.60,-5.12,1.14,0.67,0.91,3.00,
2.476,0.62,-5.27,1.22,0.67,0.91,3.00,
2.476,0.62,-5.27,1.22,0.59,0.89,2.99,
2.479,0.62,-5.27,1.22,0.52,0.87,2.98,
2.481,0.67,-5.41,1.32,0.52,0.87,2.98,
2.481,0.67,-5.41,1.32,0.44,0.85,2.96,
2.483,0.67,-5.41,1.32,0.37,0.82,2.94,
2.486,0.67,-5.41,1.32,0.29,0.79,2.93,
2.486,0.71,-5.53,1.43,0.29,0.79,2.93,
2.489,0.71,-5.53,1.43,0.22,0.75,2.92,
2.492,0.71,-5.53,1.43,0.15,0.72,2.90,
2.492,0.76,-5.63,1.56,0.15,0.72,2.90,
2.494,0.76,-5.63,1.56,0.08,0.68,2.89,
2.497,0.76,-5.63,1.56,0.00,0.64,2.87,
2.501,0.82,-5.76,1.71,0.00,0.64,2.87,
2.502,0.82,-5.76,1.71,-0.07,0.59,2.86,
2.502,0.82,-5.76,1.71,-0.14,0.55,2.85,
2.504,0.82,-5.76,1.71,-0.20,0.50,2.83,
2.507,0.91,-5.85,1.84,-0.20,0.50,2.83,
2.508,0.91,-5.85,1.84,-0.27,0.45,2.82,
2.508,0.98,-5.95,1.97,-0.27,0.45,2.82,
2.509,0.98,-5.95,1.97,-0.33,0.40,2.81,
2.511,0.98,-5.95,1.97,-0.40,0.34,2.79,
2.511,1.09,-6.04,2.10,-0.40,0.34,2.79,
2.515,1.09,-6.04,2.10,-0.46,0.29,2.78,
2.517,1.19,-6.13,2.21,-0.46,0.29,2.78,
2.518,1.19,-6.13,2.21,-0.52,0.24,2.76,
2.518,1.19,-6.13,2.21,-0.57,0.20,2.74,
2.521,1.19,-6.13,2.21,-0.62,0.17,2.72,
2.521,1.24,-6.06,2.28,-0.62,0.17,2.72,
2.523,1.24,-6.06,2.28,-0.66,0.13,2.71,
2.526,1.24,-6.06,2.28,-0.70,0.07,2.69,
2.526,1.55,-6.20,2.54,-0.70,0.07,2.69,
2.528,1.55,-6.20,2.54,-0.75,0.01,2.68,
2.532,1.55,-6.20,2.54,-0.79,-0.06,2.67,
2.532,1.74,-6.27,2.66,-0.79,-0.06,2.67,
2.534,1.74,-6.27,2.66,-0.84,-0.13,2.66,
2.536,1.74,-6.27,2.66,-0.89,-0.21,2.66,
2.536,1.98,-6.34,2.71,-0.89,-0.21,2.66,
2.538,1.98,-6.34,2.71,-0.94,-0.28,2.65,
2.54,2.24,-6.44,2.69,-0.94,-0.28,2.65,
2.541,2.24,-6.44,2.69,-0.99,-0.36,2.64,
2.543,2.24,-6.44,2.69,-1.04,-0.43,2.63,
2.546,2.24,-6.44,2.69,-1.09,-0.49,2.62,
2.547,2.42,-6.54,2.57,-1.09,-0.49,2.62,
2.548,2.42,-6.54,2.57,-1.13,-0.55,2.60,
2.551,2.42,-6.54,2.57,-1.17,-0.60,2.58,
2.551,2.60,-6.62,2.50,-1.17,-0.60,2.58,
2.553,2.60,-6.62,2.50,-1.21,-0.64,2.56,
2.556,2.60,-6.62,2.50,-1.24,-0.69,2.54,
2.557,2.81,-6.71,2.53,-1.24,-0.69,2.54,
2.584,2.81,-6.71,2.53,-1.27,-0.73,2.52,
2.585,2.81,-6.71,2.53,-1.30,-0.77,2.50,
2.585,3.11,-6.79,2.54,-1.30,-0.77,2.50,
2.585,3.11,-6.79,2.54,-1.32,-0.81,2.47,
2.586,3.11,-6.79,2.54,-1.34,-0.85,2.45,
2.586,3.34,-6.90,2.55,-1.34,-0.85,2.45,
2.586,3.34,-6.90,2.55,-1.36,-0.89,2.42,
2.586,3.34,-6.90,2.55,-1.37,-0.93,2.40,
2.587,3.54,-7.01,2.52,-1.37,-0.93,2.40,
2.587,3.54,-7.01,2.52,-1.38,-0.97,2.37,
2.587,3.54,-7.01,2.52,-1.39,-1.00,2.34,
2.587,3.70,-7.15,2.42,-1.39,-1.00,2.34,
2.588,3.70,-7.15,2.42,-1.40,-1.04,2.31,
2.588,3.80,-7.31,2.34,-1.40,-1.04,2.31,
2.588,3.80,-7.31,2.34,-1.41,-1.07,2.29,
2.588,3.80,-7.31,2.34,-1.41,-1.09,2.26,
2.589,3.80,-7.31,2.34,-1.42,-1.12,2.23,
2.589,3.93,-7.52,2.26,-1.42,-1.12,2.23,
2.589,3.93,-7.52,2.26,-1.42,-1.14,2.20,
2.591,3.93,-7.52,2.26,-1.41,-1.16,2.18,
2.592,4.05,-7.72,2.19,-1.41,-1.16,2.18,
2.594,4.05,-7.72,2.19,-1.41,-1.17,2.15,
2.596,4.05,-7.72,2.19,-1.41,-1.18,2.12,
2.597,4.20,-7.93,2.10,-1.41,-1.18,2.12,
2.6,4.20,-7.93,2.10,-1.40,-1.18,2.08,
2.6,4.20,-7.93,2.10,-1.40,-1.19,2.05,
2.6,4.31,-8.13,2.06,-1.40,-1.19,2.05,
2.602,4.31,-8.13,2.06,-1.39,-1.19,2.01,
2.606,4.31,-8.13,2.06,-1.38,-1.19,1.96,
2.606,4.42,-8.40,2.06,-1.38,-1.19,1.96,
2.608,4.42,-8.40,2.06,-1.36,-1.20,1.92,
2.61,4.42,-8.40,2.06,-1.34,-1.20,1.87,
2.61,4.58,-8.71,2.14,-1.34,-1.20,1.87,
2.62,4.58,-8.71,2.14,-1.32,-1.21,1.82,
2.621,4.58,-8.71,2.14,-1.30,-1.21,1.76,
2.621,4.74,-8.97,2.23,-1.30,-1.21,1.76,
2.621,4.74,-8.97,2.23,-1.27,-1.21,1.70,
2.621,4.74,-8.97,2.23,-1.24,-1.21,1.63,
2.622,4.96,-9.16,2.34,-1.24,-1.21,1.63,
2.624,4.96,-9.16,2.34,-1.20,-1.21,1.57,
2.625,4.96,-9.16,2.34,-1.16,-1.20,1.50,
2.625,5.10,-9.26,2.46,-1.16,-1.20,1.50,
2.627,5.10,-9.26,2.46,-1.11,-1.20,1.43,
2.63,5.22,-9.30,2.56,-1.11,-1.20,1.43,
2.631,5.22,-9.30,2.56,-1.07,-1.19,1.35,
2.632,5.22,-9.30,2.56,-1.02,-1.18,1.28,
2.635,5.27,-9.37,2.59,-1.02,-1.18,1.28,
2.635,5.27,-9.37,2.59,-0.96,-1.17,1.21,
2.637,5.27,-9.37,2.59,-0.91,-1.16,1.13,
2.639,5.27,-9.37,2.59,-0.85,-1.15,1.06,
2.64,5.26,-9.48,2.61,-0.85,-1.15,1.06,
2.642,5.26,-9.48,2.61,-0.79,-1.15,0.98,
2.645,5.26,-9.48,2.61,-0.74,-1.14,0.91,
2.645,5.17,-9.62,2.60,-0.74,-1.14,0.91,
2.65,5.17,-9.62,2.60,-0.68,-1.13,0.84,
2.65,5.01,-9.82,2.54,-0.68,-1.13,0.84,
2.65,5.01,-9.82,2.54,-0.62,-1.12,0.76,
2.653,5.01,-9.82,2.54,-0.57,-1.11,0.69,
2.655,4.79,-10.05,2.44,-0.57,-1.11,0.69,
2.656,4.79,-10.05,2.44,-0.52,-1.11,0.62,
2.657,4.79,-10.05,2.44,-0.47,-1.10,0.55,
2.661,4.79,-10.05,2.44,-0.42,-1.09,0.49,
2.661,4.52,-10.35,2.27,-0.42,-1.09,0.49,
2.662,4.52,-10.35,2.27,-0.38,-1.09,0.42,
2.665,4.52,-10.35,2.27,-0.34,-1.08,0.36,
2.665,4.23,-10.73,2.05,-0.34,-1.08,0.36,
2.668,4.23,-10.73,2.05,-0.30,-1.07,0.30,
2.671,4.23,-10.73,2.05,-0.26,-1.06,0.24,
2.671,3.98,-11.22,1.78,-0.26,-1.06,0.24,
2.672,3.98,-11.22,1.78,-0.23,-1.05,0.18,
2.674,3.98,-11.22,1.78,-0.21,-1.04,0.12,
2.675,3.85,-11.72,1.45,-0.21,-1.04,0.12,
2.678,3.85,-11.72,1.45,-0.19,-1.02,0.05,
2.68,3.84,-12.18,1.15,-0.19,-1.02,0.05,
2.682,3.84,-12.18,1.15,-0.18,-1.01,-0.02,
2.683,3.84,-12.18,1.15,-0.17,-0.99,-0.09,
2.684,3.84,-12.18,1.15,-0.17,-0.97,-0.17,
2.685,3.97,-12.55,0.87,-0.17,-0.97,-0.17,
2.687,3.97,-12.55,0.87,-0.17,-0.94,-0.26,
2.689,3.97,-12.55,0.87,-0.18,-0.91,-0.35,
2.69,4.26,-12.84,0.58,-0.18,-0.91,-0.35,
2.692,4.26,-12.84,0.58,-0.19,-0.88,-0.46,
2.694,4.26,-12.84,0.58,-0.20,-0.84,-0.57,
2.695,4.65,-13.08,0.31,-0.20,-0.84,-0.57,
2.697,4.65,-13.08,0.31,-0.22,-0.79,-0.69,
2.699,4.65,-13.08,0.31,-0.25,-0.74,-0.82,
2.7,5.13,-13.18,0.09,-0.25,-0.74,-0.82,
2.702,5.13,-13.18,0.09,-0.27,-0.68,-0.96,
2.704,5.13,-13.18,0.09,-0.29,-0.63,-1.11,
2.704,5.66,-13.18,-0.14,-0.29,-0.63,-1.11,
2.706,5.66,-13.18,-0.14,-0.32,-0.57,-1.27,
2.709,5.66,-13.18,-0.14,-0.34,-0.51,-1.43,
2.709,6.24,-12.99,-0.31,-0.34,-0.51,-1.43,
2.712,6.24,-12.99,-0.31,-0.35,-0.45,-1.61,
2.719,6.83,-12.63,-0.38,-0.35,-0.45,-1.61,
2.72,6.83,-12.63,-0.38,-0.36,-0.40,-1.80,
2.72,6.83,-12.63,-0.38,-0.36,-0.34,-1.99,
2.72,7.29,-12.09,-0.37,-0.36,-0.34,-1.99,
2.72,7.29,-12.09,-0.37,-0.34,-0.29,-2.20,
2.726,7.40,-11.48,-0.37,-0.34,-0.29,-2.20,
2.747,7.40,-11.48,-0.37,-0.32,-0.24,-2.42,
2.747,7.40,-11.48,-0.37,-0.27,-0.19,-2.64,
2.747,7.40,-11.48,-0.37,-0.21,-0.14,-2.86,
2.748,7.40,-11.48,-0.37,-0.14,-0.09,-3.08,
2.748,7.10,-10.79,-0.34,-0.14,-0.09,-3.08,
2.748,7.10,-10.79,-0.34,-0.05,-0.04,-3.30,
2.748,6.46,-10.07,-0.41,-0.05,-0.04,-3.30,
2.748,6.46,-10.07,-0.41,0.05,0.01,-3.50,
2.749,6.46,-10.07,-0.41,0.16,0.06,-3.68,
2.749,5.50,-9.39,-0.73,0.16,0.06,-3.68,
2.749,5.50,-9.39,-0.73,0.27,0.10,-3.85,
2.749,5.50,-9.39,-0.73,0.39,0.15,-3.99,
2.75,4.36,-8.72,-1.31,0.39,0.15,-3.99,
2.75,4.36,-8.72,-1.31,0.51,0.19,-4.10,
2.75,4.36,-8.72,-1.31,0.62,0.23,-4.19,
2.75,4.36,-8.72,-1.31,0.73,0.27,-4.25,
2.751,3.13,-8.04,-2.03,0.73,0.27,-4.25,
2.752,3.13,-8.04,-2.03,0.82,0.32,-4.29,
2.754,1.96,-7.26,-2.83,0.82,0.32,-4.29,
2.754,1.96,-7.26,-2.83,0.91,0.37,-4.30,
2.758,1.96,-7.26,-2.83,0.97,0.42,-4.28,
2.76,1.96,-7.26,-2.83,1.02,0.48,-4.24,
2.76,0.90,-6.53,-3.63,1.02,0.48,-4.24,
2.762,0.90,-6.53,-3.63,1.04,0.55,-4.17,
2.765,0.05,-5.91,-4.40,1.04,0.55,-4.17,
2.766,0.05,-5.91,-4.40,1.05,0.61,-4.09,
2.767,0.05,-5.91,-4.40,1.04,0.69,-3.99,
2.769,0.05,-5.91,-4.40,1.02,0.77,-3.88,
2.769,-0.62,-5.44,-5.12,1.02,0.77,-3.88,
2.771,-0.62,-5.44,-5.12,0.98,0.84,-3.77,
2.773,-0.62,-5.44,-5.12,0.93,0.91,-3.65,
2.773,-1.12,-5.21,-5.63,0.93,0.91,-3.65,
2.776,-1.12,-5.21,-5.63,0.87,0.98,-3.53,
2.779,-1.12,-5.21,-5.63,0.80,1.04,-3.42,
2.779,-1.38,-5.20,-5.86,0.80,1.04,-3.42,
2.781,-1.38,-5.20,-5.86,0.73,1.09,-3.32,
2.783,-1.38,-5.20,-5.86,0.66,1.13,-3.24,
2.784,-1.39,-5.36,-5.82,0.66,1.13,-3.24,
2.787,-1.39,-5.36,-5.82,0.58,1.16,-3.17,
2.789,-1.39,-5.36,-5.82,0.51,1.19,-3.11,
2.789,-1.32,-5.63,-5.59,0.51,1.19,-3.11,
2.791,-1.32,-5.63,-5.59,0.44,1.21,-3.07,
2.794,-1.32,-5.63,-5.59,0.37,1.23,-3.05,
2.797,-1.32,-5.63,-5.59,0.31,1.24,-3.04,
2.799,-1.23,-5.91,-5.29,0.31,1.24,-3.04,
2.799,-1.23,-5.91,-5.29,0.25,1.24,-3.05,
2.801,-1.23,-6.12,-4.94,0.25,1.24,-3.05,
2.802,-1.23,-6.12,-4.94,0.20,1.24,-3.06,
2.807,-1.23,-6.12,-4.94,0.15,1.22,-3.08,
2.808,-1.23,-6.12,-4.94,0.10,1.20,-3.11,
2.809,-1.23,-6.12,-4.94,0.06,1.17,-3.14,
2.81,-1.24,-6.33,-4.57,0.06,1.17,-3.14,
2.81,-1.31,-6.50,-4.22,0.06,1.17,-3.14,
2.811,-1.31,-6.50,-4.22,0.02,1.14,-3.18,
2.822,-1.31,-6.50,-4.22,-0.02,1.10,-3.22,
2.822,-1.31,-6.50,-4.22,-0.05,1.05,-3.26,
2.822,-1.31,-6.50,-4.22,-0.08,1.01,-3.31,
2.822,-1.31,-6.50,-4.22,-0.11,0.96,-3.36,
2.823,-1.42,-6.54,-3.86,-0.11,0.96,-3.36,
2.823,-1.59,-6.44,-3.61,-0.11,0.96,-3.36,
2.825,-1.59,-6.44,-3.61,-0.13,0.91,-3.42,
2.826,-1.78,-6.29,-3.39,-0.13,0.91,-3.42,
2.826,-1.78,-6.29,-3.39,-0.16,0.85,-3.47,
2.832,-2.02,-6.09,-3.23,-0.16,0.85,-3.47,
2.833,-2.02,-6.09,-3.23,-0.18,0.79,-3.52,
2.833,-2.02,-6.09,-3.23,-0.21,0.72,-3.57,
2.835,-2.02,-6.09,-3.23,-0.23,0.66,-3.61,
2.836,-2.28,-5.81,-3.15,-0.23,0.66,-3.61,
2.836,-2.28,-5.81,-3.15,-0.25,0.59,-3.65,
2.838,-2.28,-5.81,-3.15,-0.27,0.53,-3.69,
2.839,-2.49,-5.43,-3.11,-0.27,0.53,-3.69,
2.84,-2.49,-5.43,-3.11,-0.29,0.47,-3.72,
2.843,-2.49,-5.43,-3.11,-0.31,0.42,-3.75,
2.843,-2.61,-4.97,-3.16,-0.31,0.42,-3.75,
2.848,-2.61,-4.97,-3.16,-0.34,0.37,-3.78,
2.849,-2.61,-4.97,-3.16,-0.36,0.34,-3.81,
2.849,-2.65,-4.43,-3.20,-0.36,0.34,-3.81,
2.851,-2.65,-4.43,-3.20,-0.39,0.30,-3.83,
2.856,-2.65,-4.43,-3.20,-0.42,0.26,-3.86,
2.856,-2.72,-3.85,-3.23,-0.42,0.26,-3.86,
2.856,-2.72,-3.85,-3.23,-0.45,0.22,-3.88,
2.858,-2.72,-3.85,-3.23,-0.48,0.18,-3.90,
2.858,-2.82,-3.30,-3.26,-0.48,0.18,-3.90,
2.861,-2.82,-3.30,-3.26,-0.52,0.15,-3.91,
2.867,-2.82,-3.30,-3.26,-0.55,0.11,-3.92,
2.868,-2.98,-2.77,-3.26,-0.55,0.11,-3.92,
2.868,-2.98,-2.77,-3.26,-0.60,0.08,-3.92,
2.868,-2.98,-2.77,-3.26,-0.64,0.04,-3.92,
2.869,-3.14,-2.28,-3.24,-0.64,0.04,-3.92,
2.87,-3.14,-2.28,-3.24,-0.69,0.01,-3.92,
2.873,-3.38,-1.82,-3.14,-0.69,0.01,-3.92,
2.874,-3.38,-1.82,-3.14,-0.74,-0.02,-3.90,
2.876,-3.38,-1.82,-3.14,-0.79,-0.05,-3.88,
2.878,-3.38,-1.82,-3.14,-0.84,-0.08,-3.86,
2.878,-3.61,-1.40,-3.00,-0.84,-0.08,-3.86,
2.881,-3.61,-1.40,-3.00,-0.90,-0.11,-3.83,
2.883,-3.80,-1.04,-2.77,-0.90,-0.11,-3.83,
2.885,-3.80,-1.04,-2.77,-0.95,-0.14,-3.80,
2.885,-3.80,-1.04,-2.77,-1.01,-0.17,-3.76,
2.888,-3.80,-1.04,-2.77,-1.06,-0.20,-3.72,
2.9,-3.94,-0.71,-2.50,-1.06,-0.20,-3.72,
2.9,-3.94,-0.71,-2.50,-1.12,-0.23,-3.68,
2.9,-3.94,-0.71,-2.50,-1.17,-0.25,-3.63,
2.9,-4.04,-0.38,-2.16,-1.17,-0.25,-3.63,
2.901,-4.04,-0.38,-2.16,-1.22,-0.28,-3.58,
2.901,-4.04,-0.38,-2.16,-1.27,-0.30,-3.53,
2.901,-4.19,-0.10,-1.83,-1.27,-0.30,-3.53,
2.901,-4.19,-0.10,-1.83,-1.31,-0.31,-3.48,
2.903,-4.19,-0.10,-1.83,-1.36,-0.33,-3.42,
2.904,-4.36,0.16,-1.46,-1.36,-0.33,-3.42,
2.905,-4.36,0.16,-1.46,-1.39,-0.34,-3.36,
2.907,-4.36,0.16,-1.46,-1.42,-0.34,-3.30,
2.908,-4.54,0.40,-1.10,-1.42,-0.34,-3.30,
2.91,-4.54,0.40,-1.10,-1.45,-0.35,-3.23,
2.917,-4.73,0.58,-0.72,-1.45,-0.35,-3.23,
2.918,-4.73,0.58,-0.72,-1.47,-0.35,-3.16,
2.919,-4.73,0.58,-0.72,-1.48,-0.36,-3.09,
2.919,-4.73,0.58,-0.72,-1.49,-0.37,-3.01,
2.919,-4.84,0.72,-0.39,-1.49,-0.37,-3.01,
2.92,-4.84,0.72,-0.39,-1.50,-0.37,-2.94,
2.922,-4.84,0.72,-0.39,-1.50,-0.38,-2.87,
2.922,-4.92,0.82,-0.11,-1.50,-0.38,-2.87,
2.925,-4.92,0.82,-0.11,-1.50,-0.39,-2.79,
2.927,-4.92,0.82,-0.11,-1.50,-0.40,-2.72,
2.927,-4.92,0.93,0.13,-1.50,-0.40,-2.72,
2.932,-4.92,0.93,0.13,-1.49,-0.41,-2.65,
2.937,-4.92,0.93,0.13,-1.48,-0.41,-2.58,
2.937,-4.86,1.06,0.36,-1.48,-0.41,-2.58,
2.937,-4.86,1.06,0.36,-1.47,-0.42,-2.52,
2.938,-4.86,1.06,0.36,-1.46,-0.42,-2.46,
2.938,-4.75,1.19,0.51,-1.46,-0.42,-2.46,
2.941,-4.75,1.19,0.51,-1.45,-0.43,-2.40,
2.943,-4.75,1.19,0.51,-1.44,-0.44,-2.34,
2.943,-4.60,1.28,0.59,-1.44,-0.44,-2.34,
2.945,-4.60,1.28,0.59,-1.44,-0.44,-2.29,
2.949,-4.45,1.34,0.62,-1.44,-0.44,-2.29,
2.949,-4.45,1.34,0.62,-1.44,-0.45,-2.24,
2.95,-4.45,1.34,0.62,-1.44,-0.46,-2.19,
2.952,-4.45,1.34,0.62,-1.45,-0.47,-2.15,
2.952,-4.29,1.38,0.63,-1.45,-0.47,-2.15,
2.956,-4.29,1.38,0.63,-1.46,-0.48,-2.11,
2.957,-4.29,1.38,0.63,-1.47,-0.48,-2.08,
2.957,-4.18,1.41,0.66,-1.47,-0.48,-2.08,
2.96,-4.18,1.41,0.66,-1.49,-0.49,-2.05,
2.962,-4.18,1.41,0.66,-1.50,-0.50,-2.02,
2.962,-4.06,1.41,0.72,-1.50,-0.50,-2.02,
2.965,-4.06,1.41,0.72,-1.52,-0.51,-2.00,
2.967,-4.06,1.41,0.72,-1.54,-0.52,-1.98,
2.968,-3.98,1.45,0.84,-1.54,-0.52,-1.98,
2.969,-3.98,1.45,0.84,-1.55,-0.53,-1.97,
2.972,-3.98,1.45,0.84,-1.57,-0.53,-1.96,
2.973,-3.94,1.50,0.97,-1.57,-0.53,-1.96,
2.975,-3.94,1.50,0.97,-1.58,-0.55,-1.95,
2.977,-3.94,1.50,0.97,-1.59,-0.56,-1.94,
2.977,-3.91,1.61,1.07,-1.59,-0.56,-1.94,
2.981,-3.91,1.61,1.07,-1.60,-0.57,-1.94,
2.982,-3.91,1.61,1.07,-1.61,-0.58,-1.93,
2.982,-3.96,1.73,1.19,-1.61,-0.58,-1.93,
2.984,-3.96,1.73,1.19,-1.62,-0.59,-1.93,
2.987,-3.96,1.73,1.19,-1.62,-0.60,-1.93,
2.987,-4.06,1.88,1.30,-1.62,-0.60,-1.93,
2.989,-4.06,1.88,1.30,-1.63,-0.61,-1.92,
2.992,-4.06,1.88,1.30,-1.63,-0.62,-1.92,
2.992,-4.23,2.03,1.41,-1.63,-0.62,-1.92,
2.995,-4.23,2.03,1.41,-1.63,-0.63,-1.91,
2.997,-4.23,2.03,1.41,-1.62,-0.64,-1.90,
2.998,-4.41,2.26,1.46,-1.62,-0.64,-1.90,
2.999,-4.41,2.26,1.46,-1.62,-0.66,-1.88,
3.002,-4.59,2.47,1.54,-1.62,-0.66,-1.88,
3.002,-4.59,2.47,1.54,-1.62,-0.67,-1.87,
3.004,-4.59,2.47,1.54,-1.61,-0.68,-1.86,
3.007,-4.59,2.47,1.54,-1.61,-0.69,-1.83,
3.008,-4.72,2.67,1.57,-1.61,-0.69,-1.83,
3.009,-4.72,2.67,1.57,-1.60,-0.70,-1.81,
3.012,-4.72,2.67,1.57,-1.60,-0.71,-1.78,
3.022,-4.77,2.88,1.57,-1.60,-0.71,-1.78,
3.023,-4.77,2.88,1.57,-1.60,-0.71,-1.75,
3.023,-4.81,3.09,1.57,-1.60,-0.71,-1.75,
3.024,-4.81,3.09,1.57,-1.60,-0.71,-1.72,
3.024,-4.81,3.09,1.57,-1.60,-0.71,-1.69,
3.024,-4.81,3.09,1.57,-1.60,-0.70,-1.66,
3.026,-4.76,3.31,1.60,-1.60,-0.70,-1.66,
3.027,-4.76,3.31,1.60,-1.61,-0.70,-1.63,
3.027,-4.76,3.31,1.60,-1.61,-0.69,-1.60,
3.027,-4.72,3.51,1.64,-1.61,-0.69,-1.60,
3.038,-4.72,3.51,1.64,-1.62,-0.69,-1.56,
3.039,-4.72,3.51,1.64,-1.62,-0.68,-1.54,
3.039,-4.63,3.72,1.73,-1.62,-0.68,-1.54,
3.04,-4.63,3.72,1.73,-1.62,-0.67,-1.51,
3.04,-4.63,3.72,1.73,-1.62,-0.67,-1.49,
3.04,-4.58,3.91,1.85,-1.62,-0.67,-1.49,
3.041,-4.58,3.91,1.85,-1.62,-0.66,-1.47,
3.041,-4.58,3.91,1.85,-1.62,-0.66,-1.45,
3.042,-4.56,4.08,2.01,-1.62,-0.66,-1.45,
3.044,-4.56,4.08,2.01,-1.61,-0.66,-1.43,
3.05,-4.56,4.08,2.01,-1.60,-0.65,-1.41,
3.051,-4.56,4.08,2.01,-1.60,-0.66,-1.39,
3.051,-4.52,4.27,2.16,-1.60,-0.66,-1.39,
3.051,-4.52,4.27,2.16,-1.59,-0.66,-1.38,
3.052,-4.53,4.47,2.32,-1.59,-0.66,-1.38,
3.075,-4.53,4.47,2.32,-1.58,-0.66,-1.37,
3.075,-4.55,4.73,2.51,-1.58,-0.66,-1.37,
3.075,-4.55,4.73,2.51,-1.56,-0.67,-1.35,
3.075,-4.55,4.73,2.51,-1.55,-0.68,-1.33,
3.075,-4.55,4.73,2.51,-1.54,-0.69,-1.31,
3.076,-4.57,4.95,2.65,-1.54,-0.69,-1.31,
3.076,-4.57,4.95,2.65,-1.52,-0.70,-1.29,
3.076,-4.57,4.95,2.65,-1.51,-0.72,-1.26,
3.076,-4.59,5.21,2.79,-1.51,-0.72,-1.26,
3.076,-4.59,5.21,2.79,-1.49,-0.74,-1.24,
3.077,-4.59,5.21,2.79,-1.48,-0.76,-1.21,
3.077,-4.61,5.44,2.90,-1.48,-0.76,-1.21,
3.077,-4.61,5.44,2.90,-1.46,-0.78,-1.19,
3.077,-4.61,5.44,2.90,-1.44,-0.81,-1.16,
3.077,-4.68,5.67,2.98,-1.44,-0.81,-1.16,
3.08,-4.68,5.67,2.98,-1.42,-0.83,-1.13,
3.081,-4.68,5.67,2.98,-1.41,-0.86,-1.10,
3.081,-4.72,5.85,2.98,-1.41,-0.86,-1.10,
3.083,-4.72,5.85,2.98,-1.39,-0.89,-1.06,
3.086,-4.72,5.85,2.98,-1.38,-0.91,-1.02,
3.086,-4.68,6.00,2.96,-1.38,-0.91,-1.02,
3.088,-4.68,6.00,2.96,-1.37,-0.94,-0.99,
3.091,-4.68,6.00,2.96,-1.37,-0.96,-0.95,
3.091,-4.65,6.12,2.90,-1.37,-0.96,-0.95,
3.093,-4.65,6.12,2.90,-1.37,-0.99,-0.91,
3.096,-4.65,6.12,2.90,-1.37,-1.01,-0.86,
3.097,-4.61,6.17,2.82,-1.37,-1.01,-0.86,
3.098,-4.61,6.17,2.82,-1.37,-1.03,-0.82,
3.101,-4.61,6.17,2.82,-1.38,-1.04,-0.78,
3.101,-4.58,6.18,2.74,-1.38,-1.04,-0.78,
3.103,-4.58,6.18,2.74,-1.38,-1.06,-0.74,
3.106,-4.58,6.18,2.74,-1.39,-1.07,-0.70,
3.106,-4.57,6.15,2.67,-1.39,-1.07,-0.70,
3.108,-4.57,6.15,2.67,-1.39,-1.08,-0.65,
3.111,-4.57,6.15,2.67,-1.40,-1.09,-0.62,
3.111,-4.52,6.04,2.64,-1.40,-1.09,-0.62,
3.117,-4.52,6.04,2.64,-1.40,-1.09,-0.58,
3.117,-4.52,6.04,2.64,-1.40,-1.09,-0.55,
3.117,-4.50,5.87,2.61,-1.40,-1.09,-0.55,
3.125,-4.50,5.87,2.61,-1.40,-1.09,-0.52,
3.125,-4.50,5.87,2.61,-1.40,-1.09,-0.49,
3.126,-4.50,5.68,2.63,-1.40,-1.09,-0.49,
3.126,-4.50,5.68,2.63,-1.40,-1.08,-0.47,
3.126,-4.50,5.68,2.63,-1.39,-1.06,-0.44,
3.127,-4.52,5.48,2.65,-1.39,-1.06,-0.44,
3.128,-4.52,5.48,2.65,-1.38,-1.04,-0.42,
3.132,-4.52,5.48,2.65,-1.37,-1.02,-0.40,
3.132,-4.55,5.29,2.72,-1.37,-1.02,-0.40,
3.135,-4.55,5.29,2.72,-1.35,-1.00,-0.39,
3.136,-4.59,5.11,2.84,-1.35,-1.00,-0.39,
3.136,-4.59,5.11,2.84,-1.33,-0.97,-0.37,
3.138,-4.59,5.11,2.84,-1.31,-0.94,-0.36,
3.142,-4.59,5.11,2.84,-1.28,-0.90,-0.35,
3.142,-4.65,4.97,2.96,-1.28,-0.90,-0.35,
3.143,-4.65,4.97,2.96,-1.25,-0.87,-0.34,
3.146,-4.65,4.97,2.96,-1.21,-0.83,-0.33,
3.146,-4.75,4.82,3.08,-1.21,-0.83,-0.33,
3.15,-4.75,4.82,3.08,-1.17,-0.79,-0.32,
3.15,-4.75,4.82,3.08,-1.13,-0.75,-0.31,
3.15,-4.89,4.74,3.25,-1.13,-0.75,-0.31,
3.154,-4.89,4.74,3.25,-1.09,-0.70,-0.30,
3.157,-4.89,4.74,3.25,-1.04,-0.65,-0.29,
3.157,-5.04,4.61,3.41,-1.04,-0.65,-0.29,
3.158,-5.04,4.61,3.41,-0.99,-0.60,-0.28,
3.16,-5.04,4.61,3.41,-0.94,-0.54,-0.27,
3.16,-5.22,4.48,3.56,-0.94,-0.54,-0.27,
3.163,-5.22,4.48,3.56,-0.89,-0.48,-0.27,
3.166,-5.49,4.34,3.75,-0.89,-0.48,-0.27,
3.166,-5.49,4.34,3.75,-0.84,-0.42,-0.25,
3.168,-5.49,4.34,3.75,-0.78,-0.36,-0.24,
3.17,-5.49,4.34,3.75,-0.73,-0.30,-0.23,
3.17,-5.78,4.15,3.93,-0.73,-0.30,-0.23,
3.173,-5.78,4.15,3.93,-0.67,-0.23,-0.22,
3.175,-5.78,4.15,3.93,-0.62,-0.17,-0.20,
3.175,-6.11,3.95,4.09,-0.62,-0.17,-0.20,
3.178,-6.11,3.95,4.09,-0.56,-0.10,-0.19,
3.18,-6.11,3.95,4.09,-0.50,-0.03,-0.17,
3.181,-6.50,3.79,4.27,-0.50,-0.03,-0.17,
3.182,-6.50,3.79,4.27,-0.44,0.03,-0.15,
3.185,-7.01,3.59,4.44,-0.44,0.03,-0.15,
3.186,-7.01,3.59,4.44,-0.38,0.11,-0.12,
3.187,-7.01,3.59,4.44,-0.32,0.18,-0.10,
3.19,-7.01,3.59,4.44,-0.25,0.24,-0.07,
3.19,-7.50,3.35,4.63,-0.25,0.24,-0.07,
3.192,-7.50,3.35,4.63,-0.19,0.31,-0.04,
3.196,-7.50,3.35,4.63,-0.13,0.38,-0.01,
3.196,-8.01,3.08,4.79,-0.13,0.38,-0.01,
3.199,-8.01,3.08,4.79,-0.07,0.44,0.03,
3.2,-8.01,3.08,4.79,-0.01,0.51,0.06,
3.2,-8.52,2.79,4.94,-0.01,0.51,0.06,
3.202,-8.52,2.79,4.94,0.06,0.57,0.10,
3.206,-9.01,2.50,5.04,0.06,0.57,0.10,
3.206,-9.01,2.50,5.04,0.12,0.63,0.13,
3.208,-9.01,2.50,5.04,0.18,0.68,0.17,
3.21,-9.01,2.50,5.04,0.24,0.74,0.21,
3.21,-9.45,2.27,5.18,0.24,0.74,0.21,
3.212,-9.45,2.27,5.18,0.30,0.78,0.24,
3.22,-9.45,2.27,5.18,0.36,0.82,0.28,
3.22,-9.87,2.06,5.34,0.36,0.82,0.28,
3.22,-9.87,2.06,5.34,0.43,0.85,0.31,
3.24,-10.16,1.99,5.49,0.43,0.85,0.31,
3.241,-10.16,1.99,5.49,0.49,0.88,0.35,
3.241,-10.16,1.99,5.49,0.55,0.91,0.38,
3.242,-10.16,1.99,5.49,0.61,0.92,0.41,
3.242,-10.36,2.08,5.60,0.61,0.92,0.41,
3.243,-10.36,2.08,5.60,0.68,0.94,0.45,
3.243,-10.46,2.28,5.75,0.68,0.94,0.45,
3.244,-10.46,2.28,5.75,0.75,0.94,0.48,
3.244,-10.46,2.28,5.75,0.82,0.93,0.51,
3.245,-10.46,2.28,5.75,0.89,0.92,0.55,
3.245,-10.50,2.61,5.88,0.89,0.92,0.55,
3.245,-10.50,2.61,5.88,0.97,0.90,0.59,
3.246,-10.48,3.03,5.99,0.97,0.90,0.59,
3.246,-10.48,3.03,5.99,1.04,0.87,0.64,
3.246,-10.48,3.03,5.99,1.12,0.83,0.69,
3.247,-10.40,3.45,6.07,1.12,0.83,0.69,
3.247,-10.40,3.45,6.07,1.20,0.78,0.75,
3.248,-10.40,3.45,6.07,1.28,0.72,0.82,
3.25,-10.40,3.45,6.07,1.37,0.65,0.90,
3.25,-10.26,3.84,6.04,1.37,0.65,0.90,
3.255,-10.07,4.15,5.90,1.37,0.65,0.90,
3.256,-10.07,4.15,5.90,1.45,0.58,0.99,
3.256,-10.07,4.15,5.90,1.53,0.50,1.08,
3.257,-10.07,4.15,5.90,1.60,0.43,1.19,
3.26,-10.07,4.15,5.90,1.67,0.36,1.31,
3.26,-9.82,4.36,5.69,1.67,0.36,1.31,
3.262,-9.82,4.36,5.69,1.73,0.29,1.44,
3.265,-9.50,4.44,5.37,1.73,0.29,1.44,
3.266,-9.50,4.44,5.37,1.78,0.23,1.57,
3.267,-9.50,4.44,5.37,1.83,0.17,1.70,
3.27,-9.06,4.36,4.99,1.83,0.17,1.70,
3.27,-9.06,4.36,4.99,1.86,0.11,1.84,
3.272,-9.06,4.36,4.99,1.89,0.06,1.98,
3.274,-8.51,4.09,4.53,1.89,0.06,1.98,
3.275,-8.51,4.09,4.53,1.92,0.01,2.12,
3.277,-8.51,4.09,4.53,1.94,-0.04,2.26,
3.281,-7.96,3.65,4.06,1.94,-0.04,2.26,
3.282,-7.96,3.65,4.06,1.95,-0.09,2.39,
3.282,-7.96,3.65,4.06,1.96,-0.13,2.51,
3.284,-7.41,3.07,3.59,1.96,-0.13,2.51,
3.286,-7.41,3.07,3.59,1.96,-0.18,2.62,
3.287,-7.41,3.07,3.59,1.96,-0.22,2.73,
3.289,-6.85,2.43,3.18,1.96,-0.22,2.73,
3.289,-6.85,2.43,3.18,1.97,-0.26,2.82,
3.292,-6.85,2.43,3.18,1.97,-0.30,2.91,
3.295,-6.29,1.76,2.85,1.97,-0.30,2.91,
3.295,-6.29,1.76,2.85,1.97,-0.33,2.99,
3.297,-6.29,1.76,2.85,1.97,-0.35,3.06,
3.299,-6.29,1.76,2.85,1.97,-0.37,3.12,
3.299,-5.71,1.09,2.56,1.97,-0.37,3.12,
3.302,-5.71,1.09,2.56,1.98,-0.38,3.17,
3.305,-5.15,0.42,2.28,1.98,-0.38,3.17,
3.305,-5.15,0.42,2.28,1.99,-0.39,3.21,
3.308,-5.15,0.42,2.28,2.01,-0.39,3.23,
3.31,-5.15,0.42,2.28,2.03,-0.39,3.26,
3.31,-4.59,-0.18,2.02,2.03,-0.39,3.26,
3.316,-4.59,-0.18,2.02,2.05,-0.38,3.27,
3.318,-4.59,-0.18,2.02,2.07,-0.36,3.28,
3.318,-4.08,-0.71,1.72,2.07,-0.36,3.28,
3.319,-4.08,-0.71,1.72,2.09,-0.34,3.27,
3.323,-4.08,-0.71,1.72,2.12,-0.31,3.26,
3.323,-3.55,-1.12,1.44,2.12,-0.31,3.26,
3.323,-3.55,-1.12,1.44,2.15,-0.28,3.25,
3.324,-3.06,-1.48,1.19,2.15,-0.28,3.25,
3.325,-3.06,-1.48,1.19,2.17,-0.24,3.22,
3.326,-3.06,-1.48,1.19,2.20,-0.19,3.20,
3.329,-2.65,-1.75,0.91,2.20,-0.19,3.20,
3.332,-2.65,-1.75,0.91,2.23,-0.15,3.16,
3.333,-2.65,-1.75,0.91,2.26,-0.09,3.13,
3.334,-2.36,-1.95,0.72,2.26,-0.09,3.13,
3.334,-2.36,-1.95,0.72,2.28,-0.03,3.10,
3.336,-2.36,-1.95,0.72,2.31,0.03,3.06,
3.339,-2.36,-1.95,0.72,2.33,0.10,3.03,
3.339,-2.16,-2.09,0.53,2.33,0.10,3.03,
3.341,-2.16,-2.09,0.53,2.35,0.17,3.00,
3.344,-2.16,-2.09,0.53,2.36,0.24,2.97,
3.344,-2.05,-2.19,0.40,2.36,0.24,2.97,
3.35,-2.05,-2.19,0.40,2.38,0.32,2.94,
3.351,-2.05,-2.19,0.40,2.39,0.39,2.92,
3.351,-1.99,-2.28,0.35,2.39,0.39,2.92,
3.352,-1.99,-2.28,0.35,2.40,0.46,2.90,
3.354,-1.99,-2.28,0.35,2.41,0.53,2.89,
3.354,-1.99,-2.35,0.37,2.41,0.53,2.89,
3.356,-1.99,-2.35,0.37,2.42,0.60,2.88,
3.359,-1.99,-2.35,0.37,2.43,0.66,2.88,
3.359,-2.01,-2.42,0.44,2.43,0.66,2.88,
3.361,-2.01,-2.42,0.44,2.43,0.72,2.88,
3.365,-2.01,-2.42,0.44,2.44,0.77,2.88,
3.366,-2.02,-2.50,0.58,2.44,0.77,2.88,
3.366,-2.02,-2.50,0.58,2.44,0.82,2.89,
3.369,-2.02,-2.50,0.58,2.45,0.86,2.90,
3.369,-2.01,-2.58,0.77,2.45,0.86,2.90,
3.371,-2.01,-2.58,0.77,2.46,0.89,2.91,
3.374,-2.01,-2.58,0.77,2.47,0.92,2.93,
3.374,-1.93,-2.66,0.99,2.47,0.92,2.93,
3.378,-1.93,-2.66,0.99,2.47,0.94,2.94,
3.379,-1.93,-2.66,0.99,2.49,0.96,2.96,
3.379,-1.82,-2.76,1.17,2.49,0.96,2.96,
3.382,-1.82,-2.76,1.17,2.50,0.98,2.97,
3.384,-1.64,-2.85,1.28,2.50,0.98,2.97,
3.402,-1.64,-2.85,1.28,2.51,0.99,2.98,
3.402,-1.64,-2.85,1.28,2.53,0.99,3.00,
3.402,-1.64,-2.85,1.28,2.54,1.00,3.01,
3.403,-1.41,-2.94,1.39,2.54,1.00,3.01,
3.403,-1.41,-2.94,1.39,2.56,1.00,3.02,
3.403,-1.41,-2.94,1.39,2.57,1.00,3.02,
3.403,-1.17,-3.06,1.43,2.57,1.00,3.02,
3.404,-1.17,-3.06,1.43,2.59,1.00,3.03,
3.404,-0.93,-3.18,1.41,2.59,1.00,3.03,
3.404,-0.93,-3.18,1.41,2.61,1.00,3.03,
3.404,-0.93,-3.18,1.41,2.62,1.00,3.03,
3.404,-0.93,-3.18,1.41,2.64,0.99,3.03,
3.405,-0.71,-3.29,1.37,2.64,0.99,3.03,
3.406,-0.71,-3.29,1.37,2.66,0.99,3.03,
3.408,-0.53,-3.41,1.28,2.66,0.99,3.03,
3.409,-0.53,-3.41,1.28,2.68,0.98,3.03,
3.411,-0.53,-3.41,1.28,2.70,0.97,3.02,
3.415,-0.53,-3.41,1.28,2.72,0.96,3.01,
3.416,-0.34,-3.50,1.15,2.72,0.96,3.01,
3.416,-0.34,-3.50,1.15,2.74,0.95,3.00,
3.418,-0.34,-3.50,1.15,2.76,0.95,2.99,
3.418,-0.20,-3.60,0.94,2.76,0.95,2.99,
3.421,-0.20,-3.60,0.94,2.77,0.94,2.98,
3.423,-0.20,-3.60,0.94,2.78,0.93,2.97,
3.423,-0.09,-3.71,0.67,2.78,0.93,2.97,
3.426,-0.09,-3.71,0.67,2.78,0.93,2.96,
3.428,-0.09,-3.71,0.67,2.78,0.92,2.95,
3.428,0.08,-3.78,0.36,2.78,0.92,2.95,
3.44,0.08,-3.78,0.36,2.78,0.91,2.94,
3.44,0.08,-3.78,0.36,2.76,0.91,2.93,
3.44,0.23,-3.84,0.04,2.76,0.91,2.93,
3.44,0.23,-3.84,0.04,2.74,0.90,2.92,
3.441,0.23,-3.84,0.04,2.72,0.89,2.91,
3.441,0.36,-3.88,-0.31,2.72,0.89,2.91,
3.441,0.36,-3.88,-0.31,2.69,0.89,2.90,
3.443,0.36,-3.88,-0.31,2.65,0.88,2.90,
3.443,0.50,-3.95,-0.59,2.65,0.88,2.90,
3.445,0.50,-3.95,-0.59,2.61,0.88,2.89,
3.448,0.62,-4.02,-0.86,2.61,0.88,2.89,
3.448,0.62,-4.02,-0.86,2.56,0.88,2.88,
3.45,0.62,-4.02,-0.86,2.50,0.88,2.88,
3.453,0.62,-4.02,-0.86,2.44,0.88,2.87,
3.454,0.75,-4.08,-1.14,2.44,0.88,2.87,
3.456,0.75,-4.08,-1.14,2.37,0.88,2.87,
3.458,0.75,-4.08,-1.14,2.30,0.88,2.86,
3.459,0.85,-4.16,-1.35,2.30,0.88,2.86,
3.46,0.85,-4.16,-1.35,2.22,0.88,2.86,
3.463,0.85,-4.16,-1.35,2.14,0.88,2.85,
3.463,0.93,-4.21,-1.48,2.14,0.88,2.85,
3.466,0.93,-4.21,-1.48,2.05,0.88,2.84,
3.468,1.03,-4.28,-1.58,2.05,0.88,2.84,
3.468,1.03,-4.28,-1.58,1.96,0.87,2.84,
3.47,1.03,-4.28,-1.58,1.87,0.86,2.83,
3.473,1.11,-4.39,-1.58,1.87,0.86,2.83,
3.473,1.11,-4.39,-1.58,1.78,0.86,2.83,
3.475,1.11,-4.39,-1.58,1.68,0.85,2.82,
3.477,1.11,-4.39,-1.58,1.58,0.84,2.82,
3.478,1.19,-4.52,-1.54,1.58,0.84,2.82,
3.48,1.19,-4.52,-1.54,1.48,0.82,2.81,
3.483,1.26,-4.67,-1.44,1.48,0.82,2.81,
3.484,1.26,-4.67,-1.44,1.38,0.81,2.80,
3.486,1.26,-4.67,-1.44,1.28,0.79,2.79,
3.488,1.34,-4.84,-1.28,1.28,0.79,2.79,
3.488,1.34,-4.84,-1.28,1.18,0.77,2.78,
3.49,1.34,-4.84,-1.28,1.08,0.74,2.77,
3.492,1.34,-4.84,-1.28,0.99,0.71,2.76,
3.493,1.40,-5.00,-1.09,0.99,0.71,2.76,
3.495,1.40,-5.00,-1.09,0.90,0.67,2.74,
3.498,1.40,-5.00,-1.09,0.81,0.64,2.73,
3.498,1.50,-5.17,-0.90,0.81,0.64,2.73,
3.5,1.50,-5.17,-0.90,0.72,0.61,2.71,
3.502,1.50,-5.17,-0.90,0.63,0.57,2.69,
3.502,1.62,-5.31,-0.73,0.63,0.57,2.69,
3.506,1.62,-5.31,-0.73,0.55,0.53,2.67,
3.508,1.62,-5.31,-0.73,0.46,0.50,2.65,
3.508,1.72,-5.48,-0.54,0.46,0.50,2.65,
3.51,1.72,-5.48,-0.54,0.38,0.46,2.63,
3.513,1.72,-5.48,-0.54,0.30,0.42,2.61,
3.513,1.87,-5.60,-0.39,0.30,0.42,2.61,
3.517,1.87,-5.60,-0.39,0.23,0.38,2.59,
3.52,1.98,-5.73,-0.22,0.23,0.38,2.59,
3.521,1.98,-5.73,-0.22,0.15,0.34,2.57,
3.523,1.98,-5.73,-0.22,0.08,0.30,2.54,
3.523,1.98,-5.73,-0.22,0.01,0.26,2.52,
3.523,2.11,-5.86,-0.07,0.01,0.26,2.52,
3.526,2.11,-5.86,-0.07,-0.06,0.23,2.49,
3.528,2.11,-5.86,-0.07,-0.12,0.19,2.47,
3.528,2.25,-5.98,0.11,-0.12,0.19,2.47,
3.536,2.25,-5.98,0.11,-0.19,0.15,2.44,
3.536,2.25,-5.98,0.11,-0.24,0.11,2.41,
3.537,2.36,-6.10,0.27,-0.24,0.11,2.41,
3.537,2.36,-6.10,0.27,-0.30,0.08,2.39,
3.537,2.48,-6.18,0.44,-0.30,0.08,2.39,
3.539,2.48,-6.18,0.44,-0.35,0.05,2.36,
3.539,2.48,-6.18,0.44,-0.39,0.01,2.33,
3.542,2.48,-6.18,0.44,-0.43,-0.02,2.30,
3.543,2.61,-6.27,0.61,-0.43,-0.02,2.30,
3.545,2.61,-6.27,0.61,-0.46,-0.05,2.27,
3.549,2.61,-6.27,0.61,-0.49,-0.08,2.24,
3.549,2.76,-6.35,0.74,-0.49,-0.08,2.24,
3.564,2.76,-6.35,0.74,-0.52,-0.11,2.20,
3.565,2.76,-6.35,0.74,-0.54,-0.14,2.17,
3.565,2.93,-6.41,0.83,-0.54,-0.14,2.17,
3.565,3.06,-6.44,0.90,-0.54,-0.14,2.17,
3.565,3.06,-6.44,0.90,-0.56,-0.17,2.14,
3.566,3.06,-6.44,0.90,-0.58,-0.19,2.10,
3.566,3.06,-6.44,0.90,-0.59,-0.22,2.07,
3.566,3.19,-6.45,0.97,-0.59,-0.22,2.07,
3.567,3.19,-6.45,0.97,-0.61,-0.25,2.03,
3.567,3.19,-6.45,0.97,-0.62,-0.27,2.00,
3.568,3.34,-6.47,0.97,-0.62,-0.27,2.00,
3.57,3.34,-6.47,0.97,-0.63,-0.29,1.96,
3.57,3.34,-6.47,0.97,-0.65,-0.31,1.93,
3.572,3.45,-6.47,1.02,-0.65,-0.31,1.93,
3.572,3.45,-6.47,1.02,-0.65,-0.33,1.90,
3.574,3.45,-6.47,1.02,-0.66,-0.35,1.87,
3.577,3.56,-6.45,1.07,-0.66,-0.35,1.87,
3.577,3.56,-6.45,1.07,-0.67,-0.37,1.84,
3.579,3.56,-6.45,1.07,-0.67,-0.39,1.81,
3.583,3.70,-6.42,1.09,-0.67,-0.39,1.81,
3.583,3.70,-6.42,1.09,-0.68,-0.40,1.78,
3.586,3.70,-6.42,1.09,-0.68,-0.42,1.75,
3.586,3.83,-6.39,1.12,-0.68,-0.42,1.75,
3.587,3.83,-6.39,1.12,-0.68,-0.44,1.72,
3.589,3.83,-6.39,1.12,-0.68,-0.45,1.69,
3.592,3.98,-6.36,1.10,-0.68,-0.45,1.69,
3.592,3.98,-6.36,1.10,-0.68,-0.47,1.66,
3.594,3.98,-6.36,1.10,-0.68,-0.48,1.63,
3.6,4.14,-6.32,1.12,-0.68,-0.48,1.63,
3.602,4.14,-6.32,1.12,-0.67,-0.49,1.60,
3.602,4.14,-6.32,1.12,-0.67,-0.50,1.57,
3.603,4.29,-6.29,1.12,-0.67,-0.50,1.57,
3.603,4.29,-6.29,1.12,-0.66,-0.50,1.54,
3.604,4.29,-6.29,1.12,-0.65,-0.51,1.51,
3.606,4.43,-6.28,1.11,-0.65,-0.51,1.51,
3.607,4.43,-6.28,1.11,-0.64,-0.51,1.48,
3.609,4.43,-6.28,1.11,-0.62,-0.52,1.44,
3.611,4.56,-6.30,1.09,-0.62,-0.52,1.44,
3.612,4.56,-6.30,1.09,-0.60,-0.53,1.41,
3.621,4.56,-6.30,1.09,-0.59,-0.53,1.37,
3.621,4.70,-6.32,1.02,-0.59,-0.53,1.37,
3.622,4.70,-6.32,1.02,-0.56,-0.53,1.32,
3.622,4.70,-6.32,1.02,-0.54,-0.54,1.28,
3.622,4.79,-6.37,0.91,-0.54,-0.54,1.28,
3.625,4.79,-6.37,0.91,-0.52,-0.54,1.24,
3.625,4.79,-6.37,0.91,-0.50,-0.55,1.20,
3.626,4.89,-6.48,0.77,-0.50,-0.55,1.20,
3.627,4.89,-6.48,0.77,-0.48,-0.54,1.16,
3.629,4.89,-6.48,0.77,-0.46,-0.54,1.12,
3.638,4.95,-6.56,0.59,-0.46,-0.54,1.12,
3.639,4.95,-6.56,0.59,-0.45,-0.53,1.08,
3.639,4.95,-6.56,0.59,-0.43,-0.53,1.04,
3.639,5.03,-6.67,0.42,-0.43,-0.53,1.04,
3.639,5.03,-6.67,0.42,-0.42,-0.51,1.00,
3.64,5.03,-6.67,0.42,-0.41,-0.50,0.96,
3.641,5.10,-6.75,0.30,-0.41,-0.50,0.96,
3.641,5.10,-6.75,0.30,-0.39,-0.48,0.93,
3.644,5.10,-6.75,0.30,-0.38,-0.47,0.88,
3.646,5.10,-6.75,0.30,-0.37,-0.45,0.84,
3.646,5.20,-6.82,0.20,-0.37,-0.45,0.84,
3.649,5.20,-6.82,0.20,-0.36,-0.43,0.80,
3.651,5.20,-6.82,0.20,-0.35,-0.41,0.76,
3.651,5.33,-6.93,0.11,-0.35,-0.41,0.76,
3.653,5.33,-6.93,0.11,-0.34,-0.39,0.71,
3.657,5.33,-6.93,0.11,-0.33,-0.36,0.66,
3.657,5.45,-7.01,0.01,-0.33,-0.36,0.66,
3.659,5.45,-7.01,0.01,-0.33,-0.33,0.61,
3.662,5.45,-7.01,0.01,-0.32,-0.31,0.56,
3.662,5.57,-7.10,-0.06,-0.32,-0.31,0.56,
3.664,5.57,-7.10,-0.06,-0.32,-0.28,0.52,
3.666,5.57,-7.10,-0.06,-0.31,-0.25,0.46,
3.667,5.70,-7.19,-0.09,-0.31,-0.25,0.46,
3.668,5.70,-7.19,-0.09,-0.31,-0.22,0.41,
3.671,5.70,-7.19,-0.09,-0.30,-0.19,0.36,
3.671,5.80,-7.27,-0.11,-0.30,-0.19,0.36,
3.673,5.80,-7.27,-0.11,-0.30,-0.16,0.30,
3.675,5.80,-7.27,-0.11,-0.30,-0.14,0.24,
3.676,5.89,-7.34,-0.09,-0.30,-0.14,0.24,
3.678,5.89,-7.34,-0.09,-0.30,-0.11,0.18,
3.681,5.96,-7.40,-0.05,-0.30,-0.11,0.18,
3.681,5.96,-7.40,-0.05,-0.30,-0.09,0.12,
3.683,5.96,-7.40,-0.05,-0.30,-0.06,0.06,
3.687,6.02,-7.49,-0.03,-0.30,-0.06,0.06,
3.687,6.02,-7.49,-0.03,-0.30,-0.04,-0.01,
3.688,6.02,-7.49,-0.03,-0.30,-0.02,-0.08,
3.691,6.02,-7.49,-0.03,-0.30,-0.00,-0.15,
3.691,6.03,-7.59,-0.01,-0.30,-0.00,-0.15,
3.693,6.03,-7.59,-0.01,-0.30,0.01,-0.22,
3.696,6.03,-7.59,-0.01,-0.31,0.03,-0.29,
3.696,5.99,-7.73,-0.02,-0.31,0.03,-0.29,
3.699,5.99,-7.73,-0.02,-0.32,0.04,-0.37,
3.701,5.99,-7.73,-0.02,-0.32,0.05,-0.44,
3.701,5.89,-7.96,-0.04,-0.32,0.05,-0.44,
3.703,5.89,-7.96,-0.04,-0.33,0.05,-0.52,
3.706,5.75,-8.20,-0.03,-0.33,0.05,-0.52,
3.706,5.75,-8.20,-0.03,-0.34,0.05,-0.60,
3.711,5.58,-8.51,-0.07,-0.34,0.05,-0.60,
3.717,5.58,-8.51,-0.07,-0.36,0.04,-0.69,
3.724,5.58,-8.51,-0.07,-0.37,0.04,-0.77,
3.724,5.58,-8.51,-0.07,-0.38,0.03,-0.86,
3.748,5.58,-8.51,-0.07,-0.39,0.03,-0.96,
3.748,5.32,-8.80,-0.12,-0.39,0.03,-0.96,
3.749,5.32,-8.80,-0.12,-0.41,0.03,-1.05,
3.749,5.32,-8.80,-0.12,-0.42,0.03,-1.15,
3.75,4.95,-9.10,-0.21,-0.42,0.03,-1.15,
3.75,4.95,-9.10,-0.21,-0.44,0.03,-1.24,
3.75,4.95,-9.10,-0.21,-0.45,0.03,-1.34,
3.751,4.50,-9.45,-0.35,-0.45,0.03,-1.34,
3.751,4.50,-9.45,-0.35,-0.47,0.04,-1.44,
3.752,3.93,-9.89,-0.52,-0.47,0.04,-1.44,
3.752,3.93,-9.89,-0.52,-0.48,0.04,-1.54,
3.752,3.93,-9.89,-0.52,-0.50,0.05,-1.63,
3.753,3.28,-10.33,-0.72,-0.50,0.05,-1.63,
3.753,3.28,-10.33,-0.72,-0.51,0.05,-1.73,
3.753,3.28,-10.33,-0.72,-0.53,0.06,-1.83,
3.754,2.56,-10.76,-0.92,-0.53,0.06,-1.83,
3.754,2.56,-10.76,-0.92,-0.55,0.06,-1.92,
3.754,2.56,-10.76,-0.92,-0.57,0.06,-2.02,
3.755,2.56,-10.76,-0.92,-0.59,0.06,-2.11,
3.755,1.88,-11.09,-1.16,-0.59,0.06,-2.11,
3.755,1.88,-11.09,-1.16,-0.63,0.06,-2.20,
3.756,1.88,-11.09,-1.16,-0.67,0.06,-2.28,
3.756,1.33,-11.26,-1.39,-0.67,0.06,-2.28,
3.756,1.33,-11.26,-1.39,-0.72,0.06,-2.36,
3.757,1.33,-11.26,-1.39,-0.79,0.06,-2.43,
3.757,0.97,-11.21,-1.62,-0.79,0.06,-2.43,
3.757,0.97,-11.21,-1.62,-0.86,0.06,-2.50,
3.76,0.79,-10.94,-1.82,-0.86,0.06,-2.50,
3.761,0.79,-10.94,-1.82,-0.95,0.07,-2.56,
3.762,0.79,-10.94,-1.82,-1.04,0.08,-2.61,
3.766,0.74,-10.55,-1.94,-1.04,0.08,-2.61,
3.767,0.74,-10.55,-1.94,-1.14,0.10,-2.66,
3.767,0.74,-10.55,-1.94,-1.24,0.12,-2.71,
3.77,0.84,-10.11,-1.78,-1.24,0.12,-2.71,
3.77,0.84,-10.11,-1.78,-1.34,0.13,-2.76,
3.772,0.84,-10.11,-1.78,-1.44,0.15,-2.81,
3.775,1.11,-9.62,-1.36,-1.44,0.15,-2.81,
3.775,1.11,-9.62,-1.36,-1.53,0.15,-2.87,
3.777,1.11,-9.62,-1.36,-1.62,0.15,-2.93,
3.78,1.11,-9.62,-1.36,-1.69,0.15,-3.00,
3.78,1.42,-9.08,-0.73,-1.69,0.15,-3.00,
3.782,1.42,-9.08,-0.73,-1.74,0.14,-3.07,
3.785,1.42,-9.08,-0.73,-1.79,0.14,-3.14,
3.785,1.65,-8.55,-0.02,-1.79,0.14,-3.14,
3.787,1.65,-8.55,-0.02,-1.81,0.14,-3.22,
3.79,1.65,-8.55,-0.02,-1.81,0.14,-3.31,
3.79,1.82,-7.97,0.69,-1.81,0.14,-3.31,
3.792,1.82,-7.97,0.69,-1.80,0.15,-3.39,
3.795,1.82,-7.97,0.69,-1.78,0.15,-3.47,
3.795,1.86,-7.32,1.35,-1.78,0.15,-3.47,
3.798,1.86,-7.32,1.35,-1.73,0.15,-3.56,
3.802,1.86,-7.32,1.35,-1.67,0.15,-3.64,
3.803,1.78,-6.69,1.96,-1.67,0.15,-3.64,
3.803,1.78,-6.69,1.96,-1.60,0.16,-3.72,
3.806,1.53,-6.06,2.39,-1.60,0.16,-3.72,
3.806,1.53,-6.06,2.39,-1.50,0.16,-3.81,
3.808,1.53,-6.06,2.39,-1.40,0.16,-3.88,
3.811,1.53,-6.06,2.39,-1.28,0.17,-3.96,
3.811,1.04,-5.53,2.68,-1.28,0.17,-3.96,
3.812,1.04,-5.53,2.68,-1.15,0.17,-4.02,
3.825,0.28,-5.08,2.77,-1.15,0.17,-4.02,
3.825,0.28,-5.08,2.77,-1.01,0.18,-4.07,
3.826,0.28,-5.08,2.77,-0.86,0.19,-4.12,
3.826,0.28,-5.08,2.77,-0.70,0.21,-4.15,
3.826,-0.70,-4.70,2.62,-0.70,0.21,-4.15,
3.826,-0.70,-4.70,2.62,-0.54,0.22,-4.17,
3.827,-0.70,-4.70,2.62,-0.38,0.23,-4.18,
3.828,-1.68,-4.36,2.29,-0.38,0.23,-4.18,
3.828,-1.68,-4.36,2.29,-0.21,0.25,-4.17,
3.83,-2.61,-4.05,1.79,-0.21,0.25,-4.17,
3.83,-2.61,-4.05,1.79,-0.05,0.26,-4.15,
3.836,-2.61,-4.05,1.79,0.11,0.28,-4.13,
3.837,-3.37,-3.71,1.21,0.11,0.28,-4.13,
3.837,-3.37,-3.71,1.21,0.26,0.29,-4.09,
3.839,-3.37,-3.71,1.21,0.40,0.32,-4.06,
3.84,-3.93,-3.33,0.57,0.40,0.32,-4.06,
3.84,-3.93,-3.33,0.57,0.52,0.34,-4.01,
3.842,-3.93,-3.33,0.57,0.65,0.34,-3.96,
3.845,-4.46,-3.03,0.02,0.65,0.34,-3.96,
3.846,-4.46,-3.03,0.02,0.77,0.33,-3.88,
3.847,-4.46,-3.03,0.02,0.88,0.33,-3.79,
3.852,-4.83,-2.71,-0.64,0.88,0.33,-3.79,
3.852,-4.83,-2.71,-0.64,0.98,0.33,-3.69,
3.852,-4.83,-2.71,-0.64,1.07,0.35,-3.58,
3.856,-4.83,-2.71,-0.64,1.15,0.37,-3.47,
3.856,-4.96,-2.37,-1.26,1.15,0.37,-3.47,
3.857,-4.96,-2.37,-1.26,1.21,0.40,-3.36,
3.859,-4.86,-2.13,-1.85,1.21,0.40,-3.36,
3.86,-4.86,-2.13,-1.85,1.26,0.43,-3.25,
3.861,-4.86,-2.13,-1.85,1.29,0.46,-3.14,
3.865,-4.86,-2.13,-1.85,1.31,0.49,-3.04,
3.865,-4.64,-2.02,-2.38,1.31,0.49,-3.04,
3.868,-4.64,-2.02,-2.38,1.32,0.52,-2.94,
3.87,-4.35,-1.96,-2.88,1.32,0.52,-2.94,
3.874,-4.35,-1.96,-2.88,1.32,0.55,-2.86,
3.874,-4.35,-1.96,-2.88,1.30,0.57,-2.78,
3.874,-4.04,-1.89,-3.26,1.30,0.57,-2.78,
3.875,-4.04,-1.89,-3.26,1.27,0.59,-2.71,
3.877,-4.04,-1.89,-3.26,1.23,0.59,-2.65,
3.879,-4.04,-1.89,-3.26,1.18,0.60,-2.59,
3.905,-3.75,-1.83,-3.53,1.18,0.60,-2.59,
3.906,-3.75,-1.83,-3.53,1.12,0.60,-2.54,
3.906,-3.47,-1.76,-3.75,1.12,0.60,-2.54,
3.906,-3.47,-1.76,-3.75,1.05,0.59,-2.50,
3.906,-3.47,-1.76,-3.75,0.97,0.58,-2.45,
3.907,-3.47,-1.76,-3.75,0.88,0.56,-2.42,
3.907,-3.19,-1.63,-3.82,0.88,0.56,-2.42,
3.907,-3.19,-1.63,-3.82,0.78,0.54,-2.39,
3.907,-3.19,-1.63,-3.82,0.67,0.52,-2.36,
3.908,-2.93,-1.48,-3.83,0.67,0.52,-2.36,
3.908,-2.93,-1.48,-3.83,0.56,0.48,-2.34,
3.908,-2.68,-1.28,-3.75,0.56,0.48,-2.34,
3.908,-2.68,-1.28,-3.75,0.44,0.45,-2.32,
3.909,-2.68,-1.28,-3.75,0.32,0.40,-2.30,
3.909,-2.68,-1.28,-3.75,0.20,0.36,-2.28,
3.909,-2.47,-1.02,-3.60,0.20,0.36,-2.28,
3.909,-2.47,-1.02,-3.60,0.07,0.30,-2.26,
3.91,-2.32,-0.78,-3.37,0.07,0.30,-2.26,
3.91,-2.32,-0.78,-3.37,-0.06,0.25,-2.24,
3.911,-2.32,-0.78,-3.37,-0.19,0.19,-2.22,
3.916,-2.25,-0.51,-3.06,-0.19,0.19,-2.22,
3.916,-2.25,-0.51,-3.06,-0.32,0.12,-2.21,
3.917,-2.25,-0.51,-3.06,-0.45,0.05,-2.19,
3.919,-2.26,-0.31,-2.70,-0.45,0.05,-2.19,
3.919,-2.26,-0.31,-2.70,-0.57,-0.02,-2.16,
3.922,-2.26,-0.31,-2.70,-0.70,-0.10,-2.14,
3.924,-2.26,-0.31,-2.70,-0.81,-0.18,-2.12,
3.925,-2.27,-0.16,-2.32,-0.81,-0.18,-2.12,
3.927,-2.27,-0.16,-2.32,-0.93,-0.27,-2.09,
3.929,-2.29,-0.04,-1.97,-0.93,-0.27,-2.09,
3.929,-2.29,-0.04,-1.97,-1.03,-0.36,-2.06,
3.937,-2.29,-0.04,-1.97,-1.14,-0.44,-2.03,
3.937,-2.30,0.01,-1.67,-1.14,-0.44,-2.03,
3.938,-2.30,0.01,-1.67,-1.24,-0.54,-2.00,
3.938,-2.30,0.01,-1.67,-1.34,-0.63,-1.97,
3.939,-2.27,0.06,-1.43,-1.34,-0.63,-1.97,
3.939,-2.27,0.06,-1.43,-1.43,-0.71,-1.94,
3.941,-2.27,0.06,-1.43,-1.52,-0.80,-1.91,
3.947,-2.27,0.06,-1.43,-1.60,-0.88,-1.88,
3.947,-2.16,0.12,-1.24,-1.60,-0.88,-1.88,
3.947,-2.16,0.12,-1.24,-1.68,-0.96,-1.85,
3.952,-2.16,0.12,-1.24,-1.77,-1.03,-1.82,
3.952,-2.03,0.18,-1.03,-1.77,-1.03,-1.82,
3.952,-2.03,0.18,-1.03,-1.84,-1.09,-1.79,
3.953,-2.03,0.18,-1.03,-1.92,-1.16,-1.77,
3.953,-1.86,0.20,-0.85,-1.92,-1.16,-1.77,
3.956,-1.86,0.20,-0.85,-1.99,-1.21,-1.75,
3.958,-1.69,0.17,-0.67,-1.99,-1.21,-1.75,
3.958,-1.69,0.17,-0.67,-2.06,-1.27,-1.72,
3.96,-1.69,0.17,-0.67,-2.13,-1.31,-1.71,
3.963,-1.69,0.17,-0.67,-2.19,-1.35,-1.69,
3.963,-1.54,0.09,-0.50,-2.19,-1.35,-1.69,
3.967,-1.54,0.09,-0.50,-2.25,-1.38,-1.68,
3.968,-1.38,0.01,-0.26,-2.25,-1.38,-1.68,
3.969,-1.38,0.01,-0.26,-2.30,-1.41,-1.67,
3.97,-1.38,0.01,-0.26,-2.35,-1.43,-1.67,
3.973,-1.38,0.01,-0.26,-2.39,-1.45,-1.68,
3.973,-1.28,-0.07,-0.02,-2.39,-1.45,-1.68,
3.976,-1.28,-0.07,-0.02,-2.43,-1.46,-1.68,
3.979,-1.28,-0.07,-0.02,-2.46,-1.46,-1.70,
3.98,-1.21,-0.12,0.26,-2.46,-1.46,-1.70,
3.982,-1.21,-0.12,0.26,-2.49,-1.47,-1.71,
3.983,-1.20,-0.14,0.55,-2.49,-1.47,-1.71,
3.984,-1.20,-0.14,0.55,-2.50,-1.47,-1.73,
3.985,-1.20,-0.14,0.55,-2.51,-1.46,-1.75,
3.989,-1.20,-0.14,0.55,-2.51,-1.45,-1.77,
3.99,-1.24,-0.09,0.83,-2.51,-1.45,-1.77,
3.992,-1.24,-0.09,0.83,-2.51,-1.43,-1.79,
3.993,-1.24,-0.09,0.83,-2.50,-1.41,-1.81,
3.993,-1.31,-0.02,1.11,-2.50,-1.41,-1.81,
3.996,-1.31,-0.02,1.11,-2.48,-1.38,-1.83,
3.999,-1.31,-0.02,1.11,-2.46,-1.35,-1.85,
4.0,-1.37,0.09,1.37,-2.46,-1.35,-1.85,
4.004,-1.37,0.09,1.37,-2.43,-1.31,-1.88,
4.005,-1.50,0.27,1.60,-2.43,-1.31,-1.88,
4.005,-1.50,0.27,1.60,-2.39,-1.27,-1.89,
4.006,-1.50,0.27,1.60,-2.35,-1.23,-1.91,
4.008,-1.50,0.27,1.60,-2.30,-1.19,-1.93,
4.008,-1.68,0.48,1.80,-2.30,-1.19,-1.93,
4.01,-1.68,0.48,1.80,-2.25,-1.14,-1.94,
4.013,-1.68,0.48,1.80,-2.19,-1.09,-1.95,
4.013,-1.86,0.71,1.98,-2.19,-1.09,-1.95,
4.021,-1.86,0.71,1.98,-2.13,-1.04,-1.96,
4.022,-2.09,0.93,2.14,-2.13,-1.04,-1.96,
4.022,-2.09,0.93,2.14,-2.07,-0.98,-1.96,
4.022,-2.09,0.93,2.14,-2.00,-0.93,-1.96,
4.023,-2.09,0.93,2.14,-1.93,-0.87,-1.96,
4.024,-2.34,1.16,2.28,-1.93,-0.87,-1.96,
4.026,-2.34,1.16,2.28,-1.86,-0.82,-1.96,
4.028,-2.64,1.38,2.41,-1.86,-0.82,-1.96,
4.028,-2.64,1.38,2.41,-1.79,-0.76,-1.95,
4.031,-2.64,1.38,2.41,-1.71,-0.71,-1.94,
4.046,-2.95,1.62,2.49,-1.71,-0.71,-1.94,
4.047,-2.95,1.62,2.49,-1.63,-0.66,-1.92,
4.047,-2.95,1.62,2.49,-1.55,-0.61,-1.91,
4.048,-3.22,1.89,2.52,-1.55,-0.61,-1.91,
4.048,-3.22,1.89,2.52,-1.47,-0.57,-1.88,
4.049,-3.22,1.89,2.52,-1.40,-0.53,-1.86,
4.049,-3.22,1.89,2.52,-1.32,-0.50,-1.83,
4.05,-3.43,2.12,2.50,-1.32,-0.50,-1.83,
4.08,-3.43,2.12,2.50,-1.25,-0.46,-1.81,
4.081,-3.43,2.12,2.50,-1.18,-0.43,-1.78,
4.081,-3.62,2.37,2.42,-1.18,-0.43,-1.78,
4.082,-3.62,2.37,2.42,-1.12,-0.40,-1.74,
4.082,-3.62,2.37,2.42,-1.06,-0.37,-1.71,
4.082,-3.80,2.62,2.29,-1.06,-0.37,-1.71,
4.083,-3.80,2.62,2.29,-1.01,-0.35,-1.67,
4.083,-3.80,2.62,2.29,-0.96,-0.32,-1.63,
4.084,-3.93,2.80,2.15,-0.96,-0.32,-1.63,
4.084,-3.93,2.80,2.15,-0.92,-0.30,-1.60,
4.085,-3.93,2.80,2.15,-0.88,-0.29,-1.56,
4.085,-3.99,3.02,2.01,-0.88,-0.29,-1.56,
4.085,-3.99,3.02,2.01,-0.85,-0.28,-1.52,
4.085,-3.99,3.02,2.01,-0.83,-0.27,-1.49,
4.086,-3.97,3.18,1.83,-0.83,-0.27,-1.49,
4.086,-3.97,3.18,1.83,-0.81,-0.26,-1.46,
4.086,-3.97,3.18,1.83,-0.80,-0.26,-1.43,
4.086,-3.92,3.30,1.66,-0.80,-0.26,-1.43,
4.087,-3.92,3.30,1.66,-0.80,-0.26,-1.40,
4.087,-3.92,3.30,1.66,-0.80,-0.25,-1.38,
4.087,-3.87,3.41,1.52,-0.80,-0.25,-1.38,
4.087,-3.87,3.41,1.52,-0.80,-0.25,-1.36,
4.088,-3.83,3.49,1.42,-0.80,-0.25,-1.36,
4.088,-3.83,3.49,1.42,-0.81,-0.25,-1.34,
4.088,-3.83,3.49,1.42,-0.82,-0.25,-1.32,
4.089,-3.83,3.49,1.42,-0.83,-0.25,-1.30,
4.089,-3.83,3.56,1.39,-0.83,-0.25,-1.30,
4.09,-3.83,3.56,1.39,-0.85,-0.25,-1.29,
4.092,-3.85,3.66,1.43,-0.85,-0.25,-1.29,
4.093,-3.85,3.66,1.43,-0.86,-0.25,-1.28,
4.095,-3.85,3.66,1.43,-0.88,-0.26,-1.27,
4.099,-3.85,3.66,1.43,-0.90,-0.26,-1.26,
4.099,-3.86,3.76,1.51,-0.90,-0.26,-1.26,
4.1,-3.86,3.76,1.51,-0.91,-0.28,-1.25,
4.103,-3.86,3.76,1.51,-0.93,-0.29,-1.24,
4.104,-3.91,3.88,1.64,-0.93,-0.29,-1.24,
4.104,-3.91,3.88,1.64,-0.94,-0.30,-1.23,
4.107,-3.91,3.88,1.64,-0.95,-0.32,-1.22,
4.107,-3.96,3.99,1.78,-0.95,-0.32,-1.22,
4.109,-3.96,3.99,1.78,-0.96,-0.33,-1.21,
4.112,-3.96,3.99,1.78,-0.97,-0.35,-1.21,
4.112,-4.02,4.13,1.94,-0.97,-0.35,-1.21,
4.117,-4.02,4.13,1.94,-0.97,-0.37,-1.19,
4.118,-4.08,4.26,2.11,-0.97,-0.37,-1.19,
4.118,-4.08,4.26,2.11,-0.97,-0.39,-1.18,
4.122,-4.12,4.41,2.28,-0.97,-0.39,-1.18,
4.122,-4.12,4.41,2.28,-0.97,-0.41,-1.17,
4.122,-4.12,4.41,2.28,-0.97,-0.43,-1.16,
4.125,-4.12,4.41,2.28,-0.96,-0.45,-1.14,
4.127,-4.12,4.41,2.28,-0.95,-0.47,-1.13,
4.128,-4.15,4.57,2.39,-0.95,-0.47,-1.13,
4.129,-4.15,4.57,2.39,-0.94,-0.50,-1.11,
4.132,-4.14,4.76,2.50,-0.94,-0.50,-1.11,
4.133,-4.14,4.76,2.50,-0.92,-0.52,-1.10,
4.138,-4.17,4.96,2.56,-0.92,-0.52,-1.10,
4.14,-4.17,4.96,2.56,-0.91,-0.54,-1.08,
4.14,-4.17,4.96,2.56,-0.89,-0.57,-1.06,
4.14,-4.17,4.96,2.56,-0.88,-0.59,-1.04,
4.142,-4.17,4.96,2.56,-0.86,-0.61,-1.02,
4.142,-4.21,5.13,2.58,-0.86,-0.61,-1.02,
4.144,-4.21,5.13,2.58,-0.84,-0.63,-0.99,
4.148,-4.21,5.13,2.58,-0.82,-0.64,-0.96,
4.148,-4.19,5.33,2.61,-0.82,-0.64,-0.96,
4.15,-4.19,5.33,2.61,-0.79,-0.66,-0.94,
4.156,-4.19,5.33,2.61,-0.77,-0.67,-0.91,
4.156,-4.19,5.33,2.61,-0.74,-0.68,-0.87,
4.156,-4.19,5.47,2.61,-0.74,-0.68,-0.87,
4.157,-4.19,5.47,2.61,-0.72,-0.69,-0.84,
4.157,-4.18,5.57,2.57,-0.72,-0.69,-0.84,
4.159,-4.18,5.57,2.57,-0.69,-0.69,-0.81,
4.161,-4.18,5.63,2.51,-0.69,-0.69,-0.81,
4.162,-4.18,5.63,2.51,-0.66,-0.70,-0.77,
4.164,-4.18,5.63,2.51,-0.63,-0.70,-0.73,
4.167,-4.17,5.60,2.43,-0.63,-0.70,-0.73,
4.167,-4.17,5.60,2.43,-0.61,-0.70,-0.70,
4.169,-4.17,5.60,2.43,-0.58,-0.70,-0.66,
4.175,-4.14,5.52,2.33,-0.58,-0.70,-0.66,
4.175,-4.14,5.52,2.33,-0.55,-0.69,-0.63,
4.175,-4.14,5.52,2.33,-0.52,-0.68,-0.60,
4.176,-4.12,5.36,2.26,-0.52,-0.68,-0.60,
4.177,-4.12,5.36,2.26,-0.49,-0.66,-0.57,
4.179,-4.12,5.36,2.26,-0.46,-0.65,-0.54,
4.182,-4.08,5.16,2.18,-0.46,-0.65,-0.54,
4.182,-4.08,5.16,2.18,-0.43,-0.63,-0.52,
4.185,-4.08,5.16,2.18,-0.40,-0.61,-0.49,
4.187,-4.07,4.98,2.09,-0.40,-0.61,-0.49,
4.187,-4.07,4.98,2.09,-0.36,-0.58,-0.48,
4.189,-4.07,4.98,2.09,-0.33,-0.55,-0.46,
4.191,-4.07,4.98,2.09,-0.29,-0.50,-0.45,
4.192,-4.09,4.81,2.02,-0.29,-0.50,-0.45,
4.194,-4.09,4.81,2.02,-0.25,-0.46,-0.44,
4.196,-4.19,4.65,1.94,-0.25,-0.46,-0.44,
4.197,-4.19,4.65,1.94,-0.21,-0.41,-0.42,
4.201,-4.19,4.65,1.94,-0.17,-0.36,-0.42,
4.201,-4.30,4.49,1.90,-0.17,-0.36,-0.42,
4.202,-4.30,4.49,1.90,-0.13,-0.31,-0.41,
4.204,-4.30,4.49,1.90,-0.09,-0.25,-0.40,
4.206,-4.46,4.37,1.86,-0.09,-0.25,-0.40,
4.207,-4.46,4.37,1.86,-0.05,-0.19,-0.39,
4.208,-4.46,4.37,1.86,-0.00,-0.13,-0.38,
4.223,-4.70,4.24,1.84,-0.00,-0.13,-0.38,
4.223,-4.70,4.24,1.84,0.05,-0.06,-0.37,
4.223,-4.70,4.24,1.84,0.09,0.00,-0.36,
4.224,-4.70,4.24,1.84,0.14,0.07,-0.34,
4.224,-5.00,4.11,1.86,0.14,0.07,-0.34,
4.224,-5.00,4.11,1.86,0.19,0.14,-0.33,
4.224,-5.00,4.11,1.86,0.24,0.21,-0.31,
4.224,-5.34,4.00,1.89,0.24,0.21,-0.31,
4.225,-5.34,4.00,1.89,0.28,0.28,-0.29,
4.23,-5.34,4.00,1.89,0.33,0.35,-0.27,
4.231,-5.69,3.85,1.95,0.33,0.35,-0.27,
4.232,-5.69,3.85,1.95,0.38,0.42,-0.25,
4.232,-6.07,3.73,2.01,0.38,0.42,-0.25,
4.232,-6.07,3.73,2.01,0.43,0.48,-0.23,
4.244,-6.07,3.73,2.01,0.47,0.55,-0.20,
4.244,-6.07,3.73,2.01,0.51,0.60,-0.18,
4.244,-6.47,3.56,2.08,0.51,0.60,-0.18,
4.245,-6.47,3.56,2.08,0.55,0.66,-0.15,
4.245,-6.47,3.56,2.08,0.58,0.71,-0.12,
4.245,-6.88,3.38,2.15,0.58,0.71,-0.12,
4.245,-6.88,3.38,2.15,0.61,0.76,-0.09,
4.246,-7.31,3.20,2.22,0.61,0.76,-0.09,
4.247,-7.31,3.20,2.22,0.64,0.81,-0.06,
4.248,-7.31,3.20,2.22,0.66,0.85,-0.03,
4.251,-7.73,3.02,2.26,0.66,0.85,-0.03,
4.251,-7.73,3.02,2.26,0.68,0.90,0.00,
4.253,-7.73,3.02,2.26,0.70,0.94,0.04,
4.256,-7.73,3.02,2.26,0.72,0.98,0.07,
4.256,-8.17,2.80,2.32,0.72,0.98,0.07,
4.258,-8.17,2.80,2.32,0.73,1.02,0.11,
4.26,-8.17,2.80,2.32,0.74,1.05,0.14,
4.261,-8.58,2.56,2.40,0.74,1.05,0.14,
4.263,-8.58,2.56,2.40,0.75,1.08,0.18,
4.266,-8.95,2.36,2.47,0.75,1.08,0.18,
4.266,-8.95,2.36,2.47,0.76,1.11,0.22,
4.268,-8.95,2.36,2.47,0.77,1.13,0.25,
4.272,-8.95,2.36,2.47,0.77,1.15,0.29,
4.272,-9.25,2.19,2.58,0.77,1.15,0.29,
4.274,-9.25,2.19,2.58,0.78,1.17,0.33,
4.276,-9.25,2.19,2.58,0.79,1.19,0.36,
4.276,-9.49,2.06,2.76,0.79,1.19,0.36,
4.279,-9.49,2.06,2.76,0.80,1.19,0.39,
4.28,-9.49,2.06,2.76,0.82,1.20,0.43,
4.28,-9.69,2.07,2.95,0.82,1.20,0.43,
4.284,-9.69,2.07,2.95,0.84,1.21,0.46,
4.286,-9.69,2.07,2.95,0.87,1.20,0.50,
4.287,-9.82,2.25,3.15,0.87,1.20,0.50,
4.29,-9.82,2.25,3.15,0.90,1.20,0.53,
4.29,-9.87,2.53,3.38,0.90,1.20,0.53,
4.291,-9.87,2.53,3.38,0.93,1.18,0.57,
4.295,-9.87,2.53,3.38,0.98,1.16,0.61,
4.296,-9.86,2.88,3.58,0.98,1.16,0.61,
4.296,-9.86,2.88,3.58,1.02,1.14,0.65,
4.298,-9.86,2.88,3.58,1.08,1.10,0.70,
4.302,-9.77,3.29,3.73,1.08,1.10,0.70,
4.302,-9.77,3.29,3.73,1.13,1.06,0.76,
4.303,-9.77,3.29,3.73,1.19,1.02,0.82,
4.306,-9.62,3.70,3.80,1.19,1.02,0.82,
4.306,-9.62,3.70,3.80,1.24,0.96,0.89,
4.308,-9.62,3.70,3.80,1.30,0.91,0.97,
4.31,-9.45,4.04,3.73,1.30,0.91,0.97,
4.311,-9.45,4.04,3.73,1.36,0.86,1.06,
4.313,-9.45,4.04,3.73,1.41,0.80,1.16,
4.318,-9.45,4.04,3.73,1.46,0.76,1.26,
4.319,-9.19,4.27,3.55,1.46,0.76,1.26,
4.32,-9.19,4.27,3.55,1.50,0.71,1.37,
4.322,-8.82,4.33,3.26,1.50,0.71,1.37,
4.322,-8.82,4.33,3.26,1.53,0.67,1.48,
4.322,-8.82,4.33,3.26,1.56,0.63,1.59,
4.325,-8.42,4.21,2.89,1.56,0.63,1.59,
4.326,-8.42,4.21,2.89,1.59,0.60,1.71,
4.328,-8.42,4.21,2.89,1.60,0.57,1.83,
4.33,-8.01,3.89,2.41,1.60,0.57,1.83,
4.331,-8.01,3.89,2.41,1.61,0.54,1.94,
4.336,-8.01,3.89,2.41,1.62,0.52,2.05,
4.336,-7.51,3.48,1.95,1.62,0.52,2.05,
4.337,-7.51,3.48,1.95,1.62,0.50,2.16,
4.339,-7.51,3.48,1.95,1.61,0.49,2.27,
4.34,-6.97,2.94,1.51,1.61,0.49,2.27,
4.34,-6.97,2.94,1.51,1.61,0.48,2.36,
4.342,-6.97,2.94,1.51,1.59,0.47,2.45,
4.345,-6.42,2.40,1.11,1.59,0.47,2.45,
4.345,-6.42,2.40,1.11,1.58,0.46,2.53,
4.347,-6.42,2.40,1.11,1.56,0.46,2.61,
4.351,-5.96,1.84,0.79,1.56,0.46,2.61,
4.351,-5.96,1.84,0.79,1.55,0.46,2.68,
4.353,-5.96,1.84,0.79,1.53,0.46,2.74,
4.355,-5.54,1.28,0.61,1.53,0.46,2.74,
4.355,-5.54,1.28,0.61,1.51,0.47,2.80,
4.357,-5.54,1.28,0.61,1.50,0.47,2.85,
4.36,-5.54,1.28,0.61,1.48,0.47,2.90,
4.36,-5.12,0.72,0.40,1.48,0.47,2.90,
4.362,-5.12,0.72,0.40,1.47,0.48,2.94,
4.367,-5.12,0.72,0.40,1.46,0.49,2.98,
4.367,-4.76,0.16,0.24,1.46,0.49,2.98,
4.368,-4.76,0.16,0.24,1.44,0.50,3.01,
4.37,-4.76,0.16,0.24,1.43,0.51,3.04,
4.371,-4.42,-0.36,0.12,1.43,0.51,3.04,
4.372,-4.42,-0.36,0.12,1.42,0.52,3.07,
4.375,-4.42,-0.36,0.12,1.41,0.53,3.09,
4.394,-4.07,-0.81,0.08,1.41,0.53,3.09,
4.394,-4.07,-0.81,0.08,1.41,0.54,3.10,
4.395,-3.74,-1.21,0.08,1.41,0.54,3.10,
4.395,-3.74,-1.21,0.08,1.40,0.55,3.12,
4.395,-3.74,-1.21,0.08,1.40,0.56,3.12,
4.395,-3.48,-1.53,0.15,1.40,0.56,3.12,
4.396,-3.48,-1.53,0.15,1.40,0.57,3.13,
4.396,-3.48,-1.53,0.15,1.40,0.58,3.14,
4.396,-3.28,-1.80,0.30,1.40,0.58,3.14,
4.396,-3.28,-1.80,0.30,1.40,0.59,3.14,
4.397,-3.28,-1.80,0.30,1.41,0.60,3.14,
4.397,-3.28,-1.80,0.30,1.42,0.61,3.14,
4.397,-3.09,-2.04,0.50,1.42,0.61,3.14,
4.397,-3.09,-2.04,0.50,1.43,0.61,3.14,
4.4,-2.91,-2.22,0.72,1.43,0.61,3.14,
4.401,-2.91,-2.22,0.72,1.44,0.62,3.14,
4.403,-2.91,-2.22,0.72,1.46,0.62,3.14,
4.405,-2.91,-2.22,0.72,1.48,0.62,3.14,
4.405,-2.73,-2.39,0.91,1.48,0.62,3.14,
4.407,-2.73,-2.39,0.91,1.50,0.61,3.14,
4.41,-2.73,-2.39,0.91,1.53,0.61,3.13,
4.41,-2.45,-2.56,1.04,1.53,0.61,3.13,
4.412,-2.45,-2.56,1.04,1.55,0.61,3.13,
4.414,-2.45,-2.56,1.04,1.58,0.60,3.12,
4.415,-2.13,-2.69,1.12,1.58,0.60,3.12,
4.418,-2.13,-2.69,1.12,1.60,0.59,3.11,
4.423,-2.13,-2.69,1.12,1.63,0.58,3.10,
4.423,-1.82,-2.80,1.13,1.63,0.58,3.10,
4.423,-1.82,-2.80,1.13,1.65,0.58,3.09,
4.425,-1.49,-2.86,1.13,1.65,0.58,3.09,
4.425,-1.49,-2.86,1.13,1.67,0.58,3.08,
4.428,-1.49,-2.86,1.13,1.69,0.59,3.06,
4.43,-1.15,-2.87,1.14,1.69,0.59,3.06,
4.431,-1.15,-2.87,1.14,1.70,0.59,3.05,
4.433,-1.15,-2.87,1.14,1.72,0.59,3.03,
4.435,-0.87,-2.86,1.17,1.72,0.59,3.03,
4.436,-0.87,-2.86,1.17,1.74,0.59,3.01,
4.437,-0.87,-2.86,1.17,1.75,0.60,3.00,
4.44,-0.87,-2.86,1.17,1.77,0.60,2.98,
4.44,-0.57,-2.84,1.22,1.77,0.60,2.98,
4.442,-0.57,-2.84,1.22,1.78,0.60,2.96,
4.444,-0.57,-2.84,1.22,1.80,0.60,2.95,
4.444,-0.34,-2.80,1.29,1.80,0.60,2.95,
4.446,-0.34,-2.80,1.29,1.82,0.61,2.93,
4.449,-0.14,-2.80,1.34,1.82,0.61,2.93,
4.45,-0.14,-2.80,1.34,1.83,0.62,2.92,
4.452,-0.14,-2.80,1.34,1.85,0.62,2.90,
4.454,-0.14,-2.80,1.34,1.87,0.63,2.89,
4.454,0.06,-2.82,1.39,1.87,0.63,2.89,
4.456,0.06,-2.82,1.39,1.89,0.64,2.87,
4.459,0.06,-2.82,1.39,1.91,0.64,2.86,
4.459,0.29,-2.84,1.42,1.91,0.64,2.86,
4.461,0.29,-2.84,1.42,1.93,0.66,2.84,
4.464,0.29,-2.84,1.42,1.96,0.67,2.83,
4.464,0.49,-2.88,1.43,1.96,0.67,2.83,
4.467,0.49,-2.88,1.43,1.98,0.68,2.81,
4.469,0.65,-2.95,1.43,1.98,0.68,2.81,
4.47,0.65,-2.95,1.43,2.00,0.69,2.80,
4.472,0.65,-2.95,1.43,2.03,0.70,2.78,
4.474,0.77,-3.07,1.42,2.03,0.70,2.78,
4.474,0.77,-3.07,1.42,2.05,0.70,2.76,
4.476,0.77,-3.07,1.42,2.08,0.71,2.75,
4.479,0.91,-3.22,1.41,2.08,0.71,2.75,
4.479,0.91,-3.22,1.41,2.10,0.72,2.73,
4.483,0.91,-3.22,1.41,2.13,0.73,2.71,
4.485,0.91,-3.22,1.41,2.15,0.73,2.69,
4.486,1.04,-3.30,1.40,2.15,0.73,2.69,
4.487,1.04,-3.30,1.40,2.17,0.74,2.67,
4.489,1.13,-3.36,1.32,2.17,0.74,2.67,
4.489,1.13,-3.36,1.32,2.19,0.75,2.64,
4.492,1.13,-3.36,1.32,2.21,0.76,2.62,
4.494,1.13,-3.36,1.32,2.23,0.77,2.60,
4.494,1.22,-3.44,1.21,2.23,0.77,2.60,
4.496,1.22,-3.44,1.21,2.24,0.78,2.58,
4.5,1.28,-3.55,1.04,2.24,0.78,2.58,
4.502,1.28,-3.55,1.04,2.25,0.78,2.55,
4.503,1.28,-3.55,1.04,2.27,0.79,2.53,
4.505,1.28,-3.55,1.04,2.27,0.80,2.50,
4.506,1.31,-3.69,0.83,2.27,0.80,2.50,
4.507,1.31,-3.69,0.83,2.27,0.80,2.48,
4.509,1.31,-3.69,0.83,2.28,0.81,2.46,
4.509,1.35,-3.80,0.64,2.28,0.81,2.46,
4.511,1.35,-3.80,0.64,2.27,0.81,2.44,
4.514,1.35,-3.80,0.64,2.27,0.82,2.42,
4.514,1.34,-3.87,0.46,2.27,0.82,2.42,
4.522,1.34,-3.87,0.46,2.25,0.83,2.40,
4.523,1.34,-3.87,0.46,2.24,0.84,2.38,
4.523,1.35,-3.95,0.27,2.24,0.84,2.38,
4.524,1.35,-3.95,0.27,2.22,0.85,2.37,
4.524,1.37,-4.00,0.11,2.22,0.85,2.37,
4.525,1.37,-4.00,0.11,2.20,0.85,2.35,
4.526,1.37,-4.00,0.11,2.17,0.86,2.34,
4.529,1.37,-4.00,0.11,2.14,0.87,2.33,
4.531,1.42,-4.08,-0.06,2.14,0.87,2.33,
4.531,1.42,-4.08,-0.06,2.11,0.88,2.32,
4.543,1.42,-4.08,-0.06,2.07,0.88,2.31,
4.544,1.46,-4.11,-0.21,2.07,0.88,2.31,
4.544,1.46,-4.11,-0.21,2.02,0.89,2.31,
4.545,1.46,-4.11,-0.21,1.98,0.90,2.30,
4.545,1.55,-4.11,-0.32,1.98,0.90,2.30,
4.573,1.55,-4.11,-0.32,1.92,0.91,2.29,
4.573,1.55,-4.11,-0.32,1.87,0.91,2.29,
4.574,1.60,-4.12,-0.38,1.87,0.91,2.29,
4.574,1.69,-4.14,-0.39,1.87,0.91,2.29,
4.574,1.69,-4.14,-0.39,1.81,0.92,2.28,
4.575,1.69,-4.14,-0.39,1.75,0.92,2.28,
4.575,1.69,-4.14,-0.39,1.69,0.92,2.28,
4.576,1.78,-4.16,-0.39,1.69,0.92,2.28,
4.576,1.78,-4.16,-0.39,1.63,0.92,2.28,
4.576,1.78,-4.16,-0.39,1.56,0.92,2.27,
4.577,1.86,-4.20,-0.37,1.56,0.92,2.27,
4.577,1.86,-4.20,-0.37,1.49,0.92,2.27,
4.577,1.86,-4.20,-0.37,1.41,0.91,2.27,
4.577,1.98,-4.27,-0.33,1.41,0.91,2.27,
4.578,1.98,-4.27,-0.33,1.34,0.91,2.26,
4.578,1.98,-4.27,-0.33,1.26,0.90,2.26,
4.578,1.98,-4.27,-0.33,1.18,0.89,2.25,
4.579,2.09,-4.34,-0.28,1.18,0.89,2.25,
4.579,2.09,-4.34,-0.28,1.10,0.88,2.24,
4.579,2.19,-4.39,-0.17,1.10,0.88,2.24,
4.58,2.19,-4.39,-0.17,1.02,0.86,2.23,
4.58,2.19,-4.39,-0.17,0.94,0.84,2.22,
4.58,2.28,-4.46,-0.04,0.94,0.84,2.22,
4.581,2.28,-4.46,-0.04,0.86,0.82,2.21,
4.581,2.28,-4.46,-0.04,0.78,0.80,2.20,
4.583,2.35,-4.52,0.10,0.78,0.80,2.20,
4.584,2.35,-4.52,0.10,0.70,0.77,2.19,
4.586,2.35,-4.52,0.10,0.62,0.74,2.17,
4.588,2.43,-4.59,0.28,0.62,0.74,2.17,
4.588,2.43,-4.59,0.28,0.54,0.71,2.16,
4.59,2.43,-4.59,0.28,0.46,0.68,2.15,
4.594,2.51,-4.68,0.46,0.46,0.68,2.15,
4.594,2.51,-4.68,0.46,0.38,0.64,2.14,
4.596,2.51,-4.68,0.46,0.31,0.60,2.12,
4.599,2.56,-4.74,0.67,0.31,0.60,2.12,
4.599,2.56,-4.74,0.67,0.24,0.56,2.11,
4.602,2.56,-4.74,0.67,0.17,0.52,2.10,
4.605,2.61,-4.82,0.85,0.17,0.52,2.10,
4.605,2.61,-4.82,0.85,0.10,0.48,2.09,
4.606,2.61,-4.82,0.85,0.03,0.44,2.08,
4.609,2.61,-4.82,0.85,-0.03,0.39,2.06,
4.609,2.68,-4.92,1.00,-0.03,0.39,2.06,
4.61,2.68,-4.92,1.00,-0.09,0.35,2.05,
4.613,2.68,-4.92,1.00,-0.15,0.31,2.04,
4.613,2.77,-5.01,1.11,-0.15,0.31,2.04,
4.615,2.77,-5.01,1.11,-0.21,0.27,2.03,
4.624,2.86,-5.10,1.23,-0.21,0.27,2.03,
4.624,2.86,-5.10,1.23,-0.26,0.22,2.01,
4.625,2.86,-5.10,1.23,-0.31,0.18,2.00,
4.626,2.98,-5.21,1.34,-0.31,0.18,2.00,
4.628,2.98,-5.21,1.34,-0.35,0.14,1.98,
4.629,2.98,-5.21,1.34,-0.40,0.10,1.96,
4.63,3.13,-5.26,1.43,-0.40,0.10,1.96,
4.63,3.13,-5.26,1.43,-0.44,0.06,1.94,
4.639,3.13,-5.26,1.43,-0.47,0.03,1.93,
4.64,3.13,-5.26,1.43,-0.51,-0.00,1.91,
4.64,3.26,-5.32,1.49,-0.51,-0.00,1.91,
4.641,3.26,-5.32,1.49,-0.54,-0.04,1.89,
4.641,3.26,-5.32,1.49,-0.57,-0.07,1.87,
4.641,3.43,-5.34,1.54,-0.57,-0.07,1.87,
4.642,3.43,-5.34,1.54,-0.59,-0.10,1.85,
4.643,3.43,-5.34,1.54,-0.62,-0.12,1.83,
4.643,3.52,-5.37,1.57,-0.62,-0.12,1.83,
4.645,3.52,-5.37,1.57,-0.65,-0.15,1.81,
4.647,3.52,-5.37,1.57,-0.67,-0.18,1.79,
4.648,3.66,-5.40,1.59,-0.67,-0.18,1.79,
4.651,3.66,-5.40,1.59,-0.69,-0.20,1.77,
4.653,3.78,-5.45,1.55,-0.69,-0.20,1.77,
4.653,3.78,-5.45,1.55,-0.72,-0.23,1.75,
4.655,3.78,-5.45,1.55,-0.74,-0.25,1.73,
4.657,3.86,-5.52,1.53,-0.74,-0.25,1.73,
4.658,3.86,-5.52,1.53,-0.76,-0.27,1.71,
4.661,3.86,-5.52,1.53,-0.79,-0.29,1.69,
4.662,3.86,-5.52,1.53,-0.81,-0.31,1.67,
4.662,3.94,-5.61,1.47,-0.81,-0.31,1.67,
4.665,3.94,-5.61,1.47,-0.83,-0.33,1.65,
4.667,4.01,-5.67,1.43,-0.83,-0.33,1.65,
4.668,4.01,-5.67,1.43,-0.86,-0.35,1.62,
4.669,4.01,-5.67,1.43,-0.88,-0.37,1.60,
4.672,4.10,-5.78,1.38,-0.88,-0.37,1.60,
4.672,4.10,-5.78,1.38,-0.91,-0.39,1.59,
4.674,4.10,-5.78,1.38,-0.93,-0.41,1.56,
4.677,4.10,-5.78,1.38,-0.95,-0.42,1.54,
4.677,4.23,-5.89,1.31,-0.95,-0.42,1.54,
4.679,4.23,-5.89,1.31,-0.97,-0.43,1.52,
4.682,4.33,-6.00,1.25,-0.97,-0.43,1.52,
4.682,4.33,-6.00,1.25,-0.99,-0.44,1.50,
4.685,4.33,-6.00,1.25,-1.02,-0.46,1.47,
4.687,4.46,-6.13,1.21,-1.02,-0.46,1.47,
4.687,4.46,-6.13,1.21,-1.04,-0.47,1.45,
4.69,4.46,-6.13,1.21,-1.06,-0.48,1.42,
4.692,4.46,-6.13,1.21,-1.08,-0.49,1.39,
4.692,4.58,-6.26,1.18,-1.08,-0.49,1.39,
4.694,4.58,-6.26,1.18,-1.10,-0.50,1.36,
4.697,4.69,-6.38,1.15,-1.10,-0.50,1.36,
4.697,4.69,-6.38,1.15,-1.12,-0.50,1.33,
4.7,4.69,-6.38,1.15,-1.14,-0.51,1.30,
4.702,4.83,-6.54,1.16,-1.14,-0.51,1.30,
4.703,4.83,-6.54,1.16,-1.16,-0.51,1.26,
4.705,4.83,-6.54,1.16,-1.17,-0.52,1.23,
4.73,4.83,-6.54,1.16,-1.19,-0.52,1.19,
4.731,4.94,-6.69,1.16,-1.19,-0.52,1.19,
4.731,4.94,-6.69,1.16,-1.20,-0.53,1.15,
4.731,4.94,-6.69,1.16,-1.21,-0.53,1.11,
4.732,5.05,-6.88,1.16,-1.21,-0.53,1.11,
4.732,5.05,-6.88,1.16,-1.21,-0.53,1.06,
4.732,5.05,-6.88,1.16,-1.22,-0.54,1.01,
4.733,5.05,-6.88,1.16,-1.22,-0.54,0.96,
4.733,5.19,-7.08,1.18,-1.22,-0.54,0.96,
4.733,5.19,-7.08,1.18,-1.21,-0.54,0.91,
4.734,5.31,-7.24,1.20,-1.21,-0.54,0.91,
4.734,5.31,-7.24,1.20,-1.21,-0.54,0.85,
4.734,5.31,-7.24,1.20,-1.20,-0.54,0.79,
4.735,5.44,-7.36,1.22,-1.20,-0.54,0.79,
4.735,5.44,-7.36,1.22,-1.18,-0.53,0.72,
4.736,5.44,-7.36,1.22,-1.17,-0.52,0.66,
4.736,5.54,-7.48,1.24,-1.17,-0.52,0.66,
4.736,5.54,-7.48,1.24,-1.15,-0.52,0.59,
4.744,5.54,-7.48,1.24,-1.13,-0.51,0.52,
4.745,5.67,-7.56,1.24,-1.13,-0.51,0.52,
4.746,5.67,-7.56,1.24,-1.11,-0.50,0.45,
4.746,5.67,-7.56,1.24,-1.08,-0.49,0.37,
4.746,5.76,-7.63,1.24,-1.08,-0.49,0.37,
4.747,5.76,-7.63,1.24,-1.06,-0.48,0.29,
4.747,5.76,-7.63,1.24,-1.04,-0.47,0.22,
4.747,5.81,-7.71,1.20,-1.04,-0.47,0.22,
4.759,5.81,-7.71,1.20,-1.01,-0.47,0.15,
4.76,5.81,-7.71,1.20,-0.99,-0.46,0.07,
4.76,5.87,-7.77,1.13,-0.99,-0.46,0.07,
4.76,5.87,-7.77,1.13,-0.97,-0.45,0.01,
4.76,5.92,-7.80,1.02,-0.97,-0.45,0.01,
4.761,5.92,-7.80,1.02,-0.95,-0.44,-0.06,
4.761,5.92,-7.80,1.02,-0.94,-0.42,-0.13,
4.762,5.94,-7.82,0.90,-0.94,-0.42,-0.13,
4.762,5.94,-7.82,0.90,-0.92,-0.40,-0.21,
4.764,5.94,-7.82,0.90,-0.91,-0.38,-0.28,
4.767,5.94,-7.82,0.90,-0.90,-0.36,-0.35,
4.767,5.91,-7.97,0.75,-0.90,-0.36,-0.35,
4.769,5.91,-7.97,0.75,-0.88,-0.34,-0.43,
4.771,5.91,-7.97,0.75,-0.88,-0.31,-0.51,
4.772,5.87,-8.22,0.66,-0.88,-0.31,-0.51,
4.773,5.87,-8.22,0.66,-0.87,-0.29,-0.59,
4.776,5.87,-8.22,0.66,-0.87,-0.26,-0.68,
4.776,5.78,-8.50,0.56,-0.87,-0.26,-0.68,
4.778,5.78,-8.50,0.56,-0.87,-0.24,-0.77,
4.781,5.78,-8.50,0.56,-0.86,-0.22,-0.86,
4.781,5.66,-8.79,0.54,-0.86,-0.22,-0.86,
4.784,5.66,-8.79,0.54,-0.86,-0.20,-0.96,
4.786,5.66,-8.79,0.54,-0.86,-0.17,-1.06,
4.787,5.45,-9.08,0.51,-0.86,-0.17,-1.06,
4.788,5.45,-9.08,0.51,-0.85,-0.15,-1.16,
4.791,5.45,-9.08,0.51,-0.84,-0.12,-1.27,
4.791,5.10,-9.36,0.52,-0.84,-0.12,-1.27,
4.793,5.10,-9.36,0.52,-0.83,-0.10,-1.37,
4.796,4.63,-9.68,0.54,-0.83,-0.10,-1.37,
4.796,4.63,-9.68,0.54,-0.82,-0.07,-1.48,
4.798,4.63,-9.68,0.54,-0.81,-0.05,-1.59,
4.803,4.07,-10.07,0.46,-0.81,-0.05,-1.59,
4.803,4.07,-10.07,0.46,-0.79,-0.02,-1.71,
4.805,4.07,-10.07,0.46,-0.78,0.01,-1.82,
4.807,4.07,-10.07,0.46,-0.76,0.03,-1.93,
4.808,3.45,-10.41,0.35,-0.76,0.03,-1.93,
4.81,3.45,-10.41,0.35,-0.74,0.06,-2.04,
4.812,3.45,-10.41,0.35,-0.72,0.08,-2.15,
4.813,2.80,-10.78,0.17,-0.72,0.08,-2.15,
4.823,2.80,-10.78,0.17,-0.70,0.09,-2.26,
4.823,2.80,-10.78,0.17,-0.68,0.10,-2.38,
4.824,2.09,-11.09,0.04,-0.68,0.10,-2.38,
4.824,2.09,-11.09,0.04,-0.66,0.10,-2.49,
4.824,1.39,-11.26,-0.13,-0.66,0.10,-2.49,
4.824,1.39,-11.26,-0.13,-0.63,0.10,-2.60,
4.826,1.39,-11.26,-0.13,-0.61,0.09,-2.70,
4.826,1.39,-11.26,-0.13,-0.59,0.09,-2.80,
4.826,0.77,-11.17,-0.34,-0.59,0.09,-2.80,
4.828,0.77,-11.17,-0.34,-0.58,0.09,-2.90,
4.831,0.77,-11.17,-0.34,-0.57,0.10,-2.98,
4.831,0.31,-10.85,-0.72,-0.57,0.10,-2.98,
4.835,0.31,-10.85,-0.72,-0.57,0.12,-3.06,
4.836,0.06,-10.29,-1.13,-0.57,0.12,-3.06,
4.837,0.06,-10.29,-1.13,-0.58,0.14,-3.13,
4.84,0.06,-10.29,-1.13,-0.60,0.17,-3.19,
4.841,0.06,-10.29,-1.13,-0.63,0.20,-3.24,
4.841,0.01,-9.48,-1.41,-0.63,0.20,-3.24,
4.843,0.01,-9.48,-1.41,-0.67,0.22,-3.30,
4.847,0.01,-9.48,-1.41,-0.71,0.25,-3.34,
4.847,0.07,-8.60,-1.56,-0.71,0.25,-3.34,
4.85,0.07,-8.60,-1.56,-0.76,0.28,-3.39,
4.851,0.18,-7.67,-1.52,-0.76,0.28,-3.39,
4.852,0.18,-7.67,-1.52,-0.80,0.30,-3.43,
4.853,0.18,-7.67,-1.52,-0.84,0.33,-3.47,
4.856,0.18,-7.67,-1.52,-0.88,0.36,-3.51,
4.857,0.30,-6.78,-1.29,-0.88,0.36,-3.51,
4.858,0.30,-6.78,-1.29,-0.91,0.38,-3.55,
4.861,0.30,-6.78,-1.29,-0.93,0.41,-3.58,
4.861,0.28,-5.97,-0.87,-0.93,0.41,-3.58,
4.863,0.28,-5.97,-0.87,-0.93,0.43,-3.62,
4.866,0.05,-5.32,-0.36,-0.93,0.43,-3.62,
4.866,0.05,-5.32,-0.36,-0.93,0.45,-3.65,
4.87,0.05,-5.32,-0.36,-0.91,0.46,-3.68,
4.871,-0.29,-4.82,0.20,-0.91,0.46,-3.68,
4.891,-0.29,-4.82,0.20,-0.89,0.47,-3.71,
4.891,-0.29,-4.82,0.20,-0.84,0.47,-3.73,
4.891,-0.29,-4.82,0.20,-0.79,0.47,-3.75,
4.891,-0.73,-4.46,0.65,-0.79,0.47,-3.75,
4.892,-0.73,-4.46,0.65,-0.73,0.47,-3.77,
4.892,-0.73,-4.46,0.65,-0.65,0.46,-3.78,
4.892,-1.22,-4.17,0.99,-0.65,0.46,-3.78,
4.892,-1.22,-4.17,0.99,-0.57,0.45,-3.78,
4.892,-1.22,-4.17,0.99,-0.48,0.44,-3.79,
4.892,-1.79,-3.87,1.18,-0.48,0.44,-3.79,
4.893,-2.38,-3.58,1.22,-0.48,0.44,-3.79,
4.893,-2.38,-3.58,1.22,-0.38,0.42,-3.78,
4.893,-2.38,-3.58,1.22,-0.27,0.40,-3.78,
4.893,-2.38,-3.58,1.22,-0.16,0.38,-3.76,
4.896,-2.93,-3.29,1.08,-0.16,0.38,-3.76,
4.896,-2.93,-3.29,1.08,-0.04,0.36,-3.75,
4.898,-2.93,-3.29,1.08,0.08,0.34,-3.72,
4.904,-2.93,-3.29,1.08,0.20,0.32,-3.70,
4.905,-3.44,-3.03,0.74,0.20,0.32,-3.70,
4.905,-3.44,-3.03,0.74,0.32,0.30,-3.66,
4.907,-3.44,-3.03,0.74,0.44,0.28,-3.62,
4.907,-3.84,-2.74,0.22,0.44,0.28,-3.62,
4.908,-3.84,-2.74,0.22,0.55,0.27,-3.57,
4.914,-3.84,-2.74,0.22,0.66,0.27,-3.52,
4.914,-4.12,-2.47,-0.43,0.66,0.27,-3.52,
4.914,-4.12,-2.47,-0.43,0.75,0.27,-3.46,
4.934,-4.12,-2.47,-0.43,0.83,0.28,-3.40,
4.935,-4.27,-2.21,-1.16,0.83,0.28,-3.40,
4.935,-4.27,-2.21,-1.16,0.90,0.29,-3.34,
4.935,-4.39,-1.97,-1.93,0.90,0.29,-3.34,
4.935,-4.39,-1.97,-1.93,0.95,0.30,-3.27,
4.936,-4.36,-1.74,-2.71,0.95,0.30,-3.27,
4.936,-4.36,-1.74,-2.71,0.99,0.32,-3.19,
4.936,-4.36,-1.74,-2.71,1.02,0.35,-3.11,
4.936,-4.36,-1.74,-2.71,1.02,0.38,-3.03,
4.936,-4.36,-1.74,-2.71,1.01,0.41,-2.95,
4.936,-4.23,-1.53,-3.40,1.01,0.41,-2.95,
4.936,-4.23,-1.53,-3.40,0.99,0.45,-2.87,
4.938,-4.23,-1.53,-3.40,0.95,0.49,-2.79,
