
time,ax,ay,az,wx,wy,wz,
0.003,0.32,0.79,0.47,0.36,0.16,0.06,
0.003,0.33,0.87,0.34,0.36,0.16,0.06,
0.003,0.33,0.87,0.34,0.34,0.16,0.06,
0.003,0.35,0.92,0.32,0.34,0.16,0.06,
0.003,0.35,0.92,0.32,0.32,0.16,0.06,
0.003,0.35,0.92,0.32,0.30,0.16,0.07,
0.004,0.35,0.92,0.32,0.29,0.15,0.07,
0.004,0.20,0.91,0.23,0.29,0.15,0.07,
0.004,0.20,0.91,0.23,0.27,0.15,0.08,
0.004,0.20,0.91,0.23,0.26,0.15,0.09,
0.004,0.08,0.95,0.09,0.26,0.15,0.09,
0.004,0.08,0.95,0.09,0.24,0.14,0.09,
0.006,0.08,0.95,0.09,0.23,0.14,0.10,
0.006,0.08,1.03,0.04,0.23,0.14,0.10,
0.008,0.08,1.03,0.04,0.22,0.13,0.11,
0.011,0.08,1.03,0.04,0.21,0.13,0.11,
0.011,0.20,1.08,0.00,0.21,0.13,0.11,
0.014,0.20,1.08,0.00,0.20,0.12,0.11,
0.016,0.34,1.08,-0.12,0.20,0.12,0.11,
0.016,0.34,1.08,-0.12,0.19,0.11,0.11,
0.018,0.34,1.08,-0.12,0.18,0.10,0.11,
0.021,0.34,1.08,-0.12,0.17,0.09,0.10,
0.021,0.47,1.02,-0.36,0.17,0.09,0.10,
0.023,0.47,1.02,-0.36,0.16,0.08,0.09,
0.026,0.47,1.02,-0.36,0.14,0.07,0.08,
0.026,0.53,0.93,-0.63,0.14,0.07,0.08,
0.029,0.53,0.93,-0.63,0.12,0.06,0.08,
0.031,0.53,0.93,-0.63,0.10,0.05,0.06,
0.031,0.53,0.85,-0.89,0.10,0.05,0.06,
0.033,0.53,0.85,-0.89,0.07,0.05,0.06,
0.036,0.53,0.85,-0.89,0.05,0.05,0.05,
0.036,0.46,0.81,-1.06,0.05,0.05,0.05,
0.038,0.46,0.81,-1.06,0.02,0.04,0.04,
0.041,0.46,0.81,-1.06,-0.00,0.04,0.04,
0.041,0.32,0.72,-1.17,-0.00,0.04,0.04,
0.043,0.32,0.72,-1.17,-0.03,0.04,0.03,
0.046,0.32,0.72,-1.17,-0.06,0.04,0.03,
0.046,0.25,0.65,-1.17,-0.06,0.04,0.03,
0.048,0.25,0.65,-1.17,-0.08,0.04,0.02,
0.056,0.24,0.60,-1.03,-0.08,0.04,0.02,
0.057,0.24,0.60,-1.03,-0.10,0.03,0.02,
0.057,0.24,0.60,-1.03,-0.12,0.03,0.01,
0.057,0.24,0.60,-1.03,-0.13,0.02,0.01,
0.057,0.27,0.59,-0.84,-0.13,0.02,0.01,
0.059,0.27,0.59,-0.84,-0.13,0.01,0.01,
0.06,0.26,0.57,-0.59,-0.13,0.01,0.01,
0.061,0.26,0.57,-0.59,-0.13,0.00,0.00,
0.063,0.26,0.57,-0.59,-0.13,-0.00,0.01,
0.066,0.23,0.59,-0.42,-0.13,-0.00,0.01,
0.066,0.23,0.59,-0.42,-0.12,-0.01,0.01,
0.069,0.23,0.59,-0.42,-0.11,-0.01,0.02,
0.071,0.23,0.59,-0.42,-0.10,-0.00,0.02,
0.072,0.29,0.64,-0.35,-0.10,-0.00,0.02,
0.073,0.29,0.64,-0.35,-0.08,-0.00,0.03,
0.075,0.29,0.64,-0.35,-0.07,0.01,0.04,
0.075,0.36,0.64,-0.36,-0.07,0.01,0.04,
0.078,0.36,0.64,-0.36,-0.06,0.03,0.05,
0.08,0.36,0.64,-0.36,-0.05,0.05,0.06,
0.081,0.33,0.59,-0.36,-0.05,0.05,0.06,
0.083,0.33,0.59,-0.36,-0.04,0.07,0.07,
0.085,0.33,0.59,-0.36,-0.03,0.10,0.09,
0.086,0.27,0.52,-0.37,-0.03,0.10,0.09,
0.087,0.27,0.52,-0.37,-0.03,0.13,0.10,
0.09,0.27,0.52,-0.37,-0.03,0.16,0.11,
0.09,0.27,0.48,-0.41,-0.03,0.16,0.11,
0.093,0.27,0.48,-0.41,-0.02,0.19,0.12,
0.095,0.27,0.48,-0.41,-0.02,0.22,0.14,
0.095,0.28,0.43,-0.44,-0.02,0.22,0.14,
0.098,0.28,0.43,-0.44,-0.02,0.24,0.15,
0.101,0.28,0.43,-0.44,-0.02,0.27,0.17,
0.101,0.27,0.35,-0.42,-0.02,0.27,0.17,
0.102,0.27,0.35,-0.42,-0.03,0.30,0.18,
0.105,0.27,0.35,-0.42,-0.03,0.33,0.19,
0.105,0.23,0.26,-0.44,-0.03,0.33,0.19,
0.108,0.23,0.26,-0.44,-0.04,0.36,0.20,
0.11,0.23,0.26,-0.44,-0.05,0.39,0.22,
0.111,0.05,0.13,-0.36,-0.05,0.39,0.22,
0.114,0.05,0.13,-0.36,-0.06,0.43,0.23,
0.117,0.05,0.13,-0.36,-0.07,0.46,0.24,
0.118,-0.01,0.03,-0.30,-0.07,0.46,0.24,
0.118,-0.01,0.03,-0.30,-0.09,0.50,0.25,
0.12,-0.01,0.03,-0.30,-0.10,0.53,0.26,
0.12,-0.11,-0.10,-0.10,-0.10,0.53,0.26,
0.123,-0.11,-0.10,-0.10,-0.12,0.56,0.26,
0.14,-0.11,-0.10,-0.10,-0.14,0.59,0.27,
0.14,-0.17,-0.23,0.27,-0.14,0.59,0.27,
0.141,-0.17,-0.23,0.27,-0.16,0.62,0.27,
0.141,-0.17,-0.23,0.27,-0.17,0.64,0.27,
0.141,-0.30,-0.39,0.73,-0.17,0.64,0.27,
0.142,-0.30,-0.39,0.73,-0.18,0.65,0.28,
0.143,-0.75,-0.44,0.98,-0.18,0.65,0.28,
0.143,-0.75,-0.44,0.98,-0.20,0.67,0.29,
0.144,-0.75,-0.44,0.98,-0.22,0.68,0.30,
0.147,-0.72,-0.48,1.41,-0.22,0.68,0.30,
0.148,-0.72,-0.48,1.41,-0.24,0.67,0.30,
0.148,-0.72,-0.48,1.41,-0.25,0.66,0.30,
0.148,-0.79,-0.58,1.95,-0.25,0.66,0.30,
0.149,-0.79,-0.58,1.95,-0.26,0.64,0.30,
0.15,-0.79,-0.58,1.95,-0.26,0.61,0.30,
0.152,-0.93,-0.73,2.55,-0.26,0.61,0.30,
0.153,-0.93,-0.73,2.55,-0.25,0.57,0.29,
0.153,-0.93,-0.73,2.55,-0.24,0.52,0.29,
0.155,-1.06,-0.87,3.07,-0.24,0.52,0.29,
0.155,-1.06,-0.87,3.07,-0.22,0.46,0.28,
0.157,-1.06,-0.87,3.07,-0.20,0.40,0.27,
0.159,-1.06,-0.87,3.07,-0.16,0.33,0.26,
0.16,-1.12,-0.98,3.42,-0.16,0.33,0.26,
0.162,-1.12,-0.98,3.42,-0.13,0.26,0.25,
0.164,-1.12,-0.98,3.42,-0.10,0.19,0.24,
0.164,-1.21,-1.01,3.34,-0.10,0.19,0.24,
0.168,-1.21,-1.01,3.34,-0.07,0.14,0.23,
0.17,-1.21,-1.01,3.34,-0.04,0.08,0.23,
0.17,-1.25,-0.98,2.97,-0.04,0.08,0.23,
0.172,-1.25,-0.98,2.97,-0.02,0.03,0.22,
0.174,-1.12,-0.94,2.55,-0.02,0.03,0.22,
0.175,-1.12,-0.94,2.55,-0.00,-0.02,0.21,
0.178,-1.12,-0.94,2.55,0.02,-0.07,0.21,
0.18,-1.12,-0.94,2.55,0.04,-0.11,0.20,
0.18,-0.96,-0.92,2.10,0.04,-0.11,0.20,
0.183,-0.96,-0.92,2.10,0.06,-0.15,0.20,
0.186,-0.96,-0.92,2.10,0.08,-0.19,0.19,
0.186,-0.74,-0.95,1.58,0.08,-0.19,0.19,
0.187,-0.74,-0.95,1.58,0.09,-0.22,0.18,
0.19,-0.74,-0.95,1.58,0.11,-0.25,0.16,
0.19,-0.53,-1.02,1.10,0.11,-0.25,0.16,
0.194,-0.53,-1.02,1.10,0.13,-0.27,0.15,
0.194,-0.53,-1.02,1.10,0.14,-0.28,0.14,
0.194,-0.37,-1.11,0.67,0.14,-0.28,0.14,
0.196,-0.37,-1.11,0.67,0.16,-0.29,0.13,
0.2,-0.37,-1.11,0.67,0.17,-0.29,0.12,
0.2,-0.25,-1.14,0.31,0.17,-0.29,0.12,
0.202,-0.25,-1.14,0.31,0.19,-0.29,0.11,
0.204,-0.25,-1.14,0.31,0.20,-0.28,0.11,
0.204,-0.14,-1.14,0.07,0.20,-0.28,0.11,
0.207,-0.14,-1.14,0.07,0.22,-0.26,0.10,
0.209,-0.14,-1.14,0.07,0.23,-0.24,0.10,
0.209,-0.09,-1.10,-0.15,0.23,-0.24,0.10,
0.211,-0.09,-1.10,-0.15,0.25,-0.22,0.10,
0.214,-0.09,-1.10,-0.15,0.26,-0.20,0.11,
0.214,-0.08,-1.06,-0.30,0.26,-0.20,0.11,
0.217,-0.08,-1.06,-0.30,0.28,-0.17,0.11,
0.219,-0.08,-1.06,-0.30,0.29,-0.14,0.12,
0.219,-0.04,-1.05,-0.43,0.29,-0.14,0.12,
0.221,-0.04,-1.05,-0.43,0.30,-0.11,0.12,
0.224,-0.04,-1.05,-0.43,0.31,-0.08,0.13,
0.224,-0.04,-1.02,-0.56,0.31,-0.08,0.13,
0.226,-0.04,-1.02,-0.56,0.32,-0.05,0.14,
0.229,-0.04,-1.02,-0.56,0.33,-0.02,0.15,
0.229,-0.01,-1.03,-0.65,0.33,-0.02,0.15,
0.231,-0.01,-1.03,-0.65,0.33,0.02,0.16,
0.234,-0.01,-1.03,-0.71,0.33,0.02,0.16,
0.234,-0.01,-1.03,-0.71,0.34,0.04,0.17,
0.236,-0.01,-1.03,-0.71,0.34,0.07,0.18,
0.239,-0.01,-1.03,-0.71,0.33,0.10,0.19,
0.239,-0.04,-1.07,-0.71,0.33,0.10,0.19,
0.241,-0.04,-1.07,-0.71,0.33,0.12,0.20,
0.244,-0.04,-1.07,-0.71,0.33,0.14,0.21,
0.244,-0.08,-1.09,-0.66,0.33,0.14,0.21,
0.246,-0.08,-1.09,-0.66,0.32,0.16,0.21,
0.258,-0.14,-1.13,-0.56,0.32,0.16,0.21,
0.259,-0.14,-1.13,-0.56,0.32,0.17,0.22,
0.259,-0.14,-1.13,-0.56,0.31,0.18,0.23,
0.259,-0.14,-1.13,-0.56,0.30,0.19,0.24,
0.259,-0.17,-1.15,-0.47,0.30,0.19,0.24,
0.26,-0.17,-1.15,-0.47,0.29,0.19,0.25,
0.26,-0.17,-1.15,-0.47,0.27,0.19,0.25,
0.26,-0.23,-1.17,-0.38,0.27,0.19,0.25,
0.261,-0.23,-1.17,-0.38,0.26,0.19,0.26,
0.264,-0.23,-1.17,-0.38,0.24,0.18,0.27,
0.264,-0.25,-1.18,-0.29,0.24,0.18,0.27,
0.286,-0.25,-1.18,-0.29,0.22,0.17,0.27,
0.286,-0.25,-1.18,-0.29,0.20,0.16,0.28,
0.286,-0.25,-1.17,-0.19,0.20,0.16,0.28,
0.287,-0.25,-1.17,-0.19,0.18,0.15,0.28,
0.287,-0.25,-1.17,-0.19,0.16,0.14,0.28,
0.287,-0.28,-1.18,-0.10,0.16,0.14,0.28,
0.287,-0.28,-1.18,-0.10,0.14,0.12,0.28,
0.287,-0.28,-1.18,-0.10,0.12,0.11,0.28,
0.287,-0.30,-1.16,-0.01,0.12,0.11,0.28,
0.288,-0.30,-1.16,-0.01,0.10,0.09,0.29,
0.288,-0.30,-1.16,-0.01,0.08,0.07,0.28,
0.288,-0.32,-1.11,0.06,0.08,0.07,0.28,
0.288,-0.32,-1.11,0.06,0.05,0.05,0.28,
0.289,-0.32,-1.11,0.06,0.03,0.03,0.28,
0.302,-0.36,-1.04,0.09,0.03,0.03,0.28,
0.302,-0.36,-1.04,0.09,0.01,0.01,0.28,
0.303,-0.36,-1.04,0.09,-0.01,-0.01,0.28,
0.303,-0.38,-0.97,0.13,-0.01,-0.01,0.28,
0.303,-0.38,-0.97,0.13,-0.04,-0.03,0.28,
0.303,-0.38,-0.97,0.13,-0.05,-0.05,0.28,
0.304,-0.39,-0.92,0.13,-0.05,-0.05,0.28,
0.304,-0.39,-0.92,0.13,-0.08,-0.07,0.28,
0.304,-0.37,-0.90,0.10,-0.08,-0.07,0.28,
0.304,-0.37,-0.90,0.10,-0.10,-0.09,0.28,
0.307,-0.37,-0.90,0.10,-0.11,-0.11,0.28,
0.308,-0.37,-0.90,0.10,-0.13,-0.12,0.28,
0.308,-0.33,-0.89,0.07,-0.13,-0.12,0.28,
0.31,-0.33,-0.89,0.07,-0.15,-0.13,0.28,
0.313,-0.33,-0.89,0.07,-0.16,-0.14,0.28,
0.313,-0.29,-0.90,0.02,-0.16,-0.14,0.28,
0.316,-0.29,-0.90,0.02,-0.18,-0.15,0.28,
0.318,-0.29,-0.90,0.02,-0.19,-0.16,0.28,
0.319,-0.23,-0.90,-0.00,-0.19,-0.16,0.28,
0.321,-0.23,-0.90,-0.00,-0.20,-0.16,0.27,
0.323,-0.23,-0.90,-0.00,-0.21,-0.16,0.27,
0.323,-0.17,-0.88,-0.01,-0.21,-0.16,0.27,
0.326,-0.17,-0.88,-0.01,-0.21,-0.17,0.27,
0.328,-0.17,-0.88,-0.01,-0.22,-0.17,0.26,
0.328,-0.12,-0.88,0.03,-0.22,-0.17,0.26,
0.331,-0.12,-0.88,0.03,-0.22,-0.18,0.26,
0.333,-0.12,-0.88,0.03,-0.22,-0.18,0.26,
0.333,-0.07,-0.86,0.08,-0.22,-0.18,0.26,
0.335,-0.07,-0.86,0.08,-0.21,-0.18,0.25,
0.338,-0.07,-0.86,0.08,-0.20,-0.19,0.25,
0.338,-0.05,-0.84,0.14,-0.20,-0.19,0.25,
0.34,-0.05,-0.84,0.14,-0.19,-0.19,0.25,
0.343,-0.05,-0.84,0.14,-0.18,-0.19,0.24,
0.343,-0.00,-0.83,0.15,-0.18,-0.19,0.24,
0.346,-0.00,-0.83,0.15,-0.17,-0.20,0.24,
0.348,-0.00,-0.83,0.15,-0.15,-0.20,0.23,
0.348,0.05,-0.82,0.17,-0.15,-0.20,0.23,
0.355,0.05,-0.82,0.17,-0.13,-0.20,0.23,
0.356,0.09,-0.79,0.17,-0.13,-0.20,0.23,
0.356,0.09,-0.79,0.17,-0.12,-0.20,0.22,
0.356,0.09,-0.79,0.17,-0.10,-0.19,0.21,
0.358,0.09,-0.79,0.17,-0.08,-0.19,0.20,
0.359,0.11,-0.69,0.16,-0.08,-0.19,0.20,
0.36,0.11,-0.69,0.16,-0.06,-0.19,0.19,
0.363,0.08,-0.60,0.10,-0.06,-0.19,0.19,
0.363,0.08,-0.60,0.10,-0.04,-0.19,0.18,
0.365,0.08,-0.60,0.10,-0.02,-0.19,0.17,
0.368,0.02,-0.49,-0.01,-0.02,-0.19,0.17,
0.368,0.02,-0.49,-0.01,0.00,-0.19,0.16,
0.37,0.02,-0.49,-0.01,0.02,-0.19,0.15,
0.374,-0.03,-0.38,-0.15,0.02,-0.19,0.15,
0.375,-0.03,-0.38,-0.15,0.04,-0.19,0.14,
0.375,-0.03,-0.38,-0.15,0.05,-0.19,0.13,
0.378,-0.03,-0.38,-0.15,0.06,-0.19,0.12,
0.378,-0.10,-0.28,-0.32,0.06,-0.19,0.12,
0.38,-0.10,-0.28,-0.32,0.07,-0.19,0.12,
0.383,-0.15,-0.19,-0.52,0.07,-0.19,0.12,
0.383,-0.15,-0.19,-0.52,0.07,-0.19,0.11,
0.385,-0.15,-0.19,-0.52,0.08,-0.19,0.11,
0.388,-0.22,-0.09,-0.65,0.08,-0.19,0.11,
0.388,-0.22,-0.09,-0.65,0.08,-0.19,0.10,
0.39,-0.22,-0.09,-0.65,0.08,-0.20,0.10,
0.393,-0.27,-0.02,-0.80,0.08,-0.20,0.10,
0.393,-0.27,-0.02,-0.80,0.07,-0.20,0.10,
0.397,-0.27,-0.02,-0.80,0.07,-0.21,0.09,
0.397,-0.27,-0.02,-0.80,0.06,-0.21,0.09,
0.397,-0.31,0.04,-0.96,0.06,-0.21,0.09,
0.4,-0.31,0.04,-0.96,0.05,-0.22,0.09,
0.403,-0.31,0.04,-0.96,0.04,-0.23,0.09,
0.403,-0.29,0.08,-1.12,0.04,-0.23,0.09,
0.405,-0.29,0.08,-1.12,0.02,-0.23,0.09,
0.407,-0.29,0.08,-1.12,0.01,-0.24,0.09,
0.408,-0.27,0.13,-1.28,0.01,-0.24,0.09,
0.41,-0.27,0.13,-1.28,-0.01,-0.24,0.08,
0.412,-0.27,0.13,-1.28,-0.02,-0.24,0.08,
0.413,-0.24,0.19,-1.39,-0.02,-0.24,0.08,
0.415,-0.24,0.19,-1.39,-0.04,-0.24,0.08,
0.417,-0.24,0.19,-1.39,-0.06,-0.23,0.08,
0.418,-0.25,0.20,-1.43,-0.06,-0.23,0.08,
0.42,-0.25,0.20,-1.43,-0.08,-0.23,0.08,
0.423,-0.25,0.20,-1.43,-0.10,-0.22,0.07,
0.423,-0.24,0.25,-1.45,-0.10,-0.22,0.07,
0.424,-0.24,0.25,-1.45,-0.12,-0.22,0.07,
0.427,-0.24,0.25,-1.45,-0.13,-0.21,0.07,
0.427,-0.23,0.27,-1.40,-0.13,-0.21,0.07,
0.429,-0.23,0.27,-1.40,-0.15,-0.20,0.08,
0.432,-0.24,0.29,-1.31,-0.15,-0.20,0.08,
0.432,-0.24,0.29,-1.31,-0.16,-0.20,0.08,
0.437,-0.24,0.29,-1.31,-0.17,-0.19,0.08,
0.437,-0.24,0.29,-1.31,-0.18,-0.18,0.08,
0.437,-0.23,0.31,-1.22,-0.18,-0.18,0.08,
0.439,-0.23,0.31,-1.22,-0.19,-0.17,0.08,
0.442,-0.23,0.31,-1.22,-0.19,-0.16,0.09,
0.442,-0.21,0.34,-1.12,-0.19,-0.16,0.09,
0.444,-0.21,0.34,-1.12,-0.19,-0.14,0.09,
0.447,-0.21,0.34,-1.12,-0.20,-0.13,0.09,
0.447,-0.26,0.35,-1.02,-0.20,-0.13,0.09,
0.453,-0.26,0.35,-1.02,-0.20,-0.11,0.09,
0.453,-0.82,0.52,-1.25,-0.20,-0.11,0.09,
0.453,-0.82,0.52,-1.25,-0.21,-0.08,0.11,
0.469,-0.82,0.52,-1.25,-0.22,-0.06,0.14,
0.469,-0.82,0.52,-1.25,-0.22,-0.05,0.16,
0.469,-0.70,0.65,-1.12,-0.22,-0.05,0.16,
0.469,-0.70,0.65,-1.12,-0.23,-0.04,0.17,
0.469,-0.70,0.65,-1.12,-0.23,-0.04,0.17,
0.469,-0.54,0.67,-0.84,-0.23,-0.04,0.17,
0.47,-0.54,0.67,-0.84,-0.23,-0.05,0.18,
0.47,-0.54,0.67,-0.84,-0.22,-0.06,0.18,
0.47,-0.66,0.49,-0.61,-0.22,-0.06,0.18,
0.47,-0.66,0.49,-0.61,-0.21,-0.07,0.18,
0.472,-0.66,0.49,-0.61,-0.20,-0.08,0.18,
0.473,-0.80,0.29,-0.24,-0.20,-0.08,0.18,
0.474,-0.80,0.29,-0.24,-0.18,-0.10,0.18,
0.477,-0.80,0.29,-0.24,-0.16,-0.11,0.18,
0.477,-0.81,0.35,-0.09,-0.16,-0.11,0.18,
0.479,-0.81,0.35,-0.09,-0.14,-0.11,0.18,
0.482,-0.81,0.35,-0.09,-0.12,-0.12,0.17,
0.482,-0.60,0.46,-0.02,-0.12,-0.12,0.17,
0.485,-0.60,0.46,-0.02,-0.10,-0.13,0.17,
0.487,-0.60,0.46,-0.02,-0.08,-0.14,0.16,
0.487,-0.54,0.51,0.02,-0.08,-0.14,0.16,
0.489,-0.54,0.51,0.02,-0.06,-0.15,0.16,
0.492,-0.63,0.49,-0.01,-0.06,-0.15,0.16,
0.492,-0.63,0.49,-0.01,-0.05,-0.15,0.16,
0.495,-0.63,0.49,-0.01,-0.04,-0.16,0.16,
0.497,-0.63,0.49,-0.01,-0.02,-0.16,0.16,
0.497,-0.65,0.45,-0.08,-0.02,-0.16,0.16,
0.499,-0.65,0.45,-0.08,-0.02,-0.16,0.16,
0.504,-0.65,0.45,-0.08,-0.01,-0.17,0.16,
0.504,-0.63,0.44,-0.17,-0.01,-0.17,0.16,
0.504,-0.63,0.44,-0.17,-0.01,-0.17,0.16,
0.506,-0.63,0.44,-0.17,-0.01,-0.16,0.16,
0.506,-0.61,0.47,-0.24,-0.01,-0.16,0.16,
0.509,-0.61,0.47,-0.24,-0.01,-0.17,0.16,
0.511,-0.61,0.47,-0.24,-0.01,-0.17,0.16,
0.512,-0.62,0.50,-0.34,-0.01,-0.17,0.16,
0.514,-0.62,0.50,-0.34,-0.01,-0.16,0.15,
0.517,-0.62,0.54,-0.39,-0.01,-0.16,0.15,
0.517,-0.62,0.54,-0.39,-0.01,-0.16,0.15,
0.52,-0.62,0.54,-0.39,-0.02,-0.16,0.15,
0.521,-0.59,0.59,-0.45,-0.02,-0.16,0.15,
0.521,-0.59,0.59,-0.45,-0.02,-0.16,0.15,
0.524,-0.59,0.59,-0.45,-0.03,-0.16,0.15,
0.526,-0.59,0.59,-0.45,-0.04,-0.16,0.15,
0.526,-0.58,0.60,-0.44,-0.04,-0.16,0.15,
0.529,-0.58,0.60,-0.44,-0.05,-0.16,0.15,
0.535,-0.56,0.63,-0.42,-0.05,-0.16,0.15,
0.535,-0.56,0.63,-0.42,-0.05,-0.16,0.14,
0.535,-0.56,0.63,-0.42,-0.06,-0.16,0.14,
0.537,-0.56,0.63,-0.42,-0.07,-0.17,0.14,
0.537,-0.57,0.64,-0.41,-0.07,-0.17,0.14,
0.538,-0.57,0.64,-0.41,-0.08,-0.17,0.13,
0.543,-0.60,0.64,-0.40,-0.08,-0.17,0.13,
0.543,-0.60,0.64,-0.40,-0.08,-0.17,0.13,
0.545,-0.60,0.64,-0.40,-0.09,-0.18,0.12,
0.547,-0.60,0.64,-0.40,-0.09,-0.18,0.12,
0.547,-0.60,0.66,-0.38,-0.09,-0.18,0.12,
0.549,-0.60,0.66,-0.38,-0.10,-0.19,0.12,
0.552,-0.60,0.66,-0.38,-0.10,-0.19,0.12,
0.552,-0.58,0.69,-0.37,-0.10,-0.19,0.12,
0.554,-0.58,0.69,-0.37,-0.10,-0.20,0.11,
0.557,-0.58,0.69,-0.37,-0.10,-0.20,0.11,
0.557,-0.52,0.70,-0.35,-0.10,-0.20,0.11,
0.558,-0.52,0.70,-0.35,-0.10,-0.20,0.11,
0.561,-0.48,0.73,-0.33,-0.10,-0.20,0.11,
0.562,-0.48,0.73,-0.33,-0.10,-0.20,0.10,
0.564,-0.48,0.73,-0.33,-0.10,-0.20,0.09,
0.567,-0.48,0.73,-0.33,-0.09,-0.20,0.09,
0.567,-0.48,0.74,-0.31,-0.09,-0.20,0.09,
0.571,-0.48,0.74,-0.31,-0.09,-0.20,0.09,
0.571,-0.48,0.74,-0.31,-0.08,-0.20,0.08,
0.571,-0.51,0.75,-0.32,-0.08,-0.20,0.08,
0.573,-0.51,0.75,-0.32,-0.07,-0.20,0.08,
0.576,-0.55,0.79,-0.34,-0.07,-0.20,0.08,
0.576,-0.55,0.79,-0.34,-0.06,-0.20,0.08,
0.578,-0.55,0.79,-0.34,-0.05,-0.20,0.08,
0.581,-0.55,0.79,-0.34,-0.04,-0.19,0.07,
0.581,-0.56,0.84,-0.37,-0.04,-0.19,0.07,
0.584,-0.56,0.84,-0.37,-0.03,-0.19,0.07,
0.586,-0.56,0.84,-0.37,-0.02,-0.18,0.08,
0.587,-0.59,0.88,-0.39,-0.02,-0.18,0.08,
0.588,-0.59,0.88,-0.39,-0.01,-0.17,0.08,
0.591,-0.65,0.92,-0.43,-0.01,-0.17,0.08,
0.591,-0.65,0.92,-0.43,-0.00,-0.16,0.08,
0.593,-0.65,0.92,-0.43,0.00,-0.16,0.09,
0.596,-0.65,0.92,-0.43,0.00,-0.15,0.09,
0.596,-0.72,0.94,-0.45,0.00,-0.15,0.09,
0.598,-0.72,0.94,-0.45,0.01,-0.14,0.10,
0.602,-0.72,0.94,-0.45,0.01,-0.14,0.10,
0.602,-0.72,0.98,-0.41,0.01,-0.14,0.10,
0.603,-0.72,0.98,-0.41,0.02,-0.14,0.11,
0.606,-0.70,1.00,-0.35,0.02,-0.14,0.11,
0.606,-0.70,1.00,-0.35,0.02,-0.14,0.11,
0.608,-0.70,1.00,-0.35,0.02,-0.14,0.12,
0.611,-0.70,1.00,-0.35,0.03,-0.14,0.12,
0.611,-0.65,1.02,-0.32,0.03,-0.14,0.12,
0.614,-0.65,1.02,-0.32,0.03,-0.15,0.12,
0.616,-0.65,1.02,-0.32,0.03,-0.16,0.12,
0.617,-0.57,1.02,-0.29,0.03,-0.16,0.12,
0.618,-0.57,1.02,-0.29,0.04,-0.16,0.12,
0.634,-0.57,1.02,-0.29,0.04,-0.17,0.12,
0.634,-0.48,1.00,-0.32,0.04,-0.17,0.12,
0.634,-0.48,1.00,-0.32,0.04,-0.18,0.11,
0.635,-0.48,1.00,-0.32,0.04,-0.18,0.11,
0.635,-0.39,0.98,-0.34,0.04,-0.18,0.11,
0.635,-0.39,0.98,-0.34,0.04,-0.19,0.10,
0.635,-0.39,0.98,-0.34,0.03,-0.19,0.10,
0.635,-0.33,1.01,-0.36,0.03,-0.19,0.10,
0.638,-0.33,1.01,-0.36,0.03,-0.19,0.08,
0.638,-0.33,1.01,-0.36,0.03,-0.19,0.08,
0.639,-0.29,1.03,-0.36,0.03,-0.19,0.08,
0.639,-0.29,1.03,-0.36,0.03,-0.19,0.07,
0.641,-0.30,1.08,-0.34,0.03,-0.19,0.07,
0.641,-0.30,1.08,-0.34,0.02,-0.19,0.07,
0.643,-0.30,1.08,-0.34,0.02,-0.19,0.06,
0.646,-0.30,1.08,-0.34,0.02,-0.19,0.06,
0.646,-0.32,1.14,-0.28,0.02,-0.19,0.06,
0.651,-0.32,1.14,-0.28,0.01,-0.19,0.06,
0.652,-0.32,1.14,-0.28,0.01,-0.19,0.06,
0.653,-0.32,1.14,-0.28,0.00,-0.19,0.05,
0.654,-0.35,1.18,-0.28,0.00,-0.19,0.05,
0.655,-0.35,1.18,-0.28,-0.00,-0.19,0.05,
0.656,-0.35,1.20,-0.24,-0.00,-0.19,0.05,
0.658,-0.35,1.20,-0.24,-0.01,-0.19,0.05,
0.66,-0.35,1.20,-0.24,-0.01,-0.18,0.05,
0.661,-0.37,1.23,-0.22,-0.01,-0.18,0.05,
0.663,-0.37,1.23,-0.22,-0.01,-0.18,0.05,
0.665,-0.37,1.23,-0.22,-0.02,-0.18,0.05,
0.666,-0.32,1.25,-0.18,-0.02,-0.18,0.05,
0.674,-0.32,1.25,-0.18,-0.02,-0.17,0.05,
0.675,-0.32,1.25,-0.18,-0.02,-0.17,0.04,
0.682,-0.27,1.24,-0.17,-0.02,-0.17,0.04,
0.683,-0.27,1.24,-0.17,-0.02,-0.17,0.04,
0.684,-0.27,1.24,-0.17,-0.02,-0.17,0.03,
0.684,-0.21,1.24,-0.17,-0.02,-0.17,0.03,
0.684,-0.21,1.24,-0.17,-0.03,-0.16,0.03,
0.686,-0.21,1.24,-0.17,-0.03,-0.16,0.02,
0.688,-0.20,1.24,-0.18,-0.03,-0.16,0.02,
0.689,-0.20,1.24,-0.18,-0.03,-0.16,0.02,
0.689,-0.20,1.24,-0.18,-0.04,-0.15,0.02,
0.689,-0.20,1.22,-0.16,-0.04,-0.15,0.02,
0.69,-0.20,1.22,-0.16,-0.04,-0.14,0.01,
0.691,-0.20,1.22,-0.16,-0.04,-0.13,0.00,
0.691,-0.19,1.19,-0.14,-0.04,-0.13,0.00,
0.695,-0.19,1.19,-0.14,-0.05,-0.12,-0.00,
0.695,-0.19,1.19,-0.14,-0.05,-0.11,-0.01,
0.695,-0.20,1.14,-0.06,-0.05,-0.11,-0.01,
0.698,-0.20,1.14,-0.06,-0.05,-0.10,-0.02,
0.71,-0.20,1.09,0.04,-0.05,-0.10,-0.02,
0.711,-0.20,1.09,0.04,-0.05,-0.09,-0.03,
0.711,-0.20,1.09,0.04,-0.05,-0.08,-0.04,
0.711,-0.20,1.05,0.17,-0.05,-0.08,-0.04,
0.711,-0.20,1.05,0.17,-0.05,-0.07,-0.05,
0.712,-0.20,1.05,0.17,-0.05,-0.06,-0.06,
0.712,-0.24,1.01,0.29,-0.05,-0.06,-0.06,
0.712,-0.24,1.01,0.29,-0.05,-0.06,-0.07,
0.713,-0.24,1.01,0.29,-0.04,-0.04,-0.08,
0.715,-0.24,1.01,0.29,-0.05,-0.01,-0.11,
0.715,-0.26,0.79,0.25,-0.05,-0.01,-0.11,
0.717,-0.26,0.79,0.25,-0.06,0.02,-0.15,
0.72,-0.28,0.79,0.46,-0.06,0.02,-0.15,
0.72,-0.28,0.79,0.46,-0.07,0.02,-0.17,
0.722,-0.28,0.79,0.46,-0.07,0.01,-0.19,
0.725,-0.28,0.79,0.46,-0.06,-0.02,-0.20,
0.725,-0.40,0.86,0.80,-0.06,-0.02,-0.20,
0.727,-0.40,0.86,0.80,-0.04,-0.06,-0.20,
0.73,-0.38,0.99,1.06,-0.04,-0.06,-0.20,
0.73,-0.38,0.99,1.06,-0.02,-0.09,-0.21,
0.732,-0.38,0.99,1.06,0.01,-0.13,-0.21,
0.736,-0.26,1.13,1.19,0.01,-0.13,-0.21,
0.737,-0.26,1.13,1.19,0.04,-0.16,-0.21,
0.739,-0.26,1.13,1.19,0.08,-0.19,-0.22,
0.741,-0.26,1.13,1.19,0.11,-0.22,-0.22,
0.741,-0.20,1.11,1.22,0.11,-0.22,-0.22,
0.742,-0.20,1.11,1.22,0.14,-0.24,-0.23,
0.745,-0.18,1.03,1.14,0.14,-0.24,-0.23,
0.745,-0.18,1.03,1.14,0.17,-0.27,-0.23,
0.747,-0.18,1.03,1.14,0.20,-0.28,-0.24,
0.749,-0.18,1.03,1.14,0.23,-0.29,-0.24,
0.75,-0.11,0.98,0.98,0.23,-0.29,-0.24,
0.755,-0.11,0.98,0.98,0.25,-0.29,-0.25,
0.756,-0.11,0.98,0.98,0.28,-0.29,-0.26,
0.756,-0.03,0.97,0.86,0.28,-0.29,-0.26,
0.757,-0.03,0.97,0.86,0.30,-0.28,-0.27,
0.759,0.04,0.98,0.79,0.30,-0.28,-0.27,
0.76,0.04,0.98,0.79,0.32,-0.27,-0.28,
0.762,0.04,0.98,0.79,0.34,-0.25,-0.29,
0.765,0.04,0.98,0.79,0.36,-0.24,-0.29,
0.765,0.06,1.01,0.78,0.36,-0.24,-0.29,
0.776,0.06,1.01,0.78,0.38,-0.22,-0.30,
0.776,0.06,1.01,0.78,0.40,-0.20,-0.31,
0.777,0.07,1.06,0.74,0.40,-0.20,-0.31,
0.777,0.07,1.06,0.74,0.42,-0.18,-0.31,
0.777,0.07,1.06,0.74,0.43,-0.17,-0.31,
0.777,0.07,1.14,0.69,0.43,-0.17,-0.31,
0.777,0.07,1.14,0.69,0.45,-0.15,-0.32,
0.779,0.07,1.14,0.69,0.46,-0.14,-0.32,
0.779,0.09,1.23,0.66,0.46,-0.14,-0.32,
0.782,0.09,1.23,0.66,0.47,-0.12,-0.32,
0.784,0.09,1.23,0.66,0.48,-0.10,-0.31,
0.797,0.08,1.30,0.58,0.48,-0.10,-0.31,
0.797,0.08,1.30,0.58,0.49,-0.08,-0.31,
0.798,0.08,1.30,0.58,0.49,-0.05,-0.30,
0.798,-0.03,1.39,0.50,0.49,-0.05,-0.30,
0.798,-0.03,1.39,0.50,0.49,-0.02,-0.28,
0.798,-0.03,1.39,0.50,0.49,0.01,-0.27,
0.798,-0.08,1.44,0.42,0.49,0.01,-0.27,
0.799,-0.08,1.44,0.42,0.48,0.05,-0.24,
0.799,-0.04,1.50,0.39,0.48,0.05,-0.24,
0.799,-0.04,1.50,0.39,0.48,0.08,-0.22,
0.801,-0.04,1.50,0.39,0.46,0.12,-0.20,
0.804,-0.04,1.50,0.39,0.45,0.16,-0.18,
0.804,0.02,1.50,0.36,0.45,0.16,-0.18,
0.806,0.02,1.50,0.36,0.43,0.20,-0.16,
0.809,0.02,1.50,0.36,0.42,0.24,-0.15,
0.809,0.13,1.37,0.35,0.42,0.24,-0.15,
0.811,0.13,1.37,0.35,0.40,0.28,-0.13,
0.814,0.13,1.37,0.35,0.38,0.32,-0.12,
0.814,0.23,1.17,0.38,0.38,0.32,-0.12,
0.817,0.23,1.17,0.38,0.36,0.35,-0.11,
0.821,0.23,1.17,0.38,0.34,0.39,-0.11,
0.821,0.34,0.87,0.44,0.34,0.39,-0.11,
0.821,0.34,0.87,0.44,0.33,0.46,-0.12,
0.824,0.34,0.87,0.44,0.33,0.54,-0.15,
0.824,0.61,0.29,0.48,0.33,0.54,-0.15,
0.827,0.61,0.29,0.48,0.33,0.58,-0.18,
0.829,0.61,0.29,0.48,0.32,0.60,-0.19,
0.83,0.45,0.49,0.77,0.32,0.60,-0.19,
0.832,0.45,0.49,0.77,0.31,0.63,-0.20,
0.835,0.28,0.56,0.90,0.31,0.63,-0.20,
0.835,0.28,0.56,0.90,0.29,0.64,-0.20,
0.837,0.28,0.56,0.90,0.28,0.65,-0.19,
0.839,0.28,0.56,0.90,0.27,0.65,-0.18,
0.839,0.20,0.51,1.19,0.27,0.65,-0.18,
0.841,0.20,0.51,1.19,0.27,0.64,-0.18,
0.844,0.20,0.51,1.19,0.28,0.63,-0.18,
0.844,0.14,0.18,1.41,0.28,0.63,-0.18,
0.846,0.14,0.18,1.41,0.29,0.62,-0.18,
0.848,0.14,0.18,1.41,0.31,0.62,-0.18,
0.849,0.09,-0.11,1.50,0.31,0.62,-0.18,
0.854,0.09,-0.11,1.50,0.34,0.62,-0.18,
0.857,0.09,-0.11,1.50,0.37,0.62,-0.18,
0.857,0.00,-0.24,1.54,0.37,0.62,-0.18,
0.858,0.00,-0.24,1.54,0.40,0.62,-0.19,
0.862,0.00,-0.24,1.54,0.43,0.62,-0.19,
0.863,0.00,-0.24,1.54,0.46,0.63,-0.20,
0.863,-0.02,-0.25,1.46,0.46,0.63,-0.20,
0.863,0.01,-0.34,1.36,0.46,0.63,-0.20,
0.864,0.01,-0.34,1.36,0.50,0.63,-0.20,
0.866,0.01,-0.34,1.36,0.53,0.64,-0.21,
0.87,0.08,-0.65,1.02,0.53,0.64,-0.21,
0.871,0.08,-0.65,1.02,0.56,0.66,-0.23,
0.871,0.08,-0.65,1.02,0.58,0.68,-0.25,
0.873,0.08,-0.65,1.02,0.61,0.69,-0.26,
0.874,0.23,-0.76,0.77,0.61,0.69,-0.26,
0.876,0.23,-0.76,0.77,0.65,0.70,-0.28,
0.88,0.60,-1.16,0.22,0.65,0.70,-0.28,
0.88,0.60,-1.16,0.22,0.70,0.75,-0.30,
0.881,0.60,-1.16,0.22,0.76,0.81,-0.33,
0.884,0.60,-1.16,0.22,0.81,0.84,-0.35,
0.884,0.59,-0.95,0.07,0.81,0.84,-0.35,
0.888,0.59,-0.95,0.07,0.86,0.83,-0.35,
0.889,-0.34,-0.91,-0.46,0.86,0.83,-0.35,
0.889,-0.34,-0.91,-0.46,0.88,0.77,-0.32,
0.891,-0.34,-0.91,-0.46,0.89,0.72,-0.29,
0.893,0.03,-0.38,-0.58,0.89,0.72,-0.29,
0.893,0.03,-0.38,-0.58,0.91,0.70,-0.25,
0.896,0.03,-0.38,-0.58,0.92,0.72,-0.23,
0.898,0.83,-0.05,-0.65,0.92,0.72,-0.23,
0.898,0.83,-0.05,-0.65,0.93,0.78,-0.21,
0.905,1.28,-0.10,-0.84,0.93,0.78,-0.21,
0.906,1.28,-0.10,-0.84,0.95,0.85,-0.20,
0.906,1.28,-0.10,-0.84,0.97,0.91,-0.20,
0.907,1.28,-0.10,-0.84,0.99,0.98,-0.21,
0.908,1.28,-0.10,-0.84,1.01,1.04,-0.22,
0.909,1.27,-0.52,-1.28,1.01,1.04,-0.22,
0.91,1.27,-0.52,-1.28,1.04,1.10,-0.23,
0.913,1.27,-0.52,-1.28,1.06,1.15,-0.25,
0.913,1.09,-1.08,-1.57,1.06,1.15,-0.25,
0.915,1.09,-1.08,-1.57,1.08,1.21,-0.26,
0.92,1.00,-1.40,-1.62,1.08,1.21,-0.26,
0.921,1.00,-1.40,-1.62,1.11,1.27,-0.27,
0.921,1.00,-1.40,-1.62,1.13,1.33,-0.28,
0.923,1.00,-1.40,-1.62,1.16,1.39,-0.29,
0.923,1.05,-1.45,-1.68,1.16,1.39,-0.29,
0.925,1.05,-1.45,-1.68,1.18,1.45,-0.30,
0.928,1.05,-1.45,-1.68,1.19,1.51,-0.31,
0.928,1.23,-1.37,-1.77,1.19,1.51,-0.31,
0.93,1.23,-1.37,-1.77,1.21,1.57,-0.33,
0.933,1.23,-1.37,-1.77,1.23,1.63,-0.35,
0.933,1.35,-1.48,-1.95,1.23,1.63,-0.35,
0.935,1.35,-1.48,-1.95,1.23,1.69,-0.38,
0.939,1.47,-1.66,-2.03,1.23,1.69,-0.38,
0.939,1.47,-1.66,-2.03,1.23,1.75,-0.41,
0.94,1.47,-1.66,-2.03,1.23,1.79,-0.43,
0.943,1.58,-1.83,-2.09,1.23,1.79,-0.43,
0.943,1.58,-1.83,-2.09,1.23,1.82,-0.46,
0.945,1.58,-1.83,-2.09,1.23,1.84,-0.48,
0.948,1.78,-1.97,-2.20,1.23,1.84,-0.48,
0.948,1.78,-1.97,-2.20,1.23,1.87,-0.51,
0.972,1.78,-1.97,-2.20,1.23,1.89,-0.54,
0.972,2.01,-2.11,-2.37,1.23,1.89,-0.54,
0.972,2.01,-2.11,-2.37,1.23,1.92,-0.57,
0.973,2.01,-2.11,-2.37,1.23,1.95,-0.61,
0.973,2.18,-2.39,-2.64,1.23,1.95,-0.61,
0.973,2.18,-2.39,-2.64,1.23,2.00,-0.66,
0.973,2.18,-2.39,-2.64,1.24,2.05,-0.72,
0.974,1.99,-2.75,-2.92,1.24,2.05,-0.72,
0.974,1.99,-2.75,-2.92,1.25,2.11,-0.77,
0.974,1.99,-2.75,-2.92,1.25,2.22,-0.83,
0.974,1.99,-2.75,-2.92,1.26,2.34,-0.89,
0.975,1.90,-2.78,-3.22,1.26,2.34,-0.89,
0.975,1.90,-2.78,-3.22,1.26,2.43,-0.96,
0.975,1.90,-2.78,-3.22,1.26,2.49,-1.03,
0.975,2.56,-2.65,-3.43,1.26,2.49,-1.03,
0.976,2.56,-2.65,-3.43,1.26,2.53,-1.09,
0.982,2.50,-2.63,-3.60,1.26,2.53,-1.09,
0.983,2.50,-2.63,-3.60,1.27,2.57,-1.15,
0.983,2.50,-2.63,-3.60,1.28,2.61,-1.19,
0.984,2.21,-2.61,-3.72,1.28,2.61,-1.19,
0.984,2.21,-2.61,-3.72,1.30,2.64,-1.22,
0.999,2.21,-2.61,-3.72,1.32,2.66,-1.23,
0.999,2.27,-2.50,-3.80,1.32,2.66,-1.23,
1.0,2.27,-2.50,-3.80,1.33,2.68,-1.25,
1.0,2.27,-2.50,-3.80,1.36,2.70,-1.25,
1.0,2.23,-2.39,-3.92,1.36,2.70,-1.25,
1.001,2.23,-2.39,-3.92,1.38,2.74,-1.25,
1.001,2.23,-2.39,-3.92,1.41,2.79,-1.24,
1.001,2.25,-2.31,-4.09,1.41,2.79,-1.24,
1.002,2.25,-2.31,-4.09,1.44,2.83,-1.23,
1.002,2.25,-2.31,-4.09,1.47,2.89,-1.22,
1.006,2.23,-2.29,-4.24,1.47,2.89,-1.22,
1.007,2.23,-2.29,-4.24,1.51,2.94,-1.21,
1.007,2.23,-2.29,-4.24,1.55,3.00,-1.19,
1.007,2.22,-2.33,-4.36,1.55,3.00,-1.19,
1.008,2.22,-2.33,-4.36,1.59,3.06,-1.17,
1.01,2.22,-2.33,-4.36,1.64,3.12,-1.14,
1.013,2.26,-2.35,-4.54,1.64,3.12,-1.14,
1.014,2.26,-2.35,-4.54,1.69,3.20,-1.12,
1.014,2.26,-2.35,-4.54,1.75,3.28,-1.10,
1.018,2.38,-2.33,-4.67,1.75,3.28,-1.10,
1.019,2.38,-2.33,-4.67,1.81,3.36,-1.08,
1.02,2.38,-2.33,-4.67,1.87,3.44,-1.05,
1.022,2.38,-2.33,-4.67,1.93,3.51,-1.03,
1.022,2.56,-2.35,-4.65,1.93,3.51,-1.03,
1.024,2.56,-2.35,-4.65,1.99,3.57,-1.00,
1.027,2.67,-2.42,-4.71,1.99,3.57,-1.00,
1.027,2.67,-2.42,-4.71,2.05,3.63,-0.98,
1.029,2.67,-2.42,-4.71,2.11,3.69,-0.97,
1.032,2.67,-2.42,-4.71,2.17,3.75,-0.97,
1.032,2.97,-2.57,-4.80,2.17,3.75,-0.97,
1.035,2.97,-2.57,-4.80,2.22,3.79,-0.97,
1.037,3.15,-2.83,-4.86,2.22,3.79,-0.97,
1.037,3.15,-2.83,-4.86,2.27,3.84,-0.98,
1.039,3.15,-2.83,-4.86,2.31,3.89,-1.00,
1.042,3.17,-3.14,-4.90,2.31,3.89,-1.00,
1.042,3.17,-3.14,-4.90,2.34,3.95,-1.03,
1.044,3.17,-3.14,-4.90,2.35,4.02,-1.06,
1.047,3.17,-3.14,-4.90,2.34,4.11,-1.11,
1.047,3.33,-3.44,-5.08,2.34,4.11,-1.11,
1.049,3.33,-3.44,-5.08,2.32,4.22,-1.18,
1.053,3.43,-3.86,-5.23,2.32,4.22,-1.18,
1.054,3.43,-3.86,-5.23,2.28,4.33,-1.25,
1.055,3.43,-3.86,-5.23,2.22,4.46,-1.32,
1.057,3.43,-3.86,-5.23,2.15,4.58,-1.41,
1.058,3.35,-4.21,-5.27,2.15,4.58,-1.41,
1.059,3.35,-4.21,-5.27,2.06,4.71,-1.50,
1.062,3.35,-4.21,-5.27,1.97,4.83,-1.59,
1.063,3.10,-4.43,-5.04,1.97,4.83,-1.59,
1.065,3.10,-4.43,-5.04,1.88,4.93,-1.68,
1.077,3.10,-4.43,-5.04,1.79,5.03,-1.76,
1.077,2.69,-4.45,-4.50,1.79,5.03,-1.76,
1.077,2.69,-4.45,-4.50,1.70,5.11,-1.84,
1.078,2.69,-4.45,-4.50,1.61,5.17,-1.92,
1.078,2.17,-4.28,-3.79,1.61,5.17,-1.92,
1.078,2.17,-4.28,-3.79,1.53,5.22,-1.98,
1.078,2.17,-4.28,-3.79,1.46,5.24,-2.04,
1.078,1.58,-3.96,-2.93,1.46,5.24,-2.04,
1.082,1.58,-3.96,-2.93,1.40,5.26,-2.09,
1.082,1.58,-3.96,-2.93,1.35,5.26,-2.13,
1.082,1.00,-3.59,-2.00,1.35,5.26,-2.13,
1.084,1.00,-3.59,-2.00,1.31,5.25,-2.16,
1.088,0.55,-3.24,-1.12,1.31,5.25,-2.16,
1.088,0.55,-3.24,-1.12,1.28,5.22,-2.18,
1.089,0.55,-3.24,-1.12,1.27,5.18,-2.19,
1.092,0.55,-3.24,-1.12,1.26,5.13,-2.19,
1.092,0.17,-2.90,-0.25,1.26,5.13,-2.19,
1.094,0.17,-2.90,-0.25,1.27,5.07,-2.18,
1.097,-0.14,-2.55,0.55,1.27,5.07,-2.18,
1.097,-0.14,-2.55,0.55,1.29,5.01,-2.17,
1.099,-0.14,-2.55,0.55,1.32,4.92,-2.15,
1.101,-0.14,-2.55,0.55,1.36,4.84,-2.12,
1.103,-0.38,-2.21,1.25,1.36,4.84,-2.12,
1.104,-0.38,-2.21,1.25,1.40,4.75,-2.08,
1.106,-0.38,-2.21,1.25,1.46,4.66,-2.03,
1.107,-0.57,-1.90,1.80,1.46,4.66,-2.03,
1.109,-0.57,-1.90,1.80,1.52,4.56,-1.98,
1.111,-0.57,-1.90,1.80,1.59,4.45,-1.93,
1.111,-0.61,-1.59,2.17,1.59,4.45,-1.93,
1.114,-0.61,-1.59,2.17,1.66,4.34,-1.88,
1.138,-0.61,-1.59,2.17,1.74,4.24,-1.83,
1.138,-0.37,-1.28,2.30,1.74,4.24,-1.83,
1.138,-0.37,-1.28,2.30,1.81,4.14,-1.78,
1.138,-0.46,-1.36,2.30,1.81,4.14,-1.78,
1.138,-0.46,-1.36,2.30,1.89,4.04,-1.72,
1.139,-0.46,-1.36,2.30,1.97,3.94,-1.66,
1.139,-0.46,-1.36,2.30,2.04,3.84,-1.59,
1.139,-0.33,-1.56,2.10,2.04,3.84,-1.59,
1.139,-0.33,-1.56,2.10,2.12,3.74,-1.51,
1.139,-0.33,-1.56,2.10,2.19,3.64,-1.45,
1.139,0.17,-1.65,1.71,2.19,3.64,-1.45,
1.14,0.17,-1.65,1.71,2.26,3.55,-1.39,
1.14,0.17,-1.65,1.71,2.32,3.47,-1.34,
1.14,1.03,-1.72,1.11,2.32,3.47,-1.34,
1.14,1.03,-1.72,1.11,2.38,3.41,-1.32,
1.141,1.79,-1.93,0.48,2.38,3.41,-1.32,
1.142,1.79,-1.93,0.48,2.43,3.37,-1.30,
1.144,1.79,-1.93,0.48,2.47,3.34,-1.30,
1.147,2.35,-2.26,0.00,2.47,3.34,-1.30,
1.147,2.35,-2.26,0.00,2.51,3.33,-1.30,
1.151,2.35,-2.26,0.00,2.54,3.32,-1.31,
1.151,2.35,-2.26,0.00,2.57,3.32,-1.33,
1.151,2.84,-2.62,-0.45,2.57,3.32,-1.33,
1.154,2.84,-2.62,-0.45,2.60,3.32,-1.36,
1.156,3.35,-2.90,-0.91,2.60,3.32,-1.36,
1.157,3.35,-2.90,-0.91,2.62,3.33,-1.40,
1.159,3.35,-2.90,-0.91,2.64,3.34,-1.44,
1.161,3.35,-2.90,-0.91,2.65,3.36,-1.48,
1.161,3.66,-3.11,-1.27,2.65,3.36,-1.48,
1.163,3.66,-3.11,-1.27,2.67,3.39,-1.52,
1.166,3.66,-3.11,-1.27,2.68,3.43,-1.57,
1.166,3.87,-3.30,-1.63,2.68,3.43,-1.57,
1.172,3.87,-3.30,-1.63,2.69,3.49,-1.64,
1.175,3.88,-3.51,-1.94,2.69,3.49,-1.64,
1.176,3.88,-3.51,-1.94,2.69,3.56,-1.71,
1.176,3.88,-3.51,-1.94,2.69,3.65,-1.80,
1.176,3.88,-3.51,-1.94,2.67,3.75,-1.90,
1.176,3.52,-3.79,-1.93,2.67,3.75,-1.90,
1.181,3.52,-3.79,-1.93,2.66,3.84,-1.99,
1.181,3.52,-3.79,-1.93,2.64,3.93,-2.08,
1.181,2.93,-3.94,-1.60,2.64,3.93,-2.08,
1.183,2.93,-3.94,-1.60,2.62,3.99,-2.16,
1.194,2.93,-3.94,-1.60,2.61,4.05,-2.23,
1.194,2.29,-3.80,-1.06,2.61,4.05,-2.23,
1.194,2.29,-3.80,-1.06,2.61,4.08,-2.30,
1.195,2.29,-3.80,-1.06,2.61,4.11,-2.34,
1.195,1.72,-3.43,-0.38,2.61,4.11,-2.34,
1.195,1.72,-3.43,-0.38,2.63,4.11,-2.38,
1.196,1.72,-3.43,-0.38,2.66,4.11,-2.40,
1.197,1.27,-3.06,0.30,2.66,4.11,-2.40,
1.198,1.27,-3.06,0.30,2.69,4.09,-2.42,
1.201,1.27,-3.06,0.30,2.74,4.07,-2.42,
1.201,0.87,-2.82,0.94,2.74,4.07,-2.42,
1.205,0.87,-2.82,0.94,2.79,4.05,-2.42,
1.206,0.87,-2.82,0.94,2.85,4.01,-2.42,
1.206,0.58,-2.70,1.49,2.85,4.01,-2.42,
1.208,0.58,-2.70,1.49,2.92,3.96,-2.40,
1.211,0.58,-2.70,1.49,2.99,3.91,-2.39,
1.211,0.39,-2.61,1.92,2.99,3.91,-2.39,
1.214,0.39,-2.61,1.92,3.06,3.86,-2.37,
1.215,0.39,-2.61,1.92,3.14,3.79,-2.35,
1.216,0.27,-2.49,2.11,3.14,3.79,-2.35,
1.219,0.27,-2.49,2.11,3.21,3.73,-2.32,
1.221,0.25,-2.43,2.08,3.21,3.73,-2.32,
1.221,0.25,-2.43,2.08,3.28,3.66,-2.30,
1.223,0.25,-2.43,2.08,3.35,3.59,-2.27,
1.225,0.25,-2.43,2.08,3.41,3.53,-2.24,
1.225,0.27,-2.40,1.94,3.41,3.53,-2.24,
1.227,0.27,-2.40,1.94,3.46,3.47,-2.21,
1.23,0.27,-2.40,1.94,3.51,3.40,-2.18,
1.231,0.42,-2.46,1.79,3.51,3.40,-2.18,
1.233,0.42,-2.46,1.79,3.56,3.34,-2.15,
1.236,0.42,-2.46,1.79,3.59,3.27,-2.12,
1.238,0.59,-2.62,1.66,3.59,3.27,-2.12,
1.238,0.59,-2.62,1.66,3.62,3.20,-2.09,
1.24,0.59,-2.62,1.66,3.64,3.13,-2.07,
1.24,0.86,-2.75,1.51,3.64,3.13,-2.07,
1.243,0.86,-2.75,1.51,3.66,3.05,-2.05,
1.245,0.86,-2.75,1.51,3.66,2.97,-2.04,
1.245,1.12,-2.92,1.33,3.66,2.97,-2.04,
1.247,1.12,-2.92,1.33,3.65,2.89,-2.03,
1.25,1.12,-2.92,1.33,3.64,2.80,-2.02,
1.25,1.37,-3.14,1.19,3.64,2.80,-2.02,
1.255,1.37,-3.14,1.19,3.62,2.71,-2.02,
1.256,1.58,-3.40,1.09,3.62,2.71,-2.02,
1.256,1.58,-3.40,1.09,3.60,2.62,-2.02,
1.26,1.58,-3.40,1.09,3.57,2.52,-2.03,
1.261,1.58,-3.40,1.09,3.53,2.42,-2.04,
1.261,1.78,-3.68,1.02,3.53,2.42,-2.04,
1.263,1.78,-3.68,1.02,3.49,2.31,-2.06,
1.266,1.78,-3.68,1.02,3.44,2.20,-2.08,
1.268,1.89,-3.96,0.96,3.44,2.20,-2.08,
1.277,1.89,-3.96,0.96,3.39,2.09,-2.11,
1.278,1.99,-4.27,0.90,3.39,2.09,-2.11,
1.278,1.99,-4.27,0.90,3.34,1.98,-2.14,
1.278,1.99,-4.27,0.90,3.28,1.87,-2.18,
1.279,1.99,-4.27,0.90,3.21,1.75,-2.21,
1.279,2.00,-4.59,0.86,3.21,1.75,-2.21,
1.279,2.00,-4.59,0.86,3.15,1.63,-2.26,
1.28,2.00,-4.59,0.86,3.08,1.51,-2.31,
1.298,2.03,-4.93,0.83,3.08,1.51,-2.31,
1.298,2.03,-4.93,0.83,3.01,1.39,-2.36,
1.298,2.03,-4.93,0.83,2.93,1.28,-2.42,
1.298,2.00,-5.30,0.75,2.93,1.28,-2.42,
1.299,2.00,-5.30,0.75,2.85,1.16,-2.48,
1.299,2.00,-5.30,0.75,2.77,1.05,-2.55,
1.299,1.92,-5.78,0.66,2.77,1.05,-2.55,
1.299,1.92,-5.78,0.66,2.68,0.94,-2.62,
1.3,1.78,-6.26,0.65,2.68,0.94,-2.62,
1.3,1.78,-6.26,0.65,2.59,0.81,-2.70,
1.3,1.78,-6.26,0.65,2.49,0.70,-2.79,
1.3,1.78,-6.26,0.65,2.40,0.58,-2.88,
1.301,1.60,-6.71,0.70,2.40,0.58,-2.88,
1.305,1.60,-6.71,0.70,2.30,0.46,-2.97,
1.306,1.37,-7.12,0.75,2.30,0.46,-2.97,
1.306,1.37,-7.12,0.75,2.20,0.34,-3.07,
1.308,1.37,-7.12,0.75,2.09,0.23,-3.18,
1.31,1.07,-7.45,0.78,2.09,0.23,-3.18,
1.31,1.07,-7.45,0.78,1.99,0.11,-3.29,
1.312,1.07,-7.45,0.78,1.89,-0.01,-3.40,
1.315,1.07,-7.45,0.78,1.78,-0.13,-3.51,
1.315,0.60,-7.87,0.80,1.78,-0.13,-3.51,
1.317,0.60,-7.87,0.80,1.67,-0.26,-3.63,
1.32,0.60,-7.87,0.80,1.55,-0.37,-3.75,
1.321,0.23,-8.04,0.72,1.55,-0.37,-3.75,
1.322,0.23,-8.04,0.72,1.42,-0.48,-3.87,
1.325,0.23,-8.04,0.72,1.30,-0.60,-3.99,
1.326,-0.29,-8.27,0.69,1.30,-0.60,-3.99,
1.327,-0.29,-8.27,0.69,1.18,-0.73,-4.10,
1.33,-0.29,-8.27,0.69,1.06,-0.85,-4.21,
1.33,-0.93,-8.39,0.78,1.06,-0.85,-4.21,
1.332,-0.93,-8.39,0.78,0.94,-0.97,-4.31,
1.336,-0.93,-8.39,0.78,0.82,-1.09,-4.42,
1.336,-1.54,-8.51,0.78,0.82,-1.09,-4.42,
1.338,-1.54,-8.51,0.78,0.70,-1.21,-4.52,
1.339,-1.54,-8.51,0.78,0.58,-1.32,-4.62,
1.34,-2.17,-8.71,0.82,0.58,-1.32,-4.62,
1.342,-2.17,-8.71,0.82,0.46,-1.42,-4.72,
1.344,-2.17,-8.71,0.82,0.35,-1.53,-4.81,
1.345,-2.68,-8.83,0.98,0.35,-1.53,-4.81,
1.347,-2.68,-8.83,0.98,0.24,-1.63,-4.90,
1.35,-2.68,-8.83,0.98,0.14,-1.72,-4.99,
1.35,-3.16,-8.89,1.13,0.14,-1.72,-4.99,
1.359,-3.16,-8.89,1.13,0.04,-1.80,-5.08,
1.36,-3.16,-8.89,1.13,-0.06,-1.89,-5.16,
1.36,-3.64,-9.02,1.28,-0.06,-1.89,-5.16,
1.361,-3.64,-9.02,1.28,-0.15,-1.96,-5.24,
1.361,-3.64,-9.02,1.28,-0.24,-2.04,-5.32,
1.37,-4.24,-9.24,1.48,-0.24,-2.04,-5.32,
1.371,-4.24,-9.24,1.48,-0.32,-2.11,-5.40,
1.372,-4.96,-9.42,1.65,-0.32,-2.11,-5.40,
1.373,-4.96,-9.42,1.65,-0.40,-2.17,-5.47,
1.373,-4.96,-9.42,1.65,-0.48,-2.23,-5.54,
1.373,-5.77,-9.57,1.81,-0.48,-2.23,-5.54,
1.374,-5.77,-9.57,1.81,-0.55,-2.28,-5.60,
1.374,-5.77,-9.57,1.81,-0.62,-2.33,-5.65,
1.38,-6.49,-9.64,1.96,-0.62,-2.33,-5.65,
1.381,-6.49,-9.64,1.96,-0.69,-2.38,-5.70,
1.381,-6.49,-9.64,1.96,-0.75,-2.42,-5.75,
1.382,-6.49,-9.64,1.96,-0.81,-2.46,-5.79,
1.382,-7.10,-9.64,2.08,-0.81,-2.46,-5.79,
1.383,-7.10,-9.64,2.08,-0.86,-2.49,-5.83,
1.385,-7.10,-9.64,2.08,-0.91,-2.52,-5.87,
1.386,-7.67,-9.58,2.19,-0.91,-2.52,-5.87,
1.391,-7.67,-9.58,2.19,-0.96,-2.53,-5.90,
1.392,-7.67,-9.58,2.19,-1.00,-2.54,-5.92,
1.392,-8.24,-9.49,2.31,-1.00,-2.54,-5.92,
1.392,-8.24,-9.49,2.31,-1.04,-2.54,-5.95,
1.394,-8.24,-9.49,2.31,-1.08,-2.55,-5.96,
1.394,-8.77,-9.34,2.42,-1.08,-2.55,-5.96,
1.397,-8.77,-9.34,2.42,-1.11,-2.54,-5.97,
1.4,-8.77,-9.34,2.42,-1.13,-2.52,-5.98,
1.4,-9.24,-9.23,2.53,-1.13,-2.52,-5.98,
1.402,-9.24,-9.23,2.53,-1.16,-2.50,-5.98,
1.404,-9.24,-9.23,2.53,-1.17,-2.48,-5.98,
1.405,-9.69,-9.11,2.68,-1.17,-2.48,-5.98,
1.408,-9.69,-9.11,2.68,-1.19,-2.44,-5.98,
1.409,-9.69,-9.11,2.68,-1.19,-2.41,-5.97,
1.409,-10.06,-8.99,2.84,-1.19,-2.41,-5.97,
1.415,-10.06,-8.99,2.84,-1.19,-2.37,-5.96,
1.416,-10.06,-8.99,2.84,-1.19,-2.33,-5.95,
1.416,-10.44,-8.83,3.01,-1.19,-2.33,-5.95,
1.416,-10.44,-8.83,3.01,-1.18,-2.28,-5.94,
1.42,-10.85,-8.65,3.13,-1.18,-2.28,-5.94,
1.42,-10.85,-8.65,3.13,-1.17,-2.23,-5.92,
1.421,-10.85,-8.65,3.13,-1.16,-2.17,-5.89,
1.423,-10.85,-8.65,3.13,-1.14,-2.11,-5.86,
1.424,-11.40,-8.36,3.23,-1.14,-2.11,-5.86,
1.427,-11.40,-8.36,3.23,-1.12,-2.05,-5.81,
1.428,-11.40,-8.36,3.23,-1.10,-1.99,-5.77,
1.428,-11.93,-7.96,3.28,-1.10,-1.99,-5.77,
1.431,-11.93,-7.96,3.28,-1.08,-1.92,-5.71,
1.433,-11.93,-7.96,3.28,-1.06,-1.86,-5.65,
1.434,-12.25,-7.48,3.42,-1.06,-1.86,-5.65,
1.436,-12.25,-7.48,3.42,-1.03,-1.79,-5.58,
1.438,-12.25,-7.48,3.42,-0.99,-1.72,-5.50,
1.439,-12.32,-6.87,3.62,-0.99,-1.72,-5.50,
1.44,-12.32,-6.87,3.62,-0.95,-1.65,-5.43,
1.443,-12.32,-6.87,3.62,-0.91,-1.58,-5.35,
1.443,-12.29,-6.29,3.86,-0.91,-1.58,-5.35,
1.461,-12.29,-6.29,3.86,-0.86,-1.51,-5.27,
1.462,-12.29,-6.29,3.86,-0.80,-1.43,-5.19,
1.462,-12.23,-5.62,4.11,-0.80,-1.43,-5.19,
1.462,-12.23,-5.62,4.11,-0.74,-1.36,-5.11,
1.463,-12.03,-4.79,4.29,-0.74,-1.36,-5.11,
1.463,-12.03,-4.79,4.29,-0.67,-1.30,-5.03,
1.463,-12.03,-4.79,4.29,-0.60,-1.23,-4.94,
1.463,-12.03,-4.79,4.29,-0.53,-1.17,-4.86,
1.464,-11.65,-3.83,4.44,-0.53,-1.17,-4.86,
1.464,-11.65,-3.83,4.44,-0.46,-1.11,-4.78,
1.464,-11.65,-3.83,4.44,-0.38,-1.06,-4.69,
1.464,-11.20,-2.82,4.60,-0.38,-1.06,-4.69,
1.469,-11.20,-2.82,4.60,-0.29,-1.01,-4.61,
1.471,-10.77,-1.77,4.74,-0.29,-1.01,-4.61,
1.472,-10.77,-1.77,4.74,-0.20,-0.97,-4.52,
1.472,-10.77,-1.77,4.74,-0.11,-0.93,-4.43,
1.474,-10.39,-0.77,4.79,-0.11,-0.93,-4.43,
1.476,-10.39,-0.77,4.79,-0.02,-0.89,-4.34,
1.477,-10.39,-0.77,4.79,0.07,-0.85,-4.24,
1.48,-10.39,-0.77,4.79,0.16,-0.82,-4.15,
1.48,-10.06,0.16,4.77,0.16,-0.82,-4.15,
1.481,-10.06,0.16,4.77,0.25,-0.80,-4.05,
1.484,-10.06,0.16,4.77,0.34,-0.78,-3.95,
1.485,-9.72,0.98,4.63,0.34,-0.78,-3.95,
1.489,-9.72,0.98,4.63,0.42,-0.77,-3.83,
1.489,-9.72,0.98,4.63,0.51,-0.77,-3.70,
1.49,-9.60,1.69,4.48,0.51,-0.77,-3.70,
1.49,-9.60,1.69,4.48,0.60,-0.76,-3.56,
1.493,-9.60,1.69,4.48,0.68,-0.76,-3.42,
1.493,-9.21,2.47,4.18,0.68,-0.76,-3.42,
1.495,-9.21,2.47,4.18,0.76,-0.76,-3.28,
1.498,-9.21,2.47,4.18,0.82,-0.76,-3.13,
1.499,-8.79,3.04,3.84,0.82,-0.76,-3.13,
1.5,-8.79,3.04,3.84,0.89,-0.76,-2.99,
1.504,-8.48,3.34,3.44,0.89,-0.76,-2.99,
1.504,-8.48,3.34,3.44,0.94,-0.78,-2.84,
1.505,-8.48,3.34,3.44,0.99,-0.79,-2.68,
1.508,-8.48,3.34,3.44,1.03,-0.81,-2.53,
1.508,-8.15,3.50,2.94,1.03,-0.81,-2.53,
1.51,-8.15,3.50,2.94,1.05,-0.83,-2.37,
1.513,-8.15,3.50,2.94,1.07,-0.86,-2.22,
1.513,-7.71,3.57,2.39,1.07,-0.86,-2.22,
1.515,-7.71,3.57,2.39,1.07,-0.90,-2.07,
1.518,-7.71,3.57,2.39,1.07,-0.93,-1.91,
1.518,-7.16,3.52,1.83,1.07,-0.93,-1.91,
1.521,-7.16,3.52,1.83,1.06,-0.97,-1.77,
1.523,-7.16,3.52,1.83,1.03,-1.01,-1.63,
1.523,-6.61,3.32,1.27,1.03,-1.01,-1.63,
1.525,-6.61,3.32,1.27,1.00,-1.05,-1.50,
1.528,-6.61,3.32,1.27,0.96,-1.09,-1.37,
1.529,-6.07,3.09,0.77,0.96,-1.09,-1.37,
1.53,-6.07,3.09,0.77,0.92,-1.13,-1.25,
1.533,-6.07,3.09,0.77,0.86,-1.18,-1.14,
1.533,-5.59,2.84,0.32,0.86,-1.18,-1.14,
1.536,-5.59,2.84,0.32,0.80,-1.22,-1.04,
1.538,-5.59,2.84,0.32,0.74,-1.27,-0.94,
1.538,-5.11,2.57,-0.10,0.74,-1.27,-0.94,
1.54,-5.11,2.57,-0.10,0.66,-1.32,-0.85,
1.542,-5.11,2.57,-0.10,0.58,-1.36,-0.77,
1.543,-4.62,2.34,-0.49,0.58,-1.36,-0.77,
1.545,-4.62,2.34,-0.49,0.50,-1.41,-0.70,
1.547,-4.62,2.34,-0.49,0.41,-1.45,-0.63,
1.548,-4.16,2.11,-0.87,0.41,-1.45,-0.63,
1.55,-4.16,2.11,-0.87,0.31,-1.49,-0.57,
1.554,-4.16,2.11,-0.87,0.21,-1.53,-0.52,
1.554,-3.73,1.89,-1.22,0.21,-1.53,-0.52,
1.56,-3.73,1.89,-1.22,0.11,-1.56,-0.48,
1.563,-3.73,1.89,-1.22,0.00,-1.60,-0.44,
1.563,-3.73,1.89,-1.22,-0.11,-1.63,-0.40,
1.564,-3.35,1.72,-1.51,-0.11,-1.63,-0.40,
1.564,-3.07,1.62,-1.73,-0.11,-1.63,-0.40,
1.565,-3.07,1.62,-1.73,-0.22,-1.67,-0.37,
1.565,-3.07,1.62,-1.73,-0.34,-1.70,-0.35,
1.568,-2.86,1.59,-1.91,-0.34,-1.70,-0.35,
1.569,-2.86,1.59,-1.91,-0.46,-1.72,-0.32,
1.579,-2.86,1.59,-1.91,-0.58,-1.75,-0.29,
1.579,-2.78,1.61,-2.00,-0.58,-1.75,-0.29,
1.58,-2.78,1.61,-2.00,-0.70,-1.77,-0.27,
1.58,-2.78,1.61,-2.00,-0.83,-1.78,-0.24,
1.58,-2.78,1.61,-2.00,-0.95,-1.80,-0.22,
1.58,-2.74,1.64,-2.01,-0.95,-1.80,-0.22,
1.58,-2.74,1.64,-2.01,-1.07,-1.82,-0.19,
1.583,-2.67,1.71,-1.94,-1.07,-1.82,-0.19,
1.583,-2.67,1.71,-1.94,-1.20,-1.83,-0.17,
1.585,-2.67,1.71,-1.94,-1.32,-1.85,-0.14,
1.591,-2.60,1.81,-1.79,-1.32,-1.85,-0.14,
1.592,-2.60,1.81,-1.79,-1.44,-1.87,-0.12,
1.592,-2.60,1.81,-1.79,-1.55,-1.88,-0.09,
1.592,-2.52,1.94,-1.52,-1.55,-1.88,-0.09,
1.593,-2.52,1.94,-1.52,-1.66,-1.91,-0.06,
1.595,-2.52,1.94,-1.52,-1.76,-1.93,-0.03,
1.597,-2.52,1.94,-1.52,-1.86,-1.95,-0.00,
1.597,-2.43,2.07,-1.29,-1.86,-1.95,-0.00,
1.599,-2.43,2.07,-1.29,-1.96,-1.97,0.03,
1.603,-2.32,2.09,-1.03,-1.96,-1.97,0.03,
1.603,-2.32,2.09,-1.03,-2.05,-1.99,0.05,
1.605,-2.32,2.09,-1.03,-2.14,-2.02,0.08,
1.608,-2.32,2.09,-1.03,-2.22,-2.05,0.10,
1.608,-2.19,2.03,-0.77,-2.22,-2.05,0.10,
1.609,-2.19,2.03,-0.77,-2.30,-2.08,0.12,
1.633,-1.94,1.95,-0.51,-2.30,-2.08,0.12,
1.633,-1.94,1.95,-0.51,-2.37,-2.12,0.14,
1.634,-1.94,1.95,-0.51,-2.44,-2.15,0.16,
1.634,-1.63,1.83,-0.25,-2.44,-2.15,0.16,
1.635,-1.63,1.83,-0.25,-2.50,-2.19,0.17,
1.636,-1.63,1.83,-0.25,-2.56,-2.23,0.17,
1.636,-1.26,1.77,-0.03,-2.56,-2.23,0.17,
1.637,-1.26,1.77,-0.03,-2.61,-2.26,0.17,
1.637,-1.26,1.77,-0.03,-2.66,-2.29,0.17,
1.638,-1.26,1.77,-0.03,-2.71,-2.32,0.16,
1.638,-0.99,1.69,0.22,-2.71,-2.32,0.16,
1.639,-0.99,1.69,0.22,-2.75,-2.34,0.14,
1.639,-0.71,1.62,0.48,-2.75,-2.34,0.14,
1.64,-0.71,1.62,0.48,-2.78,-2.36,0.12,
1.64,-0.71,1.62,0.48,-2.80,-2.39,0.10,
1.641,-0.51,1.59,0.71,-2.80,-2.39,0.10,
1.641,-0.51,1.59,0.71,-2.82,-2.40,0.08,
1.641,-0.51,1.59,0.71,-2.83,-2.42,0.05,
1.642,-0.32,1.62,0.88,-2.83,-2.42,0.05,
1.643,-0.32,1.62,0.88,-2.84,-2.44,0.02,
1.644,-0.32,1.62,0.88,-2.84,-2.46,-0.00,
1.647,-0.13,1.64,1.08,-2.84,-2.46,-0.00,
1.647,-0.13,1.64,1.08,-2.84,-2.47,-0.03,
1.65,-0.13,1.64,1.08,-2.83,-2.48,-0.06,
1.654,-0.13,1.64,1.08,-2.81,-2.49,-0.09,
1.655,-0.05,1.71,1.24,-2.81,-2.49,-0.09,
1.655,-0.05,1.71,1.24,-2.80,-2.50,-0.11,
1.658,-0.05,1.71,1.24,-2.77,-2.50,-0.13,
1.658,0.01,1.81,1.41,-2.77,-2.50,-0.13,
1.659,0.01,1.81,1.41,-2.74,-2.51,-0.15,
1.662,0.01,1.81,1.41,-2.70,-2.52,-0.16,
1.663,0.10,1.95,1.53,-2.70,-2.52,-0.16,
1.665,0.10,1.95,1.53,-2.66,-2.52,-0.17,
1.667,0.10,1.95,1.53,-2.61,-2.52,-0.18,
1.667,0.19,2.00,1.60,-2.61,-2.52,-0.18,
1.673,0.19,2.00,1.60,-2.56,-2.52,-0.19,
1.674,0.19,2.00,1.60,-2.50,-2.51,-0.20,
1.674,0.30,2.00,1.55,-2.50,-2.51,-0.20,
1.675,0.30,2.00,1.55,-2.44,-2.50,-0.21,
1.679,0.41,1.93,1.45,-2.44,-2.50,-0.21,
1.679,0.41,1.93,1.45,-2.38,-2.48,-0.22,
1.68,0.41,1.93,1.45,-2.32,-2.46,-0.23,
1.682,0.41,1.93,1.45,-2.26,-2.43,-0.25,
1.683,0.52,1.85,1.33,-2.26,-2.43,-0.25,
1.684,0.52,1.85,1.33,-2.20,-2.39,-0.27,
1.689,0.52,1.85,1.33,-2.14,-2.35,-0.29,
1.689,0.63,1.81,1.25,-2.14,-2.35,-0.29,
1.689,0.63,1.81,1.25,-2.07,-2.31,-0.32,
1.691,0.70,1.75,1.15,-2.07,-2.31,-0.32,
1.692,0.70,1.75,1.15,-2.01,-2.26,-0.35,
1.693,0.70,1.75,1.15,-1.94,-2.21,-0.38,
1.696,0.70,1.75,1.15,-1.87,-2.15,-0.42,
1.696,0.74,1.67,1.10,-1.87,-2.15,-0.42,
1.699,0.74,1.67,1.10,-1.80,-2.10,-0.47,
1.701,0.74,1.67,1.10,-1.73,-2.04,-0.52,
1.701,0.74,1.63,1.12,-1.73,-2.04,-0.52,
1.703,0.74,1.63,1.12,-1.65,-1.98,-0.56,
1.706,0.74,1.63,1.12,-1.58,-1.92,-0.62,
1.706,0.66,1.70,1.08,-1.58,-1.92,-0.62,
1.708,0.66,1.70,1.08,-1.51,-1.86,-0.67,
1.712,0.66,1.70,1.08,-1.44,-1.80,-0.72,
1.712,0.53,1.79,1.00,-1.44,-1.80,-0.72,
1.714,0.53,1.79,1.00,-1.37,-1.74,-0.77,
1.717,0.53,1.79,1.00,-1.29,-1.68,-0.82,
1.717,0.37,1.87,0.92,-1.29,-1.68,-0.82,
1.72,0.37,1.87,0.92,-1.23,-1.63,-0.87,
1.722,0.37,1.87,0.92,-1.18,-1.61,-0.90,
1.723,0.06,2.13,0.95,-1.18,-1.61,-0.90,
1.723,0.06,2.13,0.95,-1.12,-1.55,-0.94,
1.726,0.06,2.13,0.95,-1.06,-1.48,-0.97,
1.726,-0.18,2.08,0.79,-1.06,-1.48,-0.97,
1.729,-0.18,2.08,0.79,-0.99,-1.40,-1.01,
1.731,-0.60,2.05,0.86,-0.99,-1.40,-1.01,
1.731,-0.60,2.05,0.86,-0.92,-1.31,-1.05,
1.733,-0.60,2.05,0.86,-0.83,-1.23,-1.08,
1.737,-0.60,2.05,0.86,-0.74,-1.14,-1.11,
1.737,-1.03,2.08,0.99,-0.74,-1.14,-1.11,
1.739,-1.03,2.08,0.99,-0.65,-1.07,-1.14,
1.741,-1.03,2.08,0.99,-0.55,-1.00,-1.17,
1.741,-1.33,2.20,1.05,-0.55,-1.00,-1.17,
1.743,-1.33,2.20,1.05,-0.45,-0.94,-1.20,
1.746,-1.61,2.36,1.00,-0.45,-0.94,-1.20,
1.746,-1.61,2.36,1.00,-0.35,-0.88,-1.22,
1.748,-1.61,2.36,1.00,-0.26,-0.84,-1.24,
1.751,-1.91,2.54,0.86,-0.26,-0.84,-1.24,
1.751,-1.91,2.54,0.86,-0.19,-0.80,-1.26,
1.758,-1.91,2.54,0.86,-0.12,-0.76,-1.26,
1.759,-1.91,2.54,0.86,-0.06,-0.73,-1.27,
1.759,-2.22,2.62,0.56,-0.06,-0.73,-1.27,
1.77,-2.22,2.62,0.56,-0.00,-0.69,-1.27,
1.77,-2.22,2.62,0.56,0.04,-0.65,-1.27,
1.771,-2.52,2.66,0.30,0.04,-0.65,-1.27,
1.771,-2.52,2.66,0.30,0.09,-0.62,-1.27,
1.771,-2.52,2.66,0.30,0.13,-0.58,-1.27,
1.772,-2.79,2.71,0.09,0.13,-0.58,-1.27,
1.772,-2.79,2.71,0.09,0.16,-0.54,-1.27,
1.772,-2.79,2.71,0.09,0.20,-0.50,-1.26,
1.772,-3.06,2.85,-0.07,0.20,-0.50,-1.26,
1.775,-3.06,2.85,-0.07,0.23,-0.46,-1.26,
1.775,-3.38,3.03,-0.18,0.23,-0.46,-1.26,
1.79,-3.38,3.03,-0.18,0.27,-0.42,-1.25,
1.79,-3.38,3.03,-0.18,0.31,-0.38,-1.23,
1.797,-3.74,3.21,-0.25,0.31,-0.38,-1.23,
1.798,-3.74,3.21,-0.25,0.34,-0.35,-1.22,
1.798,-3.74,3.21,-0.25,0.39,-0.31,-1.20,
1.798,-3.74,3.21,-0.25,0.43,-0.29,-1.19,
1.798,-4.08,3.39,-0.31,0.43,-0.29,-1.19,
1.798,-4.08,3.39,-0.31,0.47,-0.26,-1.16,
1.799,-4.08,3.39,-0.31,0.52,-0.24,-1.15,
1.799,-4.39,3.56,-0.38,0.52,-0.24,-1.15,
1.799,-4.39,3.56,-0.38,0.56,-0.23,-1.12,
1.799,-4.39,3.56,-0.38,0.61,-0.22,-1.10,
1.799,-4.75,3.77,-0.52,0.61,-0.22,-1.10,
1.799,-4.75,3.77,-0.52,0.65,-0.22,-1.07,
1.801,-5.13,4.06,-0.63,0.65,-0.22,-1.07,
1.801,-5.13,4.06,-0.63,0.69,-0.23,-1.03,
1.805,-5.13,4.06,-0.63,0.72,-0.27,-0.99,
1.806,-5.48,4.39,-0.95,0.72,-0.27,-0.99,
1.807,-5.48,4.39,-0.95,0.75,-0.31,-0.94,
1.811,-5.60,4.67,-1.38,0.75,-0.31,-0.94,
1.815,-5.60,4.67,-1.38,0.77,-0.34,-0.89,
1.815,-5.60,4.67,-1.38,0.79,-0.38,-0.83,
1.815,-5.60,4.67,-1.38,0.80,-0.42,-0.77,
1.815,-5.61,4.94,-1.88,0.80,-0.42,-0.77,
1.815,-5.61,4.94,-1.88,0.80,-0.45,-0.72,
1.817,-5.61,4.94,-1.88,0.79,-0.48,-0.66,
1.821,-5.61,4.94,-1.88,0.77,-0.51,-0.59,
1.821,-5.49,5.17,-2.45,0.77,-0.51,-0.59,
1.822,-5.49,5.17,-2.45,0.74,-0.53,-0.53,
1.825,-5.49,5.17,-2.45,0.70,-0.55,-0.47,
1.825,-5.22,5.32,-3.02,0.70,-0.55,-0.47,
1.827,-5.22,5.32,-3.02,0.64,-0.56,-0.40,
1.83,-5.22,5.32,-3.02,0.58,-0.57,-0.34,
1.83,-4.93,5.40,-3.54,0.58,-0.57,-0.34,
1.832,-4.93,5.40,-3.54,0.50,-0.57,-0.28,
1.836,-4.93,5.40,-3.54,0.41,-0.57,-0.22,
1.837,-4.61,5.39,-3.93,0.41,-0.57,-0.22,
1.839,-4.61,5.39,-3.93,0.31,-0.57,-0.17,
1.841,-4.28,5.36,-4.11,0.31,-0.57,-0.17,
1.841,-4.28,5.36,-4.11,0.22,-0.58,-0.11,
1.843,-4.28,5.36,-4.11,0.11,-0.59,-0.07,
1.846,-4.00,5.25,-4.17,0.11,-0.59,-0.07,
1.846,-4.00,5.25,-4.17,0.00,-0.59,-0.03,
1.848,-4.00,5.25,-4.17,-0.10,-0.61,0.00,
1.85,-3.81,5.12,-4.03,-0.10,-0.61,0.00,
1.85,-3.81,5.12,-4.03,-0.21,-0.63,0.03,
1.855,-3.81,5.12,-4.03,-0.31,-0.65,0.05,
1.857,-3.73,4.93,-3.79,-0.31,-0.65,0.05,
1.857,-3.73,4.93,-3.79,-0.40,-0.67,0.06,
1.857,-3.73,4.93,-3.79,-0.50,-0.70,0.07,
1.86,-3.67,4.77,-3.49,-0.50,-0.70,0.07,
1.86,-3.67,4.77,-3.49,-0.58,-0.73,0.08,
1.863,-3.67,4.77,-3.49,-0.65,-0.76,0.08,
1.866,-3.67,4.77,-3.49,-0.72,-0.79,0.09,
1.866,-3.69,4.66,-3.11,-0.72,-0.79,0.09,
1.867,-3.69,4.66,-3.11,-0.78,-0.81,0.09,
1.87,-3.69,4.66,-3.11,-0.83,-0.83,0.09,
1.87,-3.73,4.58,-2.71,-0.83,-0.83,0.09,
1.873,-3.73,4.58,-2.71,-0.86,-0.85,0.09,
1.875,-3.73,4.58,-2.71,-0.89,-0.85,0.09,
1.875,-3.86,4.49,-2.33,-0.89,-0.85,0.09,
1.877,-3.86,4.49,-2.33,-0.91,-0.85,0.09,
1.88,-3.86,4.49,-2.33,-0.91,-0.84,0.09,
1.88,-3.99,4.36,-1.96,-0.91,-0.84,0.09,
1.882,-3.99,4.36,-1.96,-0.91,-0.83,0.10,
1.884,-3.99,4.36,-1.96,-0.90,-0.82,0.10,
1.885,-4.01,4.29,-1.61,-0.90,-0.82,0.10,
1.887,-4.01,4.29,-1.61,-0.88,-0.79,0.11,
1.89,-4.01,4.29,-1.61,-0.85,-0.77,0.11,
1.891,-4.03,4.27,-1.32,-0.85,-0.77,0.11,
1.892,-4.03,4.27,-1.32,-0.82,-0.73,0.12,
1.894,-4.03,4.27,-1.32,-0.79,-0.69,0.12,
1.895,-4.08,4.29,-1.05,-0.79,-0.69,0.12,
1.897,-4.08,4.29,-1.05,-0.75,-0.65,0.13,
1.9,-4.08,4.29,-1.05,-0.70,-0.60,0.14,
1.9,-4.15,4.27,-0.87,-0.70,-0.60,0.14,
1.902,-4.15,4.27,-0.87,-0.65,-0.55,0.14,
1.905,-4.22,4.27,-0.72,-0.65,-0.55,0.14,
1.906,-4.22,4.27,-0.72,-0.61,-0.50,0.15,
1.906,-4.22,4.27,-0.72,-0.55,-0.44,0.16,
1.909,-4.22,4.27,-0.72,-0.50,-0.38,0.16,
1.91,-4.28,4.32,-0.61,-0.50,-0.38,0.16,
1.912,-4.28,4.32,-0.61,-0.45,-0.32,0.17,
1.914,-4.28,4.32,-0.61,-0.40,-0.26,0.18,
1.914,-4.37,4.35,-0.49,-0.40,-0.26,0.18,
1.917,-4.37,4.35,-0.49,-0.35,-0.20,0.19,
1.92,-4.37,4.35,-0.49,-0.30,-0.14,0.19,
1.92,-4.49,4.39,-0.39,-0.30,-0.14,0.19,
1.922,-4.49,4.39,-0.39,-0.25,-0.08,0.20,
1.924,-4.49,4.39,-0.39,-0.20,-0.02,0.20,
1.924,-4.66,4.41,-0.32,-0.20,-0.02,0.20,
1.927,-4.66,4.41,-0.32,-0.16,0.04,0.22,
1.929,-4.66,4.41,-0.32,-0.11,0.10,0.23,
1.929,-4.95,4.45,-0.30,-0.11,0.10,0.23,
1.931,-4.95,4.45,-0.30,-0.07,0.15,0.24,
1.934,-5.25,4.53,-0.25,-0.07,0.15,0.24,
1.935,-5.25,4.53,-0.25,-0.04,0.20,0.26,
1.938,-5.25,4.53,-0.25,0.00,0.25,0.28,
1.941,-5.25,4.53,-0.25,0.03,0.30,0.31,
1.941,-5.44,4.63,-0.24,0.03,0.30,0.31,
1.961,-5.44,4.63,-0.24,0.07,0.35,0.33,
1.961,-5.44,4.63,-0.24,0.10,0.39,0.36,
1.962,-5.58,4.68,-0.21,0.10,0.39,0.36,
1.962,-5.58,4.68,-0.21,0.12,0.44,0.38,
1.962,-5.58,4.68,-0.21,0.14,0.48,0.40,
1.963,-5.71,4.73,-0.20,0.14,0.48,0.40,
1.963,-5.71,4.73,-0.20,0.16,0.52,0.43,
1.963,-5.71,4.73,-0.20,0.18,0.56,0.45,
1.963,-5.85,4.77,-0.15,0.18,0.56,0.45,
1.963,-5.85,4.77,-0.15,0.19,0.60,0.49,
1.964,-5.99,4.75,-0.08,0.19,0.60,0.49,
1.964,-5.99,4.75,-0.08,0.20,0.63,0.52,
1.964,-5.99,4.75,-0.08,0.21,0.66,0.55,
1.964,-5.99,4.75,-0.08,0.21,0.69,0.59,
1.964,-6.09,4.72,0.04,0.21,0.69,0.59,
1.969,-6.09,4.72,0.04,0.22,0.71,0.62,
1.97,-6.21,4.63,0.16,0.22,0.71,0.62,
1.971,-6.21,4.63,0.16,0.22,0.73,0.66,
1.972,-6.21,4.63,0.16,0.22,0.75,0.70,
1.974,-6.21,4.63,0.16,0.22,0.77,0.73,
1.975,-6.35,4.48,0.25,0.22,0.77,0.73,
1.976,-6.35,4.48,0.25,0.22,0.79,0.77,
1.979,-6.35,4.48,0.25,0.22,0.80,0.81,
1.979,-6.54,4.27,0.38,0.22,0.80,0.81,
1.981,-6.54,4.27,0.38,0.22,0.81,0.84,
1.984,-6.54,4.27,0.38,0.22,0.82,0.88,
1.984,-6.76,4.02,0.53,0.22,0.82,0.88,
1.987,-6.76,4.02,0.53,0.22,0.84,0.91,
1.989,-6.94,3.75,0.72,0.22,0.84,0.91,
1.99,-6.94,3.75,0.72,0.22,0.85,0.95,
1.991,-6.94,3.75,0.72,0.22,0.86,0.98,
1.994,-6.94,3.75,0.72,0.23,0.87,1.01,
1.994,-7.17,3.46,0.90,0.23,0.87,1.01,
1.996,-7.17,3.46,0.90,0.24,0.88,1.04,
1.999,-7.17,3.46,0.90,0.25,0.89,1.07,
1.999,-7.44,3.19,1.09,0.25,0.89,1.07,
2.001,-7.44,3.19,1.09,0.26,0.90,1.11,
2.006,-7.44,3.19,1.09,0.28,0.92,1.14,
2.007,-7.71,2.90,1.23,0.28,0.92,1.14,
2.007,-7.71,2.90,1.23,0.30,0.94,1.17,
2.009,-7.71,2.90,1.23,0.32,0.96,1.20,
2.009,-8.09,2.76,1.35,0.32,0.96,1.20,
2.011,-8.09,2.76,1.35,0.35,0.98,1.24,
2.015,-8.09,2.76,1.35,0.38,1.01,1.28,
2.015,-8.43,2.66,1.45,0.38,1.01,1.28,
2.017,-8.43,2.66,1.45,0.41,1.03,1.32,
2.019,-8.43,2.66,1.45,0.44,1.06,1.37,
2.02,-8.67,2.62,1.59,0.44,1.06,1.37,
2.021,-8.67,2.62,1.59,0.48,1.09,1.42,
2.024,-8.88,2.63,1.74,0.48,1.09,1.42,
2.028,-8.93,2.57,1.82,0.48,1.09,1.42,
2.029,-8.93,2.57,1.82,0.53,1.11,1.47,
2.029,-8.93,2.57,1.82,0.57,1.13,1.53,
2.029,-8.93,2.57,1.82,0.61,1.16,1.58,
2.031,-8.93,2.57,1.82,0.66,1.19,1.63,
2.033,-8.95,2.51,1.89,0.66,1.19,1.63,
2.034,-8.95,2.51,1.89,0.71,1.21,1.68,
2.037,-8.95,2.51,1.89,0.75,1.24,1.73,
2.039,-8.95,2.51,1.89,0.80,1.26,1.79,
2.04,-8.94,2.42,1.92,0.80,1.26,1.79,
2.041,-8.94,2.42,1.92,0.84,1.28,1.84,
2.043,-8.94,2.42,1.92,0.89,1.31,1.89,
2.044,-8.89,2.39,1.99,0.89,1.31,1.89,
2.046,-8.89,2.39,1.99,0.93,1.33,1.94,
2.048,-8.89,2.39,1.99,0.97,1.34,2.00,
2.049,-8.78,2.38,2.05,0.97,1.34,2.00,
2.051,-8.78,2.38,2.05,1.01,1.36,2.05,
2.054,-8.78,2.38,2.05,1.04,1.37,2.11,
2.055,-8.59,2.35,2.10,1.04,1.37,2.11,
2.056,-8.59,2.35,2.10,1.07,1.38,2.17,
2.058,-8.59,2.35,2.10,1.09,1.39,2.23,
2.059,-8.39,2.25,2.11,1.09,1.39,2.23,
2.061,-8.39,2.25,2.11,1.12,1.39,2.30,
2.063,-8.39,2.25,2.11,1.13,1.40,2.36,
2.063,-8.23,2.11,2.13,1.13,1.40,2.36,
2.065,-8.23,2.11,2.13,1.15,1.40,2.43,
2.068,-8.23,2.11,2.13,1.16,1.40,2.50,
2.069,-8.06,1.89,2.16,1.16,1.40,2.50,
2.074,-8.06,1.89,2.16,1.16,1.40,2.58,
2.075,-8.06,1.89,2.16,1.17,1.39,2.65,
2.079,-7.85,1.58,2.20,1.17,1.39,2.65,
2.08,-7.85,1.58,2.20,1.17,1.39,2.72,
2.08,-7.85,1.58,2.20,1.17,1.38,2.79,
2.081,-7.54,1.22,2.27,1.17,1.38,2.79,
2.081,-7.54,1.22,2.27,1.17,1.37,2.86,
2.083,-7.54,1.22,2.27,1.17,1.36,2.92,
2.083,-7.25,0.79,2.35,1.17,1.36,2.92,
2.085,-7.25,0.79,2.35,1.17,1.35,2.98,
2.101,-6.94,0.31,2.43,1.17,1.35,2.98,
2.103,-6.94,0.31,2.43,1.17,1.34,3.04,
2.104,-6.94,0.31,2.43,1.17,1.32,3.09,
2.104,-6.63,-0.17,2.53,1.17,1.32,3.09,
2.104,-6.63,-0.17,2.53,1.17,1.31,3.13,
2.104,-6.63,-0.17,2.53,1.17,1.30,3.17,
2.105,-6.63,-0.17,2.53,1.17,1.28,3.21,
2.105,-6.33,-0.66,2.61,1.17,1.28,3.21,
2.105,-6.33,-0.66,2.61,1.17,1.27,3.24,
2.106,-6.33,-0.66,2.61,1.17,1.26,3.27,
2.106,-6.03,-1.11,2.70,1.17,1.26,3.27,
2.106,-6.03,-1.11,2.70,1.18,1.25,3.29,
2.131,-6.03,-1.11,2.70,1.19,1.23,3.31,
2.131,-5.72,-1.53,2.77,1.19,1.23,3.31,
2.132,-5.72,-1.53,2.77,1.19,1.22,3.32,
2.132,-5.48,-1.87,2.82,1.19,1.22,3.32,
2.132,-5.48,-1.87,2.82,1.20,1.21,3.33,
2.133,-5.48,-1.87,2.82,1.22,1.21,3.34,
2.133,-5.48,-1.87,2.82,1.23,1.20,3.34,
2.133,-5.29,-2.15,2.86,1.23,1.20,3.34,
2.133,-5.29,-2.15,2.86,1.24,1.20,3.35,
2.134,-5.14,-2.41,2.86,1.24,1.20,3.35,
2.134,-5.14,-2.41,2.86,1.26,1.21,3.35,
2.134,-5.14,-2.41,2.86,1.27,1.21,3.35,
2.134,-5.14,-2.41,2.86,1.29,1.23,3.36,
2.135,-5.04,-2.62,2.87,1.29,1.23,3.36,
2.135,-5.04,-2.62,2.87,1.30,1.24,3.36,
2.135,-5.04,-2.62,2.87,1.32,1.26,3.36,
2.135,-5.02,-2.83,2.85,1.32,1.26,3.36,
2.136,-5.02,-2.83,2.85,1.33,1.28,3.37,
2.138,-5.02,-2.83,2.85,1.34,1.29,3.37,
2.14,-5.04,-3.02,2.83,1.34,1.29,3.37,
2.14,-5.04,-3.02,2.83,1.35,1.31,3.38,
2.142,-5.04,-3.02,2.83,1.37,1.33,3.39,
2.142,-5.04,-3.18,2.82,1.37,1.33,3.39,
2.144,-5.04,-3.18,2.82,1.38,1.35,3.40,
2.147,-5.04,-3.18,2.82,1.38,1.37,3.42,
2.147,-5.02,-3.33,2.82,1.38,1.37,3.42,
2.15,-5.02,-3.33,2.82,1.39,1.39,3.43,
2.152,-5.02,-3.33,2.82,1.40,1.40,3.45,
2.152,-5.04,-3.49,2.82,1.40,1.40,3.45,
2.157,-5.04,-3.49,2.82,1.40,1.42,3.46,
2.157,-4.95,-3.64,2.86,1.40,1.42,3.46,
2.158,-4.95,-3.64,2.86,1.40,1.43,3.48,
2.159,-4.95,-3.64,2.86,1.41,1.45,3.50,
2.163,-4.84,-3.74,2.88,1.41,1.45,3.50,
2.163,-4.84,-3.74,2.88,1.41,1.46,3.51,
2.165,-4.84,-3.74,2.88,1.41,1.46,3.53,
2.167,-4.84,-3.74,2.88,1.41,1.47,3.55,
2.168,-4.69,-3.87,2.94,1.41,1.47,3.55,
2.19,-4.69,-3.87,2.94,1.41,1.47,3.57,
2.19,-4.69,-3.87,2.94,1.41,1.47,3.59,
2.19,-4.50,-3.99,2.93,1.41,1.47,3.59,
2.19,-4.50,-3.99,2.93,1.40,1.46,3.60,
2.191,-4.50,-3.99,2.93,1.39,1.45,3.62,
2.191,-4.29,-4.12,2.96,1.39,1.45,3.62,
2.191,-4.29,-4.12,2.96,1.38,1.45,3.64,
2.191,-4.29,-4.12,2.96,1.37,1.43,3.66,
2.191,-4.03,-4.21,2.95,1.37,1.43,3.66,
2.191,-4.03,-4.21,2.95,1.35,1.42,3.67,
2.191,-4.03,-4.21,2.95,1.34,1.40,3.69,
2.192,-3.78,-4.30,2.94,1.34,1.40,3.69,
2.192,-3.78,-4.30,2.94,1.32,1.38,3.71,
2.199,-3.78,-4.30,2.94,1.30,1.36,3.72,
2.199,-3.43,-4.41,2.97,1.30,1.36,3.72,
2.2,-3.43,-4.41,2.97,1.29,1.33,3.73,
2.2,-3.10,-4.53,2.99,1.29,1.33,3.73,
2.201,-3.10,-4.53,2.99,1.27,1.30,3.74,
2.201,-3.10,-4.53,2.99,1.24,1.27,3.75,
2.203,-3.10,-4.53,2.99,1.22,1.24,3.76,
2.203,-2.80,-4.63,2.99,1.22,1.24,3.76,
2.214,-2.80,-4.63,2.99,1.20,1.20,3.76,
2.214,-2.80,-4.63,2.99,1.18,1.16,3.77,
2.215,-2.47,-4.77,2.98,1.18,1.16,3.77,
2.215,-2.47,-4.77,2.98,1.15,1.12,3.78,
2.215,-2.47,-4.77,2.98,1.13,1.07,3.78,
2.215,-2.18,-4.89,2.98,1.13,1.07,3.78,
2.216,-2.18,-4.89,2.98,1.10,1.03,3.79,
2.217,-2.18,-4.89,2.98,1.08,0.98,3.79,
2.217,-1.85,-5.02,3.01,1.08,0.98,3.79,
2.23,-1.85,-5.02,3.01,1.05,0.94,3.79,
2.23,-1.50,-5.19,3.04,1.05,0.94,3.79,
2.23,-1.50,-5.19,3.04,1.03,0.89,3.78,
2.231,-1.50,-5.19,3.04,1.01,0.85,3.78,
2.231,-1.50,-5.19,3.04,0.98,0.80,3.77,
2.231,-1.21,-5.29,3.06,0.98,0.80,3.77,
2.232,-1.21,-5.29,3.06,0.96,0.75,3.77,
2.232,-1.21,-5.29,3.06,0.94,0.70,3.76,
2.232,-0.94,-5.44,3.04,0.94,0.70,3.76,
2.234,-0.94,-5.44,3.04,0.92,0.66,3.75,
2.246,-0.94,-5.44,3.04,0.90,0.61,3.75,
2.247,-0.68,-5.57,3.00,0.90,0.61,3.75,
2.247,-0.68,-5.57,3.00,0.88,0.57,3.74,
2.247,-0.68,-5.57,3.00,0.86,0.53,3.73,
2.248,-0.43,-5.72,2.95,0.86,0.53,3.73,
2.248,-0.43,-5.72,2.95,0.84,0.50,3.72,
2.248,-0.43,-5.72,2.95,0.83,0.46,3.71,
2.249,-0.18,-5.86,2.89,0.83,0.46,3.71,
2.249,-0.18,-5.86,2.89,0.81,0.42,3.70,
2.251,-0.18,-5.86,2.89,0.79,0.39,3.68,
2.252,0.05,-5.98,2.80,0.79,0.39,3.68,
2.264,0.05,-5.98,2.80,0.77,0.36,3.67,
2.264,0.05,-5.98,2.80,0.75,0.33,3.66,
2.265,0.27,-6.12,2.71,0.75,0.33,3.66,
2.265,0.27,-6.12,2.71,0.73,0.30,3.64,
2.265,0.27,-6.12,2.71,0.71,0.28,3.62,
2.266,0.49,-6.27,2.61,0.71,0.28,3.62,
2.266,0.49,-6.27,2.61,0.69,0.25,3.61,
2.267,0.68,-6.39,2.54,0.69,0.25,3.61,
2.267,0.68,-6.39,2.54,0.67,0.23,3.59,
2.269,0.68,-6.39,2.54,0.65,0.20,3.58,
2.288,0.68,-6.39,2.54,0.62,0.18,3.56,
2.317,0.89,-6.53,2.50,0.62,0.18,3.56,
2.317,0.89,-6.53,2.50,0.60,0.16,3.54,
2.318,1.11,-6.67,2.47,0.60,0.16,3.54,
2.318,1.11,-6.67,2.47,0.58,0.13,3.52,
2.318,1.11,-6.67,2.47,0.56,0.11,3.50,
2.318,1.34,-6.63,2.58,0.56,0.11,3.50,
2.319,1.34,-6.63,2.58,0.55,0.08,3.48,
2.319,1.34,-6.63,2.58,0.56,0.02,3.47,
2.319,1.46,-6.76,2.51,0.56,0.02,3.47,
2.319,1.46,-6.76,2.51,0.55,0.00,3.46,
2.32,1.46,-6.76,2.51,0.55,-0.00,3.44,
2.32,1.81,-6.88,2.30,0.55,-0.00,3.44,
2.32,1.95,-7.14,2.16,0.55,-0.00,3.44,
2.32,1.95,-7.14,2.16,0.53,-0.01,3.41,
2.321,1.95,-7.14,2.16,0.50,-0.00,3.37,
2.321,1.95,-7.14,2.16,0.47,-0.00,3.33,
2.321,1.95,-7.14,2.16,0.44,-0.00,3.29,
2.321,2.00,-7.37,2.06,0.44,-0.00,3.29,
2.322,2.00,-7.37,2.06,0.41,-0.00,3.26,
2.322,2.00,-7.37,2.06,0.37,-0.01,3.22,
2.322,2.15,-7.45,2.04,0.37,-0.01,3.22,
2.322,2.15,-7.45,2.04,0.34,-0.02,3.19,
2.323,2.15,-7.45,2.04,0.31,-0.04,3.15,
2.323,2.39,-7.39,2.04,0.31,-0.04,3.15,
2.323,2.39,-7.39,2.04,0.28,-0.05,3.11,
2.323,2.39,-7.39,2.04,0.25,-0.07,3.08,
2.324,2.66,-7.33,2.04,0.25,-0.07,3.08,
2.324,2.66,-7.33,2.04,0.22,-0.08,3.04,
2.324,2.66,-7.33,2.04,0.19,-0.09,3.00,
2.324,2.84,-7.32,2.02,0.19,-0.09,3.00,
2.325,2.84,-7.32,2.02,0.17,-0.09,2.96,
2.325,2.84,-7.32,2.02,0.14,-0.10,2.92,
2.329,2.98,-7.36,1.98,0.14,-0.10,2.92,
2.33,2.98,-7.36,1.98,0.12,-0.11,2.88,
2.331,2.98,-7.36,1.98,0.09,-0.11,2.85,
2.331,3.14,-7.38,1.93,0.09,-0.11,2.85,
2.331,3.14,-7.38,1.93,0.07,-0.11,2.81,
2.333,3.14,-7.38,1.93,0.05,-0.12,2.77,
2.336,3.27,-7.31,1.98,0.05,-0.12,2.77,
2.336,3.27,-7.31,1.98,0.03,-0.14,2.74,
2.339,3.27,-7.31,1.98,0.01,-0.16,2.71,
2.341,3.42,-7.30,1.94,0.01,-0.16,2.71,
2.341,3.42,-7.30,1.94,-0.00,-0.16,2.68,
2.343,3.42,-7.30,1.94,-0.02,-0.16,2.65,
2.346,3.63,-7.29,1.86,-0.02,-0.16,2.65,
2.346,3.63,-7.29,1.86,-0.04,-0.16,2.61,
2.349,3.63,-7.29,1.86,-0.07,-0.15,2.57,
2.351,3.74,-7.33,1.82,-0.07,-0.15,2.57,
2.352,3.74,-7.33,1.82,-0.10,-0.15,2.53,
2.355,3.74,-7.33,1.82,-0.12,-0.14,2.49,
2.359,3.75,-7.39,1.84,-0.12,-0.14,2.49,
2.36,3.75,-7.39,1.84,-0.15,-0.14,2.45,
2.36,3.75,-7.39,1.84,-0.17,-0.14,2.42,
2.361,3.84,-7.36,1.81,-0.17,-0.14,2.42,
2.361,3.84,-7.36,1.81,-0.19,-0.14,2.38,
2.363,3.84,-7.36,1.81,-0.22,-0.14,2.35,
2.367,3.84,-7.36,1.81,-0.24,-0.14,2.31,
2.367,3.95,-7.32,1.78,-0.24,-0.14,2.31,
2.369,3.95,-7.32,1.78,-0.27,-0.15,2.27,
2.378,4.03,-7.32,1.82,-0.27,-0.15,2.27,
2.379,4.03,-7.32,1.82,-0.29,-0.15,2.23,
2.379,4.03,-7.32,1.82,-0.31,-0.16,2.20,
2.38,4.11,-7.32,1.83,-0.31,-0.16,2.20,
2.38,4.11,-7.32,1.83,-0.33,-0.17,2.16,
2.38,4.11,-7.32,1.83,-0.35,-0.17,2.12,
2.38,4.11,-7.32,1.83,-0.37,-0.18,2.08,
2.381,4.16,-7.30,1.86,-0.37,-0.18,2.08,
2.384,4.16,-7.30,1.86,-0.39,-0.19,2.05,
2.385,4.16,-7.30,1.86,-0.41,-0.20,2.02,
2.385,4.19,-7.28,1.87,-0.41,-0.20,2.02,
2.389,4.19,-7.28,1.87,-0.43,-0.22,1.99,
2.39,4.19,-7.28,1.87,-0.45,-0.23,1.96,
2.39,4.22,-7.31,1.89,-0.45,-0.23,1.96,
2.393,4.22,-7.31,1.89,-0.46,-0.25,1.92,
2.395,4.22,-7.31,1.89,-0.48,-0.27,1.89,
2.395,4.28,-7.36,1.91,-0.48,-0.27,1.89,
2.398,4.28,-7.36,1.91,-0.49,-0.29,1.86,
2.4,4.28,-7.36,1.91,-0.50,-0.32,1.82,
2.4,4.36,-7.38,1.88,-0.50,-0.32,1.82,
2.402,4.36,-7.38,1.88,-0.51,-0.34,1.79,
2.405,4.36,-7.38,1.88,-0.52,-0.37,1.76,
2.406,4.45,-7.44,1.85,-0.52,-0.37,1.76,
2.407,4.45,-7.44,1.85,-0.53,-0.39,1.72,
2.41,4.45,-7.44,1.85,-0.54,-0.41,1.69,
2.41,4.55,-7.51,1.74,-0.54,-0.41,1.69,
2.412,4.55,-7.51,1.74,-0.54,-0.43,1.65,
2.415,4.55,-7.51,1.74,-0.55,-0.45,1.61,
2.415,4.66,-7.62,1.63,-0.55,-0.45,1.61,
2.417,4.66,-7.62,1.63,-0.56,-0.47,1.58,
2.42,4.66,-7.62,1.63,-0.57,-0.49,1.54,
2.42,4.78,-7.71,1.49,-0.57,-0.49,1.54,
2.423,4.78,-7.71,1.49,-0.58,-0.51,1.50,
2.425,4.78,-7.71,1.49,-0.59,-0.53,1.46,
2.425,4.94,-7.85,1.34,-0.59,-0.53,1.46,
2.427,4.94,-7.85,1.34,-0.60,-0.55,1.42,
2.43,4.94,-7.85,1.34,-0.61,-0.56,1.38,
2.43,5.13,-7.98,1.23,-0.61,-0.56,1.38,
2.432,5.13,-7.98,1.23,-0.62,-0.58,1.33,
2.435,5.13,-7.98,1.23,-0.63,-0.60,1.29,
2.435,5.35,-8.09,1.12,-0.63,-0.60,1.29,
2.447,5.35,-8.09,1.12,-0.64,-0.62,1.24,
2.447,5.55,-8.22,0.99,-0.64,-0.62,1.24,
2.447,5.55,-8.22,0.99,-0.65,-0.63,1.19,
2.447,5.55,-8.22,0.99,-0.67,-0.64,1.13,
2.447,5.55,-8.22,0.99,-0.68,-0.65,1.08,
2.448,5.74,-8.33,0.82,-0.68,-0.65,1.08,
2.448,5.74,-8.33,0.82,-0.70,-0.65,1.02,
2.453,5.74,-8.33,0.82,-0.71,-0.65,0.95,
2.453,5.93,-8.42,0.68,-0.71,-0.65,0.95,
2.453,5.93,-8.42,0.68,-0.73,-0.64,0.89,
2.455,5.93,-8.42,0.68,-0.74,-0.64,0.83,
2.455,6.10,-8.56,0.58,-0.74,-0.64,0.83,
2.457,6.10,-8.56,0.58,-0.76,-0.62,0.76,
2.459,6.26,-8.70,0.43,-0.76,-0.62,0.76,
2.46,6.26,-8.70,0.43,-0.78,-0.61,0.68,
2.462,6.26,-8.70,0.43,-0.80,-0.59,0.60,
2.465,6.26,-8.70,0.43,-0.82,-0.57,0.52,
2.465,6.39,-8.81,0.33,-0.82,-0.57,0.52,
2.467,6.39,-8.81,0.33,-0.84,-0.55,0.43,
2.47,6.39,-8.81,0.33,-0.86,-0.53,0.34,
2.47,6.48,-8.93,0.26,-0.86,-0.53,0.34,
2.474,6.48,-8.93,0.26,-0.88,-0.51,0.25,
2.475,6.52,-9.00,0.24,-0.88,-0.51,0.25,
2.475,6.52,-9.00,0.24,-0.90,-0.49,0.16,
2.477,6.52,-9.00,0.24,-0.92,-0.47,0.07,
2.48,6.52,-9.00,0.24,-0.95,-0.46,-0.03,
2.48,6.49,-8.97,0.32,-0.95,-0.46,-0.03,
2.482,6.49,-8.97,0.32,-0.98,-0.45,-0.11,
2.484,6.49,-8.97,0.32,-1.00,-0.44,-0.20,
2.484,6.41,-8.99,0.36,-1.00,-0.44,-0.20,
2.489,6.41,-8.99,0.36,-1.03,-0.42,-0.30,
2.491,6.41,-8.99,0.36,-1.05,-0.40,-0.39,
2.491,6.34,-9.05,0.49,-1.05,-0.40,-0.39,
2.492,6.34,-9.05,0.49,-1.06,-0.39,-0.48,
2.495,6.34,-9.05,0.49,-1.07,-0.37,-0.58,
2.496,6.19,-9.12,0.68,-1.07,-0.37,-0.58,
2.497,6.19,-9.12,0.68,-1.07,-0.36,-0.67,
2.5,6.19,-9.12,0.68,-1.07,-0.36,-0.77,
2.5,5.96,-9.25,0.95,-1.07,-0.36,-0.77,
2.504,5.96,-9.25,0.95,-1.06,-0.37,-0.87,
2.505,5.96,-9.25,0.95,-1.05,-0.38,-0.97,
2.507,5.60,-9.38,1.13,-1.05,-0.38,-0.97,
2.507,5.60,-9.38,1.13,-1.04,-0.40,-1.06,
2.509,5.60,-9.38,1.13,-1.02,-0.43,-1.16,
2.509,5.32,-9.48,1.29,-1.02,-0.43,-1.16,
2.511,5.32,-9.48,1.29,-1.01,-0.46,-1.25,
2.514,5.32,-9.48,1.29,-0.99,-0.50,-1.35,
2.514,5.15,-9.61,1.36,-0.99,-0.50,-1.35,
2.516,5.15,-9.61,1.36,-0.97,-0.53,-1.44,
2.519,5.15,-9.61,1.36,-0.96,-0.56,-1.54,
2.519,5.01,-9.76,1.32,-0.96,-0.56,-1.54,
2.522,5.01,-9.76,1.32,-0.94,-0.59,-1.64,
2.525,5.01,-9.76,1.32,-0.92,-0.61,-1.74,
2.525,4.82,-9.93,1.22,-0.92,-0.61,-1.74,
2.528,4.82,-9.93,1.22,-0.90,-0.63,-1.85,
2.529,4.55,-10.14,1.09,-0.90,-0.63,-1.85,
2.529,4.55,-10.14,1.09,-0.88,-0.65,-1.95,
2.531,4.55,-10.14,1.09,-0.86,-0.66,-2.06,
2.534,4.55,-10.14,1.09,-0.84,-0.67,-2.17,
2.534,4.19,-10.38,0.94,-0.84,-0.67,-2.17,
2.536,4.19,-10.38,0.94,-0.82,-0.68,-2.27,
2.539,3.78,-10.62,0.75,-0.82,-0.68,-2.27,
2.54,3.78,-10.62,0.75,-0.81,-0.67,-2.38,
2.543,3.78,-10.62,0.75,-0.79,-0.66,-2.49,
2.544,3.78,-10.62,0.75,-0.77,-0.64,-2.60,
2.545,3.19,-10.88,0.49,-0.77,-0.64,-2.60,
2.546,3.19,-10.88,0.49,-0.76,-0.61,-2.70,
2.55,3.19,-10.88,0.49,-0.74,-0.57,-2.80,
2.55,2.36,-11.18,0.24,-0.74,-0.57,-2.80,
2.552,2.36,-11.18,0.24,-0.73,-0.53,-2.89,
2.554,2.36,-11.18,0.24,-0.72,-0.48,-2.98,
2.555,1.47,-11.42,-0.03,-0.72,-0.48,-2.98,
2.558,1.47,-11.42,-0.03,-0.71,-0.43,-3.07,
2.56,1.47,-11.42,-0.03,-0.71,-0.37,-3.15,
2.56,0.48,-11.63,-0.28,-0.71,-0.37,-3.15,
2.561,0.48,-11.63,-0.28,-0.72,-0.31,-3.22,
2.564,-0.46,-11.73,-0.55,-0.72,-0.31,-3.22,
2.564,-0.46,-11.73,-0.55,-0.73,-0.24,-3.29,
2.567,-0.46,-11.73,-0.55,-0.75,-0.17,-3.36,
2.569,-0.46,-11.73,-0.55,-0.77,-0.08,-3.42,
2.569,-1.09,-11.56,-0.74,-0.77,-0.08,-3.42,
2.584,-1.09,-11.56,-0.74,-0.80,0.02,-3.49,
2.585,-1.09,-11.56,-0.74,-0.81,0.10,-3.55,
2.585,-1.63,-11.27,-0.70,-0.81,0.10,-3.55,
2.585,-1.63,-11.27,-0.70,-0.82,0.18,-3.60,
2.585,-1.63,-11.27,-0.70,-0.82,0.26,-3.63,
2.586,-2.02,-10.85,-0.49,-0.82,0.26,-3.63,
2.586,-2.02,-10.85,-0.49,-0.80,0.32,-3.67,
2.586,-2.02,-10.85,-0.49,-0.78,0.39,-3.70,
2.587,-2.12,-10.29,-0.28,-0.78,0.39,-3.70,
2.588,-2.12,-10.29,-0.28,-0.75,0.44,-3.74,
2.589,-2.12,-10.29,-0.28,-0.71,0.49,-3.78,
2.59,-2.10,-9.72,-0.05,-0.71,0.49,-3.78,
2.591,-2.10,-9.72,-0.05,-0.66,0.53,-3.83,
2.594,-2.10,-9.72,-0.05,-0.61,0.56,-3.87,
2.596,-2.10,-9.72,-0.05,-0.55,0.59,-3.91,
2.596,-2.02,-9.24,0.15,-0.55,0.59,-3.91,
2.598,-2.02,-9.24,0.15,-0.49,0.61,-3.96,
2.599,-1.98,-8.80,0.30,-0.49,0.61,-3.96,
2.601,-1.98,-8.80,0.30,-0.43,0.62,-4.00,
2.615,-1.98,-8.80,0.30,-0.37,0.62,-4.04,
2.616,-1.94,-8.31,0.36,-0.37,0.62,-4.04,
2.616,-1.94,-8.31,0.36,-0.32,0.61,-4.09,
2.616,-1.94,-8.31,0.36,-0.26,0.59,-4.13,
2.616,-1.98,-7.73,0.35,-0.26,0.59,-4.13,
2.617,-1.98,-7.73,0.35,-0.21,0.57,-4.17,
2.617,-1.98,-7.73,0.35,-0.17,0.53,-4.20,
2.617,-2.15,-7.11,0.22,-0.17,0.53,-4.20,
2.617,-2.15,-7.11,0.22,-0.13,0.48,-4.23,
2.619,-2.15,-7.11,0.22,-0.09,0.42,-4.25,
2.627,-2.53,-6.61,0.12,-0.09,0.42,-4.25,
2.627,-2.53,-6.61,0.12,-0.05,0.36,-4.26,
2.627,-2.53,-6.61,0.12,-0.02,0.28,-4.27,
2.628,-3.00,-6.13,-0.04,-0.02,0.28,-4.27,
2.628,-3.00,-6.13,-0.04,0.02,0.20,-4.27,
2.628,-3.00,-6.13,-0.04,0.05,0.12,-4.26,
2.629,-3.44,-5.72,-0.26,0.05,0.12,-4.26,
2.631,-3.44,-5.72,-0.26,0.09,0.04,-4.26,
2.634,-3.44,-5.72,-0.26,0.14,-0.04,-4.25,
2.635,-3.83,-5.39,-0.41,0.14,-0.04,-4.25,
2.637,-3.83,-5.39,-0.41,0.19,-0.11,-4.24,
2.638,-3.83,-5.39,-0.41,0.25,-0.18,-4.24,
2.641,-4.16,-5.06,-0.69,0.25,-0.18,-4.24,
2.642,-4.16,-5.06,-0.69,0.31,-0.24,-4.22,
2.644,-4.16,-5.06,-0.69,0.38,-0.29,-4.21,
2.645,-4.52,-4.71,-1.08,0.38,-0.29,-4.21,
2.645,-4.52,-4.71,-1.08,0.44,-0.32,-4.19,
2.649,-4.87,-4.30,-1.62,0.44,-0.32,-4.19,
2.649,-4.87,-4.30,-1.62,0.51,-0.35,-4.17,
2.65,-4.87,-4.30,-1.62,0.59,-0.36,-4.14,
2.653,-4.87,-4.30,-1.62,0.66,-0.37,-4.10,
2.654,-5.20,-3.86,-2.29,0.66,-0.37,-4.10,
2.663,-5.20,-3.86,-2.29,0.72,-0.37,-4.06,
2.664,-5.20,-3.86,-2.29,0.78,-0.36,-4.01,
2.664,-5.53,-3.47,-3.04,0.78,-0.36,-4.01,
2.664,-5.53,-3.47,-3.04,0.84,-0.34,-3.96,
2.665,-5.53,-3.47,-3.04,0.88,-0.31,-3.89,
2.665,-5.69,-3.09,-3.82,0.88,-0.31,-3.89,
2.665,-5.69,-3.09,-3.82,0.91,-0.28,-3.83,
2.671,-5.69,-3.09,-3.82,0.93,-0.23,-3.76,
2.672,-5.59,-2.77,-4.52,0.93,-0.23,-3.76,
2.672,-5.59,-2.77,-4.52,0.94,-0.19,-3.69,
2.686,-5.31,-2.52,-5.13,0.94,-0.19,-3.69,
2.686,-5.31,-2.52,-5.13,0.93,-0.13,-3.62,
2.686,-5.31,-2.52,-5.13,0.91,-0.07,-3.56,
2.687,-4.99,-2.41,-5.58,0.91,-0.07,-3.56,
2.687,-4.99,-2.41,-5.58,0.87,-0.02,-3.49,
2.688,-4.99,-2.41,-5.58,0.81,0.02,-3.43,
2.688,-4.99,-2.41,-5.58,0.75,0.05,-3.38,
2.688,-4.60,-2.35,-5.81,0.75,0.05,-3.38,
2.688,-4.60,-2.35,-5.81,0.67,0.08,-3.33,
2.693,-4.60,-2.35,-5.81,0.57,0.10,-3.29,
2.693,-4.22,-2.37,-5.87,0.57,0.10,-3.29,
2.693,-4.22,-2.37,-5.87,0.47,0.10,-3.26,
2.694,-4.22,-2.37,-5.87,0.36,0.10,-3.23,
2.694,-3.92,-2.37,-5.79,0.36,0.10,-3.23,
2.696,-3.92,-2.37,-5.79,0.24,0.10,-3.21,
2.699,-3.92,-2.37,-5.79,0.11,0.09,-3.18,
2.699,-3.72,-2.32,-5.57,0.11,0.09,-3.18,
2.701,-3.72,-2.32,-5.57,-0.02,0.08,-3.16,
2.703,-3.72,-2.32,-5.57,-0.16,0.06,-3.15,
2.703,-3.49,-2.23,-5.28,-0.16,0.06,-3.15,
2.705,-3.49,-2.23,-5.28,-0.30,0.04,-3.13,
2.708,-3.24,-2.07,-4.80,-0.30,0.04,-3.13,
2.708,-3.24,-2.07,-4.80,-0.44,0.02,-3.12,
2.71,-3.24,-2.07,-4.80,-0.57,-0.01,-3.10,
2.713,-2.99,-1.90,-4.15,-0.57,-0.01,-3.10,
2.714,-2.99,-1.90,-4.15,-0.70,-0.04,-3.09,
2.715,-2.99,-1.90,-4.15,-0.83,-0.08,-3.08,
2.717,-2.99,-1.90,-4.15,-0.95,-0.12,-3.07,
2.718,-2.80,-1.74,-3.44,-0.95,-0.12,-3.07,
2.72,-2.80,-1.74,-3.44,-1.06,-0.17,-3.07,
2.723,-2.80,-1.74,-3.44,-1.17,-0.23,-3.06,
2.724,-2.69,-1.61,-2.73,-1.17,-0.23,-3.06,
2.725,-2.69,-1.61,-2.73,-1.26,-0.28,-3.05,
2.728,-2.59,-1.52,-2.08,-1.26,-0.28,-3.05,
2.728,-2.59,-1.52,-2.08,-1.35,-0.33,-3.04,
2.73,-2.59,-1.52,-2.08,-1.44,-0.38,-3.04,
2.732,-2.56,-1.40,-1.50,-1.44,-0.38,-3.04,
2.733,-2.56,-1.40,-1.50,-1.52,-0.43,-3.03,
2.735,-2.56,-1.40,-1.50,-1.59,-0.48,-3.02,
2.738,-2.50,-1.29,-0.94,-1.59,-0.48,-3.02,
2.738,-2.50,-1.29,-0.94,-1.66,-0.53,-3.01,
2.741,-2.50,-1.29,-0.94,-1.72,-0.57,-3.00,
2.743,-2.50,-1.29,-0.94,-1.78,-0.61,-2.98,
2.743,-2.44,-1.09,-0.42,-1.78,-0.61,-2.98,
2.744,-2.44,-1.09,-0.42,-1.83,-0.65,-2.97,
2.747,-2.44,-1.09,-0.42,-1.87,-0.68,-2.96,
2.748,-2.43,-0.89,0.06,-1.87,-0.68,-2.96,
2.75,-2.43,-0.89,0.06,-1.91,-0.70,-2.94,
2.753,-2.43,-0.89,0.06,-1.94,-0.73,-2.92,
2.753,-2.45,-0.70,0.47,-1.94,-0.73,-2.92,
2.755,-2.45,-0.70,0.47,-1.97,-0.75,-2.90,
2.758,-2.48,-0.49,0.83,-1.97,-0.75,-2.90,
2.758,-2.48,-0.49,0.83,-1.99,-0.77,-2.87,
2.76,-2.48,-0.49,0.83,-2.01,-0.79,-2.84,
2.763,-2.48,-0.49,0.83,-2.03,-0.80,-2.81,
2.763,-2.50,-0.27,1.09,-2.03,-0.80,-2.81,
2.765,-2.50,-0.27,1.09,-2.04,-0.81,-2.78,
2.767,-2.58,-0.06,1.38,-2.04,-0.81,-2.78,
2.792,-2.58,-0.06,1.38,-2.05,-0.82,-2.74,
2.792,-2.58,-0.06,1.38,-2.06,-0.81,-2.71,
2.793,-2.67,0.15,1.60,-2.06,-0.81,-2.71,
2.793,-2.67,0.15,1.60,-2.06,-0.81,-2.67,
2.793,-2.67,0.15,1.60,-2.06,-0.80,-2.63,
2.793,-2.74,0.37,1.79,-2.06,-0.80,-2.63,
2.794,-2.74,0.37,1.79,-2.05,-0.79,-2.58,
2.794,-2.74,0.37,1.79,-2.04,-0.77,-2.54,
2.794,-2.74,0.37,1.79,-2.03,-0.75,-2.50,
2.794,-2.78,0.58,2.00,-2.03,-0.75,-2.50,
2.795,-2.78,0.58,2.00,-2.01,-0.72,-2.46,
2.795,-2.78,0.58,2.00,-1.98,-0.69,-2.41,
2.795,-2.79,0.77,2.21,-1.98,-0.69,-2.41,
2.795,-2.79,0.77,2.21,-1.96,-0.65,-2.37,
2.796,-2.79,0.77,2.21,-1.92,-0.61,-2.33,
2.796,-2.84,0.96,2.36,-1.92,-0.61,-2.33,
2.796,-2.84,0.96,2.36,-1.89,-0.57,-2.29,
2.803,-2.84,0.96,2.36,-1.84,-0.52,-2.24,
2.805,-2.94,1.13,2.50,-1.84,-0.52,-2.24,
2.806,-2.94,1.13,2.50,-1.80,-0.47,-2.20,
2.806,-2.94,1.13,2.50,-1.75,-0.42,-2.16,
2.807,-3.01,1.28,2.64,-1.75,-0.42,-2.16,
2.807,-3.01,1.28,2.64,-1.70,-0.37,-2.12,
2.808,-3.01,1.28,2.64,-1.65,-0.32,-2.08,
2.808,-3.05,1.40,2.78,-1.65,-0.32,-2.08,
2.809,-3.05,1.40,2.78,-1.60,-0.26,-2.04,
2.813,-3.05,1.40,2.78,-1.54,-0.22,-2.00,
2.813,-3.07,1.55,2.93,-1.54,-0.22,-2.00,
2.816,-3.07,1.55,2.93,-1.48,-0.17,-1.96,
2.821,-3.07,1.55,2.93,-1.42,-0.11,-1.93,
2.821,-3.13,1.69,3.09,-1.42,-0.11,-1.93,
2.822,-3.13,1.69,3.09,-1.35,-0.07,-1.90,
2.822,-3.13,1.69,3.09,-1.28,-0.02,-1.86,
2.822,-3.17,1.85,3.20,-1.28,-0.02,-1.86,
2.829,-3.17,1.85,3.20,-1.21,0.02,-1.84,
2.83,-3.17,1.85,3.20,-1.15,0.06,-1.81,
2.83,-3.26,1.96,3.31,-1.15,0.06,-1.81,
2.83,-3.26,1.96,3.31,-1.08,0.09,-1.78,
2.832,-3.26,1.96,3.31,-1.01,0.12,-1.75,
2.832,-3.36,2.08,3.38,-1.01,0.12,-1.75,
2.834,-3.36,2.08,3.38,-0.95,0.14,-1.73,
2.836,-3.36,2.08,3.38,-0.88,0.15,-1.70,
2.837,-3.46,2.23,3.33,-0.88,0.15,-1.70,
2.84,-3.46,2.23,3.33,-0.83,0.15,-1.68,
2.844,-3.46,2.23,3.33,-0.78,0.15,-1.65,
2.845,-3.62,2.36,3.18,-0.78,0.15,-1.65,
2.845,-3.62,2.36,3.18,-0.73,0.15,-1.62,
2.846,-3.62,2.36,3.18,-0.69,0.14,-1.59,
2.847,-3.78,2.43,3.00,-0.69,0.14,-1.59,
2.849,-3.78,2.43,3.00,-0.66,0.12,-1.56,
2.851,-3.78,2.43,3.00,-0.64,0.11,-1.53,
2.851,-3.81,2.52,2.78,-0.64,0.11,-1.53,
2.853,-3.81,2.52,2.78,-0.62,0.10,-1.50,
2.864,-3.78,2.64,2.58,-0.62,0.10,-1.50,
2.864,-3.78,2.64,2.58,-0.61,0.09,-1.47,
2.865,-3.78,2.64,2.58,-0.61,0.07,-1.43,
2.865,-3.78,2.64,2.58,-0.61,0.05,-1.40,
2.865,-3.71,2.76,2.39,-0.61,0.05,-1.40,
2.866,-3.71,2.76,2.39,-0.62,0.03,-1.37,
2.866,-3.71,2.76,2.39,-0.63,0.01,-1.34,
2.866,-3.61,2.84,2.23,-0.63,0.01,-1.34,
2.869,-3.61,2.84,2.23,-0.65,-0.01,-1.31,
2.878,-3.52,2.89,2.11,-0.65,-0.01,-1.31,
2.878,-3.52,2.89,2.11,-0.68,-0.03,-1.28,
2.879,-3.52,2.89,2.11,-0.70,-0.06,-1.26,
2.879,-3.52,2.89,2.11,-0.73,-0.08,-1.24,
2.879,-3.44,2.93,2.04,-0.73,-0.08,-1.24,
2.879,-3.44,2.93,2.04,-0.77,-0.11,-1.22,
2.881,-3.44,2.93,2.04,-0.80,-0.15,-1.20,
2.881,-3.34,2.96,2.04,-0.80,-0.15,-1.20,
2.883,-3.34,2.96,2.04,-0.83,-0.18,-1.18,
2.887,-3.34,2.96,2.04,-0.87,-0.22,-1.18,
2.887,-3.25,2.99,2.05,-0.87,-0.22,-1.18,
2.888,-3.25,2.99,2.05,-0.90,-0.26,-1.17,
2.891,-3.25,2.99,2.05,-0.94,-0.30,-1.16,
2.892,-3.21,3.00,2.10,-0.94,-0.30,-1.16,
2.894,-3.21,3.00,2.10,-0.97,-0.35,-1.16,
2.896,-3.21,3.00,2.10,-1.01,-0.39,-1.17,
2.896,-3.21,2.99,2.19,-1.01,-0.39,-1.17,
2.898,-3.21,2.99,2.19,-1.04,-0.44,-1.17,
2.901,-3.21,2.99,2.19,-1.07,-0.50,-1.18,
2.902,-3.20,2.99,2.33,-1.07,-0.50,-1.18,
2.903,-3.20,2.99,2.33,-1.09,-0.55,-1.19,
2.906,-3.18,3.04,2.50,-1.09,-0.55,-1.19,
2.907,-3.18,3.04,2.50,-1.11,-0.61,-1.21,
2.908,-3.18,3.04,2.50,-1.12,-0.66,-1.22,
2.911,-3.18,3.04,2.50,-1.13,-0.72,-1.24,
2.911,-3.17,3.23,2.67,-1.13,-0.72,-1.24,
2.913,-3.17,3.23,2.67,-1.13,-0.77,-1.26,
2.916,-3.17,3.23,2.67,-1.13,-0.83,-1.28,
2.916,-3.19,3.52,2.73,-1.13,-0.83,-1.28,
2.918,-3.19,3.52,2.73,-1.13,-0.88,-1.30,
2.921,-3.19,3.52,2.73,-1.12,-0.93,-1.31,
2.921,-3.26,3.80,2.73,-1.12,-0.93,-1.31,
2.924,-3.26,3.80,2.73,-1.12,-0.98,-1.32,
2.926,-3.26,3.80,2.73,-1.11,-1.02,-1.32,
2.926,-3.38,4.09,2.58,-1.11,-1.02,-1.32,
2.928,-3.38,4.09,2.58,-1.10,-1.06,-1.32,
2.93,-3.38,4.09,2.58,-1.10,-1.09,-1.31,
2.931,-3.53,4.35,2.39,-1.10,-1.09,-1.31,
2.955,-3.53,4.35,2.39,-1.10,-1.12,-1.30,
2.955,-3.53,4.35,2.39,-1.10,-1.15,-1.29,
2.955,-3.64,4.62,2.20,-1.10,-1.15,-1.29,
2.956,-3.64,4.62,2.20,-1.10,-1.16,-1.27,
2.956,-3.64,4.62,2.20,-1.10,-1.17,-1.24,
2.956,-3.74,4.88,2.05,-1.10,-1.17,-1.24,
2.956,-3.74,4.88,2.05,-1.11,-1.18,-1.22,
2.957,-3.74,4.88,2.05,-1.11,-1.18,-1.19,
2.957,-3.78,5.10,1.95,-1.11,-1.18,-1.19,
2.957,-3.78,5.10,1.95,-1.11,-1.18,-1.17,
2.957,-3.78,5.10,1.95,-1.10,-1.18,-1.14,
2.958,-3.80,5.30,1.89,-1.10,-1.18,-1.14,
2.958,-3.80,5.30,1.89,-1.10,-1.17,-1.12,
2.958,-3.80,5.30,1.89,-1.09,-1.16,-1.09,
2.958,-3.88,5.43,1.88,-1.09,-1.16,-1.09,
2.959,-3.88,5.43,1.88,-1.08,-1.15,-1.06,
2.961,-3.88,5.43,1.88,-1.06,-1.13,-1.03,
2.961,-3.90,5.52,1.88,-1.06,-1.13,-1.03,
2.964,-3.90,5.52,1.88,-1.04,-1.12,-1.00,
2.965,-3.90,5.52,1.88,-1.02,-1.10,-0.98,
2.965,-3.88,5.60,1.89,-1.02,-1.10,-0.98,
2.969,-3.88,5.60,1.89,-1.00,-1.07,-0.95,
2.972,-3.84,5.61,1.91,-1.00,-1.07,-0.95,
2.972,-3.84,5.61,1.91,-0.98,-1.05,-0.93,
2.986,-3.84,5.61,1.91,-0.96,-1.02,-0.91,
2.987,-3.84,5.61,1.91,-0.93,-0.99,-0.89,
2.988,-3.83,5.61,1.92,-0.93,-0.99,-0.89,
2.989,-3.83,5.61,1.92,-0.91,-0.97,-0.87,
2.989,-3.83,5.61,1.92,-0.87,-0.93,-0.85,
2.989,-3.83,5.54,1.94,-0.87,-0.93,-0.85,
2.99,-3.83,5.54,1.94,-0.84,-0.90,-0.84,
2.99,-3.83,5.54,1.94,-0.81,-0.87,-0.83,
2.99,-3.90,5.46,1.98,-0.81,-0.87,-0.83,
2.991,-3.90,5.46,1.98,-0.77,-0.83,-0.82,
2.991,-3.90,5.46,1.98,-0.73,-0.80,-0.81,
2.991,-3.96,5.35,2.00,-0.73,-0.80,-0.81,
3.001,-3.96,5.35,2.00,-0.70,-0.76,-0.81,
3.001,-3.96,5.35,2.00,-0.66,-0.72,-0.80,
3.001,-3.99,5.24,1.99,-0.66,-0.72,-0.80,
3.001,-3.99,5.24,1.99,-0.62,-0.67,-0.80,
3.002,-3.99,5.24,1.99,-0.57,-0.62,-0.80,
3.002,-4.06,5.14,1.98,-0.57,-0.62,-0.80,
3.003,-4.06,5.14,1.98,-0.53,-0.57,-0.80,
3.005,-4.18,5.04,2.00,-0.53,-0.57,-0.80,
3.005,-4.18,5.04,2.00,-0.49,-0.52,-0.81,
3.007,-4.18,5.04,2.00,-0.44,-0.46,-0.81,
3.01,-4.36,4.96,2.08,-0.44,-0.46,-0.81,
3.01,-4.36,4.96,2.08,-0.39,-0.41,-0.81,
3.013,-4.36,4.96,2.08,-0.34,-0.35,-0.82,
3.016,-4.36,4.96,2.08,-0.29,-0.30,-0.82,
3.016,-4.66,4.89,2.19,-0.29,-0.30,-0.82,
3.018,-4.66,4.89,2.19,-0.23,-0.24,-0.83,
3.02,-5.03,4.94,2.31,-0.23,-0.24,-0.83,
3.02,-5.03,4.94,2.31,-0.18,-0.19,-0.83,
3.022,-5.03,4.94,2.31,-0.12,-0.14,-0.83,
3.025,-5.03,4.94,2.31,-0.07,-0.10,-0.83,
3.026,-5.45,5.06,2.39,-0.07,-0.10,-0.83,
3.028,-5.45,5.06,2.39,-0.01,-0.05,-0.82,
3.03,-5.45,5.06,2.39,0.05,-0.01,-0.81,
3.031,-5.78,5.21,2.41,0.05,-0.01,-0.81,
3.032,-5.78,5.21,2.41,0.10,0.04,-0.80,
3.034,-5.78,5.21,2.41,0.15,0.08,-0.78,
3.035,-6.16,5.34,2.38,0.15,0.08,-0.78,
3.037,-6.16,5.34,2.38,0.20,0.12,-0.77,
3.04,-6.61,5.42,2.30,0.20,0.12,-0.77,
3.04,-6.61,5.42,2.30,0.25,0.16,-0.75,
3.042,-6.61,5.42,2.30,0.29,0.19,-0.73,
3.045,-6.61,5.42,2.30,0.32,0.21,-0.70,
3.045,-7.07,5.44,2.25,0.32,0.21,-0.70,
3.047,-7.07,5.44,2.25,0.35,0.23,-0.68,
3.05,-7.07,5.44,2.25,0.37,0.24,-0.65,
3.05,-7.50,5.46,2.24,0.37,0.24,-0.65,
3.053,-7.50,5.46,2.24,0.39,0.25,-0.62,
3.061,-7.50,5.46,2.24,0.41,0.24,-0.60,
3.061,-7.86,5.42,2.34,0.41,0.24,-0.60,
3.062,-7.86,5.42,2.34,0.43,0.23,-0.57,
3.062,-8.17,5.36,2.21,0.43,0.23,-0.57,
3.062,-8.17,5.36,2.21,0.44,0.22,-0.55,
3.063,-8.17,5.36,2.21,0.44,0.21,-0.51,
3.065,-8.50,5.20,2.12,0.44,0.21,-0.51,
3.065,-8.50,5.20,2.12,0.43,0.20,-0.48,
3.067,-8.50,5.20,2.12,0.42,0.19,-0.45,
3.07,-8.50,5.20,2.12,0.41,0.18,-0.41,
3.07,-8.87,4.98,2.04,0.41,0.18,-0.41,
3.084,-8.87,4.98,2.04,0.39,0.16,-0.38,
3.085,-9.22,4.72,2.12,0.39,0.16,-0.38,
3.085,-9.22,4.72,2.12,0.38,0.14,-0.34,
3.086,-9.56,4.50,2.27,0.38,0.14,-0.34,
3.086,-9.56,4.50,2.27,0.37,0.13,-0.30,
3.086,-9.56,4.50,2.27,0.36,0.11,-0.26,
3.087,-9.56,4.50,2.27,0.36,0.10,-0.21,
3.087,-9.56,4.50,2.27,0.36,0.10,-0.17,
3.087,-9.86,4.30,2.47,0.36,0.10,-0.17,
3.087,-9.86,4.30,2.47,0.37,0.10,-0.12,
3.09,-9.86,4.30,2.47,0.39,0.10,-0.08,
3.09,-10.10,4.13,2.69,0.39,0.10,-0.08,
3.095,-10.10,4.13,2.69,0.41,0.11,-0.02,
3.095,-10.10,4.13,2.69,0.44,0.12,0.03,
3.096,-10.33,3.95,2.88,0.44,0.12,0.03,
3.097,-10.33,3.95,2.88,0.48,0.14,0.09,
3.117,-10.33,3.95,2.88,0.53,0.16,0.14,
3.117,-10.51,3.83,3.11,0.53,0.16,0.14,
3.117,-10.51,3.83,3.11,0.58,0.19,0.21,
3.118,-10.54,3.79,3.30,0.58,0.19,0.21,
3.118,-10.54,3.79,3.30,0.65,0.22,0.28,
3.118,-10.54,3.79,3.30,0.71,0.26,0.34,
3.119,-10.54,3.79,3.30,0.78,0.30,0.41,
3.119,-10.55,3.74,3.41,0.78,0.30,0.41,
3.119,-10.55,3.74,3.41,0.85,0.33,0.48,
3.12,-10.55,3.74,3.41,0.93,0.37,0.57,
3.12,-10.56,3.71,3.49,0.93,0.37,0.57,
3.12,-10.56,3.71,3.49,1.01,0.42,0.65,
3.121,-10.56,3.71,3.49,1.09,0.46,0.74,
3.121,-10.41,3.72,3.46,1.09,0.46,0.74,
3.123,-10.41,3.72,3.46,1.18,0.52,0.83,
3.124,-10.41,3.72,3.46,1.26,0.57,0.93,
3.125,-10.17,3.75,3.45,1.26,0.57,0.93,
3.126,-10.17,3.75,3.45,1.35,0.63,1.03,
3.129,-10.17,3.75,3.45,1.43,0.68,1.12,
3.129,-9.85,3.74,3.41,1.43,0.68,1.12,
3.131,-9.85,3.74,3.41,1.52,0.74,1.23,
3.134,-9.85,3.74,3.41,1.60,0.80,1.32,
3.134,-9.49,3.65,3.27,1.60,0.80,1.32,
3.136,-9.49,3.65,3.27,1.68,0.86,1.43,
3.14,-9.08,3.45,3.09,1.68,0.86,1.43,
3.14,-9.08,3.45,3.09,1.76,0.92,1.53,
3.141,-9.08,3.45,3.09,1.83,0.98,1.63,
3.144,-9.08,3.45,3.09,1.90,1.04,1.72,
3.144,-8.58,3.17,2.84,1.90,1.04,1.72,
3.146,-8.58,3.17,2.84,1.96,1.10,1.81,
3.148,-8.58,3.17,2.84,2.02,1.16,1.90,
3.149,-8.11,2.83,2.56,2.02,1.16,1.90,
3.151,-8.11,2.83,2.56,2.07,1.21,1.98,
3.154,-7.64,2.46,2.32,2.07,1.21,1.98,
3.154,-7.64,2.46,2.32,2.11,1.26,2.07,
3.158,-7.64,2.46,2.32,2.15,1.31,2.15,
3.159,-7.09,2.07,2.10,2.15,1.31,2.15,
3.16,-7.09,2.07,2.10,2.19,1.35,2.22,
3.161,-7.09,2.07,2.10,2.22,1.40,2.28,
3.164,-7.09,2.07,2.10,2.25,1.44,2.35,
3.164,-6.53,1.67,1.86,2.25,1.44,2.35,
3.166,-6.53,1.67,1.86,2.28,1.48,2.40,
3.168,-6.53,1.67,1.86,2.30,1.53,2.44,
3.169,-5.97,1.27,1.63,2.30,1.53,2.44,
3.171,-5.97,1.27,1.63,2.32,1.57,2.48,
3.173,-5.97,1.27,1.63,2.34,1.61,2.52,
3.175,-5.47,0.80,1.35,2.34,1.61,2.52,
3.176,-5.47,0.80,1.35,2.35,1.66,2.55,
3.178,-5.47,0.80,1.35,2.36,1.70,2.57,
3.179,-5.07,0.35,1.10,2.36,1.70,2.57,
3.181,-5.07,0.35,1.10,2.37,1.75,2.59,
3.184,-5.07,0.35,1.10,2.37,1.80,2.61,
3.184,-4.72,-0.06,0.86,2.37,1.80,2.61,
3.186,-4.72,-0.06,0.86,2.37,1.84,2.62,
3.189,-4.72,-0.06,0.86,2.37,1.89,2.63,
3.189,-4.42,-0.39,0.64,2.37,1.89,2.63,
3.192,-4.42,-0.39,0.64,2.36,1.94,2.64,
3.194,-4.21,-0.70,0.50,2.36,1.94,2.64,
3.194,-4.21,-0.70,0.50,2.35,1.99,2.65,
3.196,-4.21,-0.70,0.50,2.34,2.04,2.66,
3.198,-4.21,-0.70,0.50,2.33,2.08,2.67,
3.198,-4.09,-0.95,0.42,2.33,2.08,2.67,
3.201,-4.09,-0.95,0.42,2.32,2.13,2.68,
3.203,-4.09,-0.95,0.42,2.30,2.18,2.69,
3.203,-4.03,-1.14,0.38,2.30,2.18,2.69,
3.208,-4.03,-1.14,0.38,2.29,2.22,2.70,
3.208,-4.03,-1.14,0.38,2.27,2.26,2.71,
3.208,-3.97,-1.31,0.37,2.27,2.26,2.71,
3.21,-3.97,-1.31,0.37,2.26,2.31,2.72,
3.213,-3.97,-1.31,0.37,2.24,2.35,2.73,
3.213,-3.96,-1.50,0.41,2.24,2.35,2.73,
3.215,-3.96,-1.50,0.41,2.23,2.39,2.74,
3.218,-3.96,-1.50,0.41,2.21,2.42,2.75,
3.218,-3.94,-1.67,0.47,2.21,2.42,2.75,
3.22,-3.94,-1.67,0.47,2.20,2.46,2.77,
3.223,-3.94,-1.67,0.47,2.18,2.49,2.78,
3.224,-3.95,-1.82,0.60,2.18,2.49,2.78,
3.225,-3.95,-1.82,0.60,2.17,2.52,2.79,
3.228,-3.95,-1.82,0.60,2.16,2.54,2.80,
3.228,-3.89,-1.99,0.80,2.16,2.54,2.80,
3.23,-3.89,-1.99,0.80,2.15,2.56,2.81,
3.234,-3.89,-1.99,0.80,2.14,2.57,2.81,
3.234,-3.80,-2.11,1.04,2.14,2.57,2.81,
3.236,-3.80,-2.11,1.04,2.14,2.59,2.82,
3.24,-3.69,-2.21,1.28,2.14,2.59,2.82,
3.24,-3.69,-2.21,1.28,2.13,2.59,2.82,
3.242,-3.69,-2.21,1.28,2.13,2.59,2.82,
3.244,-3.69,-2.21,1.28,2.13,2.59,2.83,
3.244,-3.57,-2.32,1.48,2.13,2.59,2.83,
3.246,-3.57,-2.32,1.48,2.12,2.58,2.83,
3.248,-3.38,-2.36,1.60,2.12,2.58,2.83,
3.248,-3.38,-2.36,1.60,2.12,2.57,2.83,
3.25,-3.38,-2.36,1.60,2.11,2.55,2.82,
3.253,-3.38,-2.36,1.60,2.10,2.53,2.82,
3.253,-3.16,-2.37,1.64,2.10,2.53,2.82,
3.261,-3.16,-2.37,1.64,2.08,2.50,2.82,
3.262,-3.16,-2.37,1.64,2.07,2.47,2.82,
3.262,-2.99,-2.32,1.71,2.07,2.47,2.82,
3.262,-2.99,-2.32,1.71,2.05,2.45,2.83,
3.265,-2.80,-2.28,1.77,2.05,2.45,2.83,
3.298,-2.80,-2.28,1.77,2.03,2.42,2.83,
3.298,-2.80,-2.28,1.77,2.02,2.40,2.83,
3.299,-2.80,-2.28,1.77,2.00,2.37,2.84,
3.299,-2.62,-2.24,1.87,2.00,2.37,2.84,
3.299,-2.62,-2.24,1.87,1.98,2.34,2.85,
3.3,-2.47,-2.24,1.89,1.98,2.34,2.85,
3.3,-2.32,-2.27,1.94,1.98,2.34,2.85,
3.3,-2.32,-2.27,1.94,1.97,2.30,2.86,
3.301,-2.32,-2.27,1.94,1.95,2.27,2.86,
3.301,-2.32,-2.27,1.94,1.93,2.24,2.88,
3.301,-2.32,-2.27,1.94,1.92,2.21,2.89,
3.302,-2.32,-2.27,1.94,1.90,2.18,2.90,
3.302,-2.22,-2.32,2.04,1.90,2.18,2.90,
3.303,-2.22,-2.32,2.04,1.88,2.16,2.92,
3.303,-2.22,-2.32,2.04,1.87,2.13,2.93,
3.303,-2.09,-2.40,2.15,1.87,2.13,2.93,
3.304,-2.09,-2.40,2.15,1.85,2.11,2.95,
3.304,-1.93,-2.51,2.25,1.85,2.11,2.95,
3.304,-1.93,-2.51,2.25,1.84,2.08,2.96,
3.305,-1.93,-2.51,2.25,1.83,2.05,2.98,
3.305,-1.93,-2.51,2.25,1.82,2.02,2.99,
3.306,-1.79,-2.62,2.28,1.82,2.02,2.99,
3.306,-1.79,-2.62,2.28,1.80,1.98,3.01,
3.306,-1.79,-2.62,2.28,1.79,1.95,3.02,
3.307,-1.63,-2.77,2.25,1.79,1.95,3.02,
3.307,-1.63,-2.77,2.25,1.77,1.93,3.03,
3.307,-1.40,-2.94,2.21,1.77,1.93,3.03,
3.308,-1.40,-2.94,2.21,1.75,1.90,3.04,
3.311,-1.40,-2.94,2.21,1.73,1.87,3.06,
3.313,-1.40,-2.94,2.21,1.71,1.84,3.06,
3.314,-1.19,-3.12,2.16,1.71,1.84,3.06,
3.316,-1.19,-3.12,2.16,1.70,1.81,3.06,
3.318,-1.19,-3.12,2.16,1.68,1.78,3.07,
3.318,-0.96,-3.33,2.10,1.68,1.78,3.07,
3.319,-0.96,-3.33,2.10,1.65,1.76,3.07,
3.324,-0.96,-3.33,2.10,1.63,1.73,3.06,
3.325,-0.70,-3.54,1.99,1.63,1.73,3.06,
3.326,-0.70,-3.54,1.99,1.60,1.71,3.06,
3.327,-0.70,-3.54,1.99,1.57,1.69,3.05,
3.327,-0.43,-3.76,1.88,1.57,1.69,3.05,
3.329,-0.43,-3.76,1.88,1.54,1.67,3.04,
3.333,-0.20,-3.93,1.73,1.54,1.67,3.04,
3.333,-0.20,-3.93,1.73,1.51,1.65,3.02,
3.334,-0.20,-3.93,1.73,1.47,1.64,3.01,
3.337,-0.20,-3.93,1.73,1.43,1.62,2.99,
3.337,0.01,-4.11,1.58,1.43,1.62,2.99,
3.34,0.01,-4.11,1.58,1.40,1.61,2.98,
3.342,0.01,-4.11,1.58,1.35,1.59,2.96,
3.342,0.16,-4.27,1.46,1.35,1.59,2.96,
3.344,0.16,-4.27,1.46,1.31,1.58,2.95,
3.347,0.16,-4.27,1.46,1.27,1.57,2.93,
3.347,0.27,-4.38,1.38,1.27,1.57,2.93,
3.349,0.27,-4.38,1.38,1.22,1.56,2.92,
3.352,0.37,-4.50,1.35,1.22,1.56,2.92,
3.352,0.37,-4.50,1.35,1.17,1.55,2.90,
3.355,0.37,-4.50,1.35,1.12,1.54,2.89,
3.357,0.45,-4.66,1.32,1.12,1.54,2.89,
3.36,0.45,-4.66,1.32,1.07,1.53,2.87,
3.36,0.45,-4.66,1.32,1.01,1.53,2.87,
3.362,0.53,-4.79,1.36,1.01,1.53,2.87,
3.362,0.53,-4.79,1.36,0.96,1.52,2.86,
3.364,0.53,-4.79,1.36,0.90,1.51,2.84,
3.369,0.66,-4.93,1.51,0.90,1.51,2.84,
3.369,0.66,-4.93,1.51,0.85,1.49,2.82,
3.37,0.66,-4.93,1.51,0.80,1.48,2.80,
3.373,0.66,-4.93,1.51,0.76,1.45,2.78,
3.374,0.75,-5.09,1.63,0.76,1.45,2.78,
3.379,0.84,-5.23,1.75,0.76,1.45,2.78,
3.38,0.84,-5.23,1.75,0.71,1.43,2.76,
3.38,0.84,-5.23,1.75,0.66,1.41,2.74,
3.38,0.84,-5.23,1.75,0.61,1.39,2.72,
3.383,0.84,-5.23,1.75,0.57,1.36,2.70,
3.383,0.98,-5.28,1.86,0.57,1.36,2.70,
3.385,0.98,-5.28,1.86,0.52,1.34,2.68,
3.387,1.14,-5.34,1.96,0.52,1.34,2.68,
3.387,1.14,-5.34,1.96,0.47,1.31,2.66,
3.39,1.14,-5.34,1.96,0.42,1.28,2.64,
3.393,1.14,-5.34,1.96,0.38,1.25,2.62,
3.393,1.28,-5.44,2.12,0.38,1.25,2.62,
3.394,1.28,-5.44,2.12,0.33,1.22,2.60,
3.397,1.28,-5.44,2.12,0.29,1.18,2.58,
3.397,1.43,-5.50,2.25,0.29,1.18,2.58,
3.399,1.43,-5.50,2.25,0.25,1.15,2.56,
3.401,1.43,-5.50,2.25,0.20,1.12,2.54,
3.402,1.60,-5.53,2.30,0.20,1.12,2.54,
3.404,1.60,-5.53,2.30,0.16,1.08,2.52,
3.407,1.76,-5.56,2.40,0.16,1.08,2.52,
3.407,1.76,-5.56,2.40,0.12,1.04,2.50,
3.409,1.76,-5.56,2.40,0.07,1.00,2.47,
3.413,1.93,-5.56,2.48,0.07,1.00,2.47,
3.413,1.93,-5.56,2.48,0.03,0.96,2.45,
3.414,1.93,-5.56,2.48,-0.01,0.92,2.43,
3.417,1.93,-5.56,2.48,-0.05,0.88,2.41,
3.417,2.08,-5.55,2.54,-0.05,0.88,2.41,
3.419,2.08,-5.55,2.54,-0.09,0.84,2.39,
3.423,2.22,-5.53,2.60,-0.09,0.84,2.39,
3.424,2.22,-5.53,2.60,-0.14,0.79,2.37,
3.425,2.22,-5.53,2.60,-0.18,0.75,2.36,
3.426,2.22,-5.53,2.60,-0.22,0.71,2.34,
3.427,2.35,-5.51,2.63,-0.22,0.71,2.34,
3.445,2.35,-5.51,2.63,-0.27,0.66,2.32,
3.445,2.35,-5.51,2.63,-0.31,0.62,2.31,
3.445,2.46,-5.48,2.67,-0.31,0.62,2.31,
3.446,2.46,-5.48,2.67,-0.35,0.58,2.30,
3.446,2.59,-5.43,2.70,-0.35,0.58,2.30,
3.446,2.59,-5.43,2.70,-0.39,0.53,2.28,
3.446,2.59,-5.43,2.70,-0.44,0.49,2.27,
3.447,2.59,-5.43,2.70,-0.49,0.45,2.26,
3.447,2.70,-5.40,2.70,-0.49,0.45,2.26,
3.447,2.70,-5.40,2.70,-0.53,0.40,2.25,
3.448,2.70,-5.40,2.70,-0.57,0.35,2.25,
3.448,2.79,-5.39,2.79,-0.57,0.35,2.25,
3.45,2.79,-5.39,2.79,-0.62,0.30,2.24,
3.453,2.91,-5.37,2.81,-0.62,0.30,2.24,
3.453,2.91,-5.37,2.81,-0.66,0.25,2.24,
3.454,2.91,-5.37,2.81,-0.70,0.20,2.23,
3.456,2.91,-5.37,2.81,-0.74,0.16,2.23,
3.456,3.01,-5.38,2.81,-0.74,0.16,2.23,
3.458,3.01,-5.38,2.81,-0.78,0.11,2.23,
3.461,3.01,-5.38,2.81,-0.82,0.07,2.22,
3.461,3.14,-5.47,2.78,-0.82,0.07,2.22,
3.463,3.14,-5.47,2.78,-0.86,0.03,2.22,
3.466,3.28,-5.60,2.74,-0.86,0.03,2.22,
3.466,3.28,-5.60,2.74,-0.91,-0.01,2.21,
3.468,3.28,-5.60,2.74,-0.95,-0.05,2.20,
3.471,3.28,-5.60,2.74,-0.99,-0.09,2.20,
3.471,3.47,-5.74,2.73,-0.99,-0.09,2.20,
3.475,3.47,-5.74,2.73,-1.02,-0.13,2.18,
3.481,3.60,-5.84,2.72,-1.02,-0.13,2.18,
3.481,3.60,-5.84,2.72,-1.06,-0.17,2.18,
3.481,3.60,-5.84,2.72,-1.10,-0.21,2.16,
3.482,3.75,-5.96,2.68,-1.10,-0.21,2.16,
3.482,3.75,-5.96,2.68,-1.13,-0.25,2.15,
3.483,3.75,-5.96,2.68,-1.17,-0.29,2.14,
3.486,3.87,-6.13,2.62,-1.17,-0.29,2.14,
3.486,3.87,-6.13,2.62,-1.20,-0.32,2.13,
3.488,3.87,-6.13,2.62,-1.24,-0.36,2.12,
3.491,4.05,-6.26,2.53,-1.24,-0.36,2.12,
3.491,4.05,-6.26,2.53,-1.27,-0.39,2.10,
3.494,4.05,-6.26,2.53,-1.31,-0.42,2.09,
3.496,4.05,-6.26,2.53,-1.34,-0.45,2.07,
3.496,4.26,-6.45,2.46,-1.34,-0.45,2.07,
3.498,4.26,-6.45,2.46,-1.37,-0.47,2.05,
3.5,4.26,-6.45,2.46,-1.41,-0.49,2.03,
3.501,4.40,-6.65,2.40,-1.41,-0.49,2.03,
3.503,4.40,-6.65,2.40,-1.44,-0.51,2.01,
3.506,4.60,-6.85,2.34,-1.44,-0.51,2.01,
3.506,4.60,-6.85,2.34,-1.47,-0.53,1.98,
3.508,4.60,-6.85,2.34,-1.50,-0.55,1.95,
3.51,4.78,-7.06,2.32,-1.50,-0.55,1.95,
3.511,4.78,-7.06,2.32,-1.53,-0.57,1.92,
3.513,4.78,-7.06,2.32,-1.56,-0.59,1.88,
3.515,4.78,-7.06,2.32,-1.59,-0.60,1.85,
3.516,4.97,-7.23,2.29,-1.59,-0.60,1.85,
3.518,4.97,-7.23,2.29,-1.61,-0.61,1.80,
3.52,4.97,-7.23,2.29,-1.64,-0.62,1.76,
3.52,5.12,-7.34,2.31,-1.64,-0.62,1.76,
3.524,5.12,-7.34,2.31,-1.66,-0.64,1.72,
3.526,5.12,-7.34,2.31,-1.68,-0.64,1.68,
3.526,5.23,-7.45,2.36,-1.68,-0.64,1.68,
3.528,5.23,-7.45,2.36,-1.70,-0.66,1.63,
3.53,5.23,-7.45,2.36,-1.71,-0.66,1.59,
3.53,5.33,-7.53,2.40,-1.71,-0.66,1.59,
3.532,5.33,-7.53,2.40,-1.73,-0.67,1.54,
3.535,5.33,-7.53,2.40,-1.73,-0.68,1.50,
3.535,5.47,-7.62,2.46,-1.73,-0.68,1.50,
3.538,5.47,-7.62,2.46,-1.74,-0.69,1.45,
3.54,5.54,-7.71,2.51,-1.74,-0.69,1.45,
3.54,5.54,-7.71,2.51,-1.75,-0.70,1.40,
3.543,5.54,-7.71,2.51,-1.75,-0.71,1.35,
3.545,5.60,-7.79,2.56,-1.75,-0.71,1.35,
3.545,5.60,-7.79,2.56,-1.75,-0.72,1.30,
3.549,5.60,-7.79,2.56,-1.75,-0.73,1.25,
3.55,5.68,-7.85,2.63,-1.75,-0.73,1.25,
3.55,5.68,-7.85,2.63,-1.75,-0.74,1.20,
3.552,5.68,-7.85,2.63,-1.74,-0.75,1.15,
3.555,5.68,-7.85,2.63,-1.74,-0.76,1.10,
3.556,5.71,-7.91,2.69,-1.74,-0.76,1.10,
3.558,5.71,-7.91,2.69,-1.73,-0.77,1.04,
3.56,5.71,-7.96,2.76,-1.73,-0.77,1.04,
3.56,5.71,-7.96,2.76,-1.71,-0.78,1.00,
3.563,5.71,-7.96,2.76,-1.69,-0.79,0.95,
3.565,5.71,-7.96,2.76,-1.67,-0.80,0.90,
3.565,5.66,-8.08,2.81,-1.67,-0.80,0.90,
3.567,5.66,-8.08,2.81,-1.65,-0.82,0.85,
3.57,5.66,-8.08,2.81,-1.62,-0.83,0.80,
3.57,5.64,-8.21,2.82,-1.62,-0.83,0.80,
3.573,5.64,-8.21,2.82,-1.58,-0.84,0.75,
3.576,5.62,-8.37,2.78,-1.58,-0.84,0.75,
3.576,5.62,-8.37,2.78,-1.55,-0.85,0.69,
3.578,5.62,-8.37,2.78,-1.51,-0.85,0.63,
3.581,5.62,-8.37,2.78,-1.47,-0.85,0.58,
3.581,5.56,-8.63,2.75,-1.47,-0.85,0.58,
3.583,5.56,-8.63,2.75,-1.43,-0.86,0.51,
3.586,5.56,-8.63,2.75,-1.39,-0.86,0.45,
3.586,5.38,-8.99,2.67,-1.39,-0.86,0.45,
3.587,5.38,-8.99,2.67,-1.34,-0.86,0.38,
3.592,5.07,-9.44,2.52,-1.34,-0.86,0.38,
3.594,5.07,-9.44,2.52,-1.30,-0.86,0.31,
3.595,5.07,-9.44,2.52,-1.26,-0.87,0.24,
3.614,4.69,-10.00,2.36,-1.26,-0.87,0.24,
3.614,4.69,-10.00,2.36,-1.22,-0.88,0.17,
3.614,4.69,-10.00,2.36,-1.19,-0.89,0.09,
3.614,4.69,-10.00,2.36,-1.15,-0.90,0.00,
3.614,4.41,-10.55,2.17,-1.15,-0.90,0.00,
3.614,4.41,-10.55,2.17,-1.12,-0.90,-0.09,
3.615,4.20,-11.08,2.02,-1.12,-0.90,-0.09,
3.615,4.20,-11.08,2.02,-1.10,-0.91,-0.19,
3.615,4.20,-11.08,2.02,-1.08,-0.91,-0.30,
3.615,4.20,-11.08,2.02,-1.05,-0.91,-0.41,
3.615,4.10,-11.49,1.91,-1.05,-0.91,-0.41,
3.615,4.10,-11.49,1.91,-1.04,-0.91,-0.53,
3.616,4.15,-11.80,1.71,-1.04,-0.91,-0.53,
3.616,4.15,-11.80,1.71,-1.02,-0.91,-0.66,
3.618,4.15,-11.80,1.71,-1.01,-0.91,-0.80,
3.62,4.15,-11.80,1.71,-1.00,-0.90,-0.94,
3.62,4.31,-11.97,1.53,-1.00,-0.90,-0.94,
3.622,4.31,-11.97,1.53,-1.00,-0.89,-1.09,
3.625,4.51,-11.93,1.42,-1.00,-0.89,-1.09,
3.626,4.51,-11.93,1.42,-1.00,-0.88,-1.24,
3.627,4.51,-11.93,1.42,-1.00,-0.87,-1.39,
3.629,4.51,-11.93,1.42,-1.01,-0.85,-1.55,
3.63,4.74,-11.68,1.40,-1.01,-0.85,-1.55,
3.632,4.74,-11.68,1.40,-1.02,-0.84,-1.70,
3.634,4.74,-11.68,1.40,-1.03,-0.83,-1.85,
3.634,4.91,-11.28,1.45,-1.03,-0.83,-1.85,
3.637,4.91,-11.28,1.45,-1.03,-0.81,-2.00,
3.64,4.94,-10.79,1.57,-1.03,-0.81,-2.00,
3.64,4.94,-10.79,1.57,-1.04,-0.80,-2.14,
3.642,4.94,-10.79,1.57,-1.05,-0.78,-2.28,
3.645,4.66,-10.27,1.79,-1.05,-0.78,-2.28,
3.646,4.66,-10.27,1.79,-1.05,-0.77,-2.41,
3.646,4.66,-10.27,1.79,-1.05,-0.76,-2.53,
3.65,4.66,-10.27,1.79,-1.04,-0.75,-2.65,
3.65,4.10,-9.78,2.14,-1.04,-0.75,-2.65,
3.652,4.10,-9.78,2.14,-1.02,-0.76,-2.75,
3.655,4.10,-9.78,2.14,-0.98,-0.76,-2.86,
3.655,3.53,-9.24,2.54,-0.98,-0.76,-2.86,
3.657,3.53,-9.24,2.54,-0.93,-0.78,-2.95,
3.659,3.53,-9.24,2.54,-0.86,-0.81,-3.04,
3.659,2.86,-8.65,2.87,-0.86,-0.81,-3.04,
3.661,2.86,-8.65,2.87,-0.78,-0.84,-3.12,
3.664,2.86,-8.65,2.87,-0.68,-0.88,-3.19,
3.664,2.04,-8.09,3.03,-0.68,-0.88,-3.19,
3.666,2.04,-8.09,3.03,-0.58,-0.93,-3.24,
3.669,2.04,-8.09,3.03,-0.46,-0.99,-3.29,
3.669,1.18,-7.49,3.02,-0.46,-0.99,-3.29,
3.671,1.18,-7.49,3.02,-0.33,-1.04,-3.32,
3.678,0.50,-6.85,2.70,-0.33,-1.04,-3.32,
3.678,0.50,-6.85,2.70,-0.20,-1.09,-3.34,
3.679,0.50,-6.85,2.70,-0.06,-1.15,-3.35,
3.68,0.50,-6.85,2.70,0.08,-1.19,-3.34,
3.68,-0.07,-6.20,2.07,0.08,-1.19,-3.34,
3.695,-0.07,-6.20,2.07,0.22,-1.23,-3.33,
3.696,-0.49,-5.74,1.11,0.22,-1.23,-3.33,
3.696,-0.49,-5.74,1.11,0.35,-1.26,-3.30,
3.697,-0.49,-5.74,1.11,0.47,-1.27,-3.26,
3.697,-0.65,-5.43,-0.10,0.47,-1.27,-3.26,
3.697,-0.65,-5.43,-0.10,0.57,-1.26,-3.22,
3.697,-0.65,-5.43,-0.10,0.66,-1.23,-3.17,
3.697,-0.65,-5.43,-0.10,0.73,-1.18,-3.12,
3.698,-0.60,-5.19,-1.38,0.73,-1.18,-3.12,
3.698,-0.60,-5.19,-1.38,0.78,-1.12,-3.06,
3.699,-0.60,-5.19,-1.38,0.83,-1.03,-3.01,
3.699,-0.49,-5.09,-2.57,0.83,-1.03,-3.01,
3.702,-0.49,-5.09,-2.57,0.86,-0.93,-2.95,
3.704,-0.49,-5.09,-2.57,0.87,-0.82,-2.91,
3.704,-0.26,-5.16,-3.48,0.87,-0.82,-2.91,
3.707,-0.26,-5.16,-3.48,0.88,-0.72,-2.88,
3.711,0.29,-5.31,-3.82,0.88,-0.72,-2.88,
3.711,0.29,-5.31,-3.82,0.89,-0.62,-2.86,
3.711,0.29,-5.31,-3.82,0.89,-0.52,-2.86,
3.714,-0.07,-5.51,-4.31,0.89,-0.52,-2.86,
3.714,-0.07,-5.51,-4.31,0.89,-0.42,-2.86,
3.716,-0.07,-5.51,-4.31,0.88,-0.30,-2.86,
3.719,-0.07,-5.51,-4.31,0.87,-0.19,-2.86,
3.719,-0.64,-5.71,-4.99,0.87,-0.19,-2.86,
3.721,-0.64,-5.71,-4.99,0.85,-0.07,-2.87,
3.724,-0.71,-5.68,-5.28,0.85,-0.07,-2.87,
3.724,-0.71,-5.68,-5.28,0.81,0.05,-2.88,
3.726,-0.71,-5.68,-5.28,0.78,0.17,-2.89,
3.729,-0.71,-5.68,-5.28,0.75,0.27,-2.90,
3.73,-0.78,-5.48,-5.22,0.75,0.27,-2.90,
3.731,-0.78,-5.48,-5.22,0.71,0.37,-2.91,
3.733,-0.78,-5.48,-5.22,0.68,0.45,-2.91,
3.734,-0.89,-5.19,-4.95,0.68,0.45,-2.91,
3.736,-0.89,-5.19,-4.95,0.65,0.52,-2.91,
3.738,-0.89,-5.19,-4.95,0.62,0.58,-2.91,
3.739,-1.13,-4.85,-4.65,0.62,0.58,-2.91,
3.742,-1.13,-4.85,-4.65,0.59,0.63,-2.90,
3.744,-1.37,-4.54,-4.40,0.59,0.63,-2.90,
3.744,-1.37,-4.54,-4.40,0.56,0.67,-2.90,
3.746,-1.37,-4.54,-4.40,0.53,0.71,-2.89,
3.748,-1.37,-4.54,-4.40,0.50,0.74,-2.88,
3.748,-1.57,-4.26,-4.16,0.50,0.74,-2.88,
3.751,-1.57,-4.26,-4.16,0.47,0.76,-2.86,
3.754,-1.71,-3.99,-3.93,0.47,0.76,-2.86,
3.754,-1.71,-3.99,-3.93,0.43,0.78,-2.84,
3.756,-1.71,-3.99,-3.93,0.39,0.79,-2.82,
3.759,-1.71,-3.99,-3.93,0.35,0.80,-2.80,
3.792,-1.79,-3.75,-3.72,0.35,0.80,-2.80,
3.792,-1.79,-3.75,-3.72,0.30,0.80,-2.77,
3.792,-1.81,-3.53,-3.50,0.30,0.80,-2.77,
3.792,-1.81,-3.53,-3.50,0.24,0.79,-2.75,
3.793,-1.81,-3.53,-3.50,0.18,0.77,-2.72,
3.793,-1.79,-3.39,-3.23,0.18,0.77,-2.72,
3.793,-1.79,-3.39,-3.23,0.11,0.74,-2.70,
3.793,-1.79,-3.39,-3.23,0.04,0.71,-2.68,
3.793,-1.73,-3.32,-2.92,0.04,0.71,-2.68,
3.793,-1.73,-3.32,-2.92,-0.03,0.66,-2.67,
3.794,-1.73,-3.32,-2.92,-0.11,0.61,-2.65,
3.794,-1.66,-3.24,-2.58,-0.11,0.61,-2.65,
3.794,-1.66,-3.24,-2.58,-0.19,0.54,-2.65,
3.794,-1.66,-3.24,-2.58,-0.28,0.47,-2.64,
3.794,-1.58,-3.08,-2.23,-0.28,0.47,-2.64,
3.794,-1.58,-3.08,-2.23,-0.37,0.39,-2.64,
3.795,-1.58,-3.08,-2.23,-0.46,0.30,-2.64,
3.795,-1.58,-3.08,-2.23,-0.55,0.20,-2.64,
3.795,-1.54,-2.84,-1.86,-0.55,0.20,-2.64,
3.795,-1.54,-2.84,-1.86,-0.65,0.09,-2.64,
3.795,-1.54,-2.59,-1.54,-0.65,0.09,-2.64,
3.796,-1.54,-2.59,-1.54,-0.74,-0.02,-2.64,
3.796,-1.54,-2.59,-1.54,-0.84,-0.14,-2.64,
3.799,-1.54,-2.59,-1.54,-0.94,-0.26,-2.64,
3.8,-1.61,-2.40,-1.25,-0.94,-0.26,-2.64,
3.8,-1.61,-2.40,-1.25,-1.03,-0.39,-2.64,
3.804,-1.61,-2.40,-1.25,-1.13,-0.53,-2.63,
3.805,-1.69,-2.19,-1.02,-1.13,-0.53,-2.63,
3.807,-1.69,-2.19,-1.02,-1.23,-0.66,-2.63,
3.821,-1.69,-2.19,-1.02,-1.33,-0.79,-2.62,
3.821,-1.68,-1.99,-0.83,-1.33,-0.79,-2.62,
3.822,-1.68,-1.99,-0.83,-1.43,-0.91,-2.61,
3.822,-1.68,-1.99,-0.83,-1.52,-1.04,-2.60,
3.822,-1.65,-1.80,-0.67,-1.52,-1.04,-2.60,
3.823,-1.65,-1.80,-0.67,-1.61,-1.15,-2.58,
3.823,-1.65,-1.80,-0.67,-1.69,-1.26,-2.57,
3.823,-1.61,-1.60,-0.49,-1.69,-1.26,-2.57,
3.824,-1.61,-1.60,-0.49,-1.78,-1.37,-2.56,
3.826,-1.56,-1.41,-0.28,-1.78,-1.37,-2.56,
3.828,-1.56,-1.41,-0.28,-1.85,-1.46,-2.54,
3.829,-1.56,-1.41,-0.28,-1.92,-1.55,-2.52,
3.829,-1.56,-1.28,-0.14,-1.92,-1.55,-2.52,
3.829,-1.56,-1.28,-0.14,-1.98,-1.63,-2.51,
3.831,-1.56,-1.28,-0.14,-2.04,-1.70,-2.49,
3.835,-1.56,-1.28,-0.14,-2.10,-1.76,-2.47,
3.835,-1.54,-1.19,-0.02,-2.10,-1.76,-2.47,
3.835,-1.54,-1.19,-0.02,-2.15,-1.82,-2.45,
3.837,-1.54,-1.19,-0.02,-2.20,-1.86,-2.43,
3.838,-1.58,-1.07,0.10,-2.20,-1.86,-2.43,
3.844,-1.58,-1.07,0.10,-2.24,-1.89,-2.40,
3.844,-1.58,-1.07,0.10,-2.28,-1.92,-2.38,
3.845,-1.63,-1.00,0.22,-2.28,-1.92,-2.38,
3.845,-1.63,-1.00,0.22,-2.32,-1.93,-2.36,
3.848,-1.63,-1.00,0.22,-2.35,-1.95,-2.33,
3.849,-1.67,-0.91,0.38,-2.35,-1.95,-2.33,
3.851,-1.67,-0.91,0.38,-2.38,-1.95,-2.30,
3.853,-1.67,-0.91,0.38,-2.40,-1.95,-2.28,
3.853,-1.69,-0.80,0.55,-2.40,-1.95,-2.28,
3.855,-1.69,-0.80,0.55,-2.41,-1.94,-2.25,
3.858,-1.69,-0.80,0.55,-2.43,-1.92,-2.22,
3.858,-1.71,-0.68,0.75,-2.43,-1.92,-2.22,
3.86,-1.71,-0.68,0.75,-2.43,-1.90,-2.20,
3.863,-1.71,-0.60,0.94,-2.43,-1.90,-2.20,
3.863,-1.71,-0.60,0.94,-2.44,-1.87,-2.17,
3.865,-1.71,-0.60,0.94,-2.43,-1.83,-2.14,
3.867,-1.71,-0.60,0.94,-2.42,-1.79,-2.11,
3.867,-1.73,-0.54,1.14,-2.42,-1.79,-2.11,
3.869,-1.73,-0.54,1.14,-2.41,-1.74,-2.09,
3.873,-1.73,-0.54,1.14,-2.39,-1.69,-2.06,
3.876,-1.76,-0.48,1.35,-2.39,-1.69,-2.06,
3.876,-1.76,-0.48,1.35,-2.37,-1.64,-2.04,
3.88,-1.76,-0.48,1.35,-2.35,-1.58,-2.01,
3.88,-1.76,-0.46,1.53,-2.35,-1.58,-2.01,
3.881,-1.76,-0.46,1.53,-2.32,-1.53,-1.98,
3.883,-1.76,-0.46,1.53,-2.29,-1.47,-1.96,
3.884,-1.78,-0.51,1.73,-2.29,-1.47,-1.96,
3.885,-1.78,-0.51,1.73,-2.25,-1.40,-1.94,
3.888,-1.78,-0.51,1.73,-2.21,-1.34,-1.93,
3.888,-1.79,-0.54,1.88,-2.21,-1.34,-1.93,
3.895,-1.79,-0.54,1.88,-2.17,-1.28,-1.91,
3.897,-1.76,-0.57,2.05,-2.17,-1.28,-1.91,
3.898,-1.76,-0.57,2.05,-2.13,-1.22,-1.90,
3.898,-1.76,-0.57,2.05,-2.08,-1.15,-1.89,
3.898,-1.76,-0.57,2.05,-2.03,-1.09,-1.89,
3.898,-1.71,-0.58,2.20,-2.03,-1.09,-1.89,
3.899,-1.71,-0.58,2.20,-1.98,-1.02,-1.88,
3.903,-1.71,-0.58,2.20,-1.92,-0.96,-1.88,
3.903,-1.67,-0.60,2.32,-1.92,-0.96,-1.88,
3.904,-1.67,-0.60,2.32,-1.86,-0.89,-1.89,
3.908,-1.68,-0.68,2.43,-1.86,-0.89,-1.89,
3.908,-1.68,-0.68,2.43,-1.81,-0.83,-1.90,
3.911,-1.68,-0.68,2.43,-1.75,-0.77,-1.91,
3.912,-1.68,-0.68,2.43,-1.68,-0.71,-1.93,
3.912,-1.69,-0.77,2.52,-1.68,-0.71,-1.93,
3.914,-1.69,-0.77,2.52,-1.62,-0.65,-1.95,
3.917,-1.69,-0.77,2.52,-1.55,-0.58,-1.97,
3.917,-1.74,-0.83,2.64,-1.55,-0.58,-1.97,
3.919,-1.74,-0.83,2.64,-1.48,-0.52,-1.99,
3.922,-1.84,-0.76,2.75,-1.48,-0.52,-1.99,
3.923,-1.84,-0.76,2.75,-1.41,-0.47,-2.02,
3.939,-1.84,-0.76,2.75,-1.33,-0.42,-2.05,
3.939,-1.84,-0.76,2.75,-1.25,-0.37,-2.08,
3.94,-1.95,-0.57,2.79,-1.25,-0.37,-2.08,
3.94,-1.95,-0.57,2.79,-1.18,-0.33,-2.12,
3.94,-1.95,-0.57,2.79,-1.10,-0.28,-2.15,
3.941,-2.10,-0.40,2.77,-1.10,-0.28,-2.15,
3.941,-2.10,-0.40,2.77,-1.03,-0.25,-2.19,
3.942,-2.10,-0.40,2.77,-0.95,-0.21,-2.21,
3.942,-2.32,-0.24,2.69,-0.95,-0.21,-2.21,
3.942,-2.32,-0.24,2.69,-0.88,-0.18,-2.24,
3.944,-2.58,-0.01,2.53,-0.88,-0.18,-2.24,
3.946,-2.58,-0.01,2.53,-0.82,-0.15,-2.26,
3.946,-2.58,-0.01,2.53,-0.76,-0.12,-2.28,
3.947,-2.58,-0.01,2.53,-0.71,-0.08,-2.29,
3.947,-2.70,0.36,2.33,-0.71,-0.08,-2.29,
3.949,-2.70,0.36,2.33,-0.66,-0.05,-2.30,
3.952,-2.70,0.36,2.33,-0.61,-0.01,-2.31,
3.952,-2.80,0.70,2.14,-0.61,-0.01,-2.31,
3.955,-2.80,0.70,2.14,-0.57,0.02,-2.32,
3.957,-2.80,0.70,2.14,-0.54,0.05,-2.32,
3.958,-2.97,1.03,2.03,-0.54,0.05,-2.32,
3.959,-2.97,1.03,2.03,-0.50,0.08,-2.32,
3.962,-3.09,1.38,1.97,-0.50,0.08,-2.32,
3.962,-3.09,1.38,1.97,-0.47,0.11,-2.31,
3.97,-3.09,1.38,1.97,-0.45,0.13,-2.31,
3.97,-3.09,1.38,1.97,-0.43,0.15,-2.31,
3.971,-3.09,1.38,1.97,-0.41,0.17,-2.31,
3.971,-3.16,1.72,1.85,-0.41,0.17,-2.31,
3.972,-3.16,1.72,1.85,-0.40,0.18,-2.31,
3.972,-3.32,2.03,1.78,-0.40,0.18,-2.31,
3.979,-3.32,2.03,1.78,-0.40,0.18,-2.31,
3.98,-3.55,2.25,1.76,-0.40,0.18,-2.31,
3.98,-3.55,2.25,1.76,-0.39,0.18,-2.31,
3.98,-3.55,2.25,1.76,-0.38,0.17,-2.30,
3.986,-3.71,2.51,1.81,-0.38,0.17,-2.30,
3.987,-3.71,2.51,1.81,-0.38,0.16,-2.30,
3.987,-3.71,2.51,1.81,-0.38,0.14,-2.30,
3.987,-3.84,2.80,1.89,-0.38,0.14,-2.30,
3.987,-3.84,2.80,1.89,-0.38,0.12,-2.30,
3.999,-3.84,2.80,1.89,-0.37,0.09,-2.30,
3.999,-3.98,3.09,1.96,-0.37,0.09,-2.30,
4.0,-3.98,3.09,1.96,-0.37,0.06,-2.30,
4.0,-3.98,3.09,1.96,-0.36,0.03,-2.30,
4.0,-3.98,3.09,1.96,-0.36,-0.01,-2.30,
4.0,-4.15,3.34,2.01,-0.36,-0.01,-2.30,
4.001,-4.15,3.34,2.01,-0.36,-0.05,-2.29,
4.002,-4.15,3.34,2.01,-0.36,-0.08,-2.29,
4.002,-4.39,3.61,2.05,-0.36,-0.08,-2.29,
4.004,-4.39,3.61,2.05,-0.35,-0.13,-2.28,
4.007,-4.39,3.61,2.05,-0.35,-0.17,-2.27,
4.007,-4.59,3.91,2.03,-0.35,-0.17,-2.27,
4.01,-4.59,3.91,2.03,-0.35,-0.21,-2.26,
4.012,-4.78,4.20,2.04,-0.35,-0.21,-2.26,
4.012,-4.78,4.20,2.04,-0.35,-0.25,-2.24,
4.014,-4.78,4.20,2.04,-0.34,-0.29,-2.22,
4.017,-4.78,4.20,2.04,-0.34,-0.34,-2.20,
4.017,-4.99,4.43,2.03,-0.34,-0.34,-2.20,
4.018,-4.99,4.43,2.03,-0.33,-0.38,-2.18,
4.021,-4.99,4.43,2.03,-0.32,-0.42,-2.15,
4.023,-5.12,4.62,2.02,-0.32,-0.42,-2.15,
4.024,-5.12,4.62,2.02,-0.31,-0.46,-2.13,
4.026,-5.12,4.62,2.02,-0.30,-0.50,-2.10,
4.027,-5.31,4.77,2.00,-0.30,-0.50,-2.10,
4.028,-5.31,4.77,2.00,-0.30,-0.54,-2.08,
4.031,-5.31,4.77,2.00,-0.29,-0.57,-2.05,
4.031,-5.50,4.92,1.87,-0.29,-0.57,-2.05,
4.033,-5.50,4.92,1.87,-0.28,-0.60,-2.02,
4.036,-5.50,4.92,1.87,-0.27,-0.63,-1.98,
4.036,-5.76,5.05,1.76,-0.27,-0.63,-1.98,
4.038,-5.76,5.05,1.76,-0.25,-0.65,-1.95,
4.041,-6.04,5.19,1.61,-0.25,-0.65,-1.95,
4.041,-6.04,5.19,1.61,-0.24,-0.67,-1.91,
4.043,-6.04,5.19,1.61,-0.23,-0.69,-1.87,
4.046,-6.04,5.19,1.61,-0.22,-0.70,-1.82,
4.046,-6.33,5.29,1.46,-0.22,-0.70,-1.82,
4.048,-6.33,5.29,1.46,-0.20,-0.72,-1.77,
4.051,-6.33,5.29,1.46,-0.19,-0.73,-1.73,
4.051,-6.59,5.34,1.29,-0.19,-0.73,-1.73,
4.053,-6.59,5.34,1.29,-0.18,-0.73,-1.68,
4.056,-6.59,5.34,1.29,-0.16,-0.73,-1.64,
4.056,-6.83,5.38,1.12,-0.16,-0.73,-1.64,
4.058,-6.83,5.38,1.12,-0.15,-0.72,-1.59,
4.061,-6.83,5.38,1.12,-0.14,-0.71,-1.55,
4.061,-7.03,5.43,0.90,-0.14,-0.71,-1.55,
4.063,-7.03,5.43,0.90,-0.12,-0.70,-1.51,
4.066,-7.20,5.50,0.70,-0.12,-0.70,-1.51,
4.066,-7.20,5.50,0.70,-0.11,-0.68,-1.46,
4.068,-7.20,5.50,0.70,-0.10,-0.65,-1.42,
4.071,-7.20,5.50,0.70,-0.08,-0.62,-1.38,
4.071,-7.35,5.59,0.52,-0.08,-0.62,-1.38,
4.078,-7.35,5.59,0.52,-0.08,-0.59,-1.34,
4.079,-7.45,5.70,0.39,-0.08,-0.59,-1.34,
4.079,-7.45,5.70,0.39,-0.07,-0.56,-1.30,
4.079,-7.45,5.70,0.39,-0.06,-0.52,-1.26,
4.083,-7.53,5.85,0.29,-0.06,-0.52,-1.26,
4.083,-7.53,5.85,0.29,-0.05,-0.48,-1.22,
4.084,-7.53,5.85,0.29,-0.04,-0.45,-1.18,
4.086,-7.53,5.85,0.29,-0.04,-0.40,-1.14,
4.086,-7.58,6.07,0.20,-0.04,-0.40,-1.14,
4.088,-7.58,6.07,0.20,-0.03,-0.36,-1.10,
4.108,-7.58,6.07,0.20,-0.03,-0.32,-1.06,
4.108,-7.69,6.30,0.17,-0.03,-0.32,-1.06,
4.108,-7.69,6.30,0.17,-0.03,-0.28,-1.01,
4.109,-7.82,6.57,0.14,-0.03,-0.28,-1.01,
4.109,-7.82,6.57,0.14,-0.03,-0.25,-0.97,
4.109,-7.82,6.57,0.14,-0.03,-0.21,-0.92,
4.109,-7.82,6.57,0.14,-0.03,-0.17,-0.86,
4.11,-7.98,6.78,0.17,-0.03,-0.17,-0.86,
4.11,-7.98,6.78,0.17,-0.04,-0.14,-0.81,
4.11,-7.98,6.78,0.17,-0.04,-0.11,-0.74,
4.11,-8.17,6.93,0.21,-0.04,-0.11,-0.74,
4.111,-8.17,6.93,0.21,-0.05,-0.08,-0.68,
4.111,-8.45,6.97,0.31,-0.05,-0.08,-0.68,
4.111,-8.45,6.97,0.31,-0.06,-0.05,-0.60,
4.116,-8.45,6.97,0.31,-0.07,-0.03,-0.52,
4.116,-8.45,6.97,0.31,-0.09,-0.02,-0.44,
4.117,-8.80,6.86,0.49,-0.09,-0.02,-0.44,
4.119,-8.80,6.86,0.49,-0.10,-0.01,-0.36,
4.121,-9.04,6.65,0.69,-0.10,-0.01,-0.36,
4.122,-9.04,6.65,0.69,-0.11,-0.02,-0.28,
4.123,-9.04,6.65,0.69,-0.11,-0.03,-0.20,
4.129,-9.22,6.35,0.89,-0.11,-0.03,-0.20,
4.129,-9.22,6.35,0.89,-0.12,-0.04,-0.12,
4.13,-9.22,6.35,0.89,-0.13,-0.07,-0.04,
4.13,-9.22,6.35,0.89,-0.13,-0.09,0.03,
4.13,-9.34,5.98,1.05,-0.13,-0.09,0.03,
4.134,-9.34,5.98,1.05,-0.14,-0.11,0.10,
4.135,-9.42,5.58,1.18,-0.14,-0.11,0.10,
4.135,-9.42,5.58,1.18,-0.14,-0.14,0.16,
4.137,-9.42,5.58,1.18,-0.14,-0.17,0.22,
4.141,-9.49,5.17,1.29,-0.14,-0.17,0.22,
4.142,-9.49,5.17,1.29,-0.13,-0.20,0.28,
4.143,-9.49,5.17,1.29,-0.13,-0.23,0.33,
4.145,-9.55,4.82,1.34,-0.13,-0.23,0.33,
4.145,-9.55,4.82,1.34,-0.12,-0.27,0.38,
4.147,-9.55,4.82,1.34,-0.12,-0.30,0.43,
4.15,-9.55,4.82,1.34,-0.11,-0.33,0.47,
4.15,-9.58,4.55,1.33,-0.11,-0.33,0.47,
4.153,-9.58,4.55,1.33,-0.10,-0.36,0.51,
4.155,-9.58,4.55,1.33,-0.10,-0.38,0.55,
4.155,-9.55,4.34,1.19,-0.10,-0.38,0.55,
4.158,-9.55,4.34,1.19,-0.09,-0.40,0.58,
4.16,-9.53,4.18,1.02,-0.09,-0.40,0.58,
4.162,-9.53,4.18,1.02,-0.09,-0.42,0.62,
4.163,-9.53,4.18,1.02,-0.10,-0.43,0.66,
4.165,-9.53,4.18,1.02,-0.10,-0.43,0.70,
4.165,-9.50,4.03,0.85,-0.10,-0.43,0.70,
4.167,-9.50,4.03,0.85,-0.11,-0.42,0.74,
4.17,-9.43,3.96,0.78,-0.11,-0.42,0.74,
4.17,-9.43,3.96,0.78,-0.12,-0.40,0.79,
4.173,-9.43,3.96,0.78,-0.13,-0.38,0.84,
4.178,-9.27,3.97,0.85,-0.13,-0.38,0.84,
4.178,-9.27,3.97,0.85,-0.13,-0.36,0.89,
4.178,-9.27,3.97,0.85,-0.13,-0.32,0.93,
4.18,-9.06,4.01,1.03,-0.13,-0.32,0.93,
4.18,-9.06,4.01,1.03,-0.12,-0.29,0.98,
4.185,-8.81,4.10,1.23,-0.12,-0.29,0.98,
4.185,-8.81,4.10,1.23,-0.11,-0.26,1.03,
4.186,-8.81,4.10,1.23,-0.09,-0.22,1.08,
4.187,-8.81,4.10,1.23,-0.07,-0.19,1.14,
4.19,-8.81,4.10,1.23,-0.05,-0.15,1.19,
4.19,-8.61,4.11,1.39,-0.05,-0.15,1.19,
4.193,-8.61,4.11,1.39,-0.02,-0.11,1.24,
4.194,-8.61,4.11,1.39,0.01,-0.07,1.30,
4.195,-8.44,4.12,1.50,0.01,-0.07,1.30,
4.197,-8.44,4.12,1.50,0.04,-0.03,1.36,
4.201,-8.44,4.12,1.50,0.07,0.01,1.42,
4.201,-8.25,4.01,1.58,0.07,0.01,1.42,
4.204,-8.25,4.01,1.58,0.10,0.05,1.48,
4.204,-8.25,4.01,1.58,0.13,0.09,1.54,
4.205,-8.04,3.83,1.68,0.13,0.09,1.54,
4.209,-8.04,3.83,1.68,0.16,0.12,1.60,
4.21,-8.04,3.83,1.68,0.19,0.17,1.67,
4.21,-7.80,3.60,1.75,0.19,0.17,1.67,
4.212,-7.80,3.60,1.75,0.22,0.21,1.73,
4.215,-7.80,3.60,1.75,0.25,0.25,1.79,
4.215,-7.58,3.31,1.85,0.25,0.25,1.79,
4.217,-7.58,3.31,1.85,0.29,0.29,1.84,
4.22,-7.58,3.31,1.85,0.32,0.33,1.90,
4.22,-7.34,2.91,1.95,0.32,0.33,1.90,
4.222,-7.34,2.91,1.95,0.35,0.37,1.95,
4.224,-7.09,2.49,2.05,0.35,0.37,1.95,
4.225,-7.09,2.49,2.05,0.38,0.41,2.00,
4.227,-7.09,2.49,2.05,0.42,0.44,2.05,
4.229,-7.09,2.49,2.05,0.45,0.48,2.09,
4.23,-6.85,2.06,2.17,0.45,0.48,2.09,
4.232,-6.85,2.06,2.17,0.49,0.51,2.12,
4.234,-6.85,2.06,2.17,0.52,0.54,2.16,
4.235,-6.63,1.68,2.28,0.52,0.54,2.16,
4.237,-6.63,1.68,2.28,0.56,0.57,2.19,
4.239,-6.63,1.68,2.28,0.59,0.61,2.22,
4.239,-6.38,1.30,2.38,0.59,0.61,2.22,
4.242,-6.38,1.30,2.38,0.63,0.64,2.24,
4.244,-6.38,1.30,2.38,0.66,0.67,2.27,
4.244,-6.16,0.95,2.46,0.66,0.67,2.27,
4.246,-6.16,0.95,2.46,0.70,0.70,2.29,
4.249,-6.16,0.95,2.46,0.73,0.72,2.30,
4.249,-5.95,0.63,2.54,0.73,0.72,2.30,
4.252,-5.95,0.63,2.54,0.77,0.75,2.32,
4.254,-5.76,0.36,2.60,0.77,0.75,2.32,
4.276,-5.76,0.36,2.60,0.80,0.77,2.33,
4.276,-5.76,0.36,2.60,0.84,0.79,2.34,
4.276,-5.76,0.36,2.60,0.87,0.81,2.35,
4.276,-5.61,0.13,2.65,0.87,0.81,2.35,
4.277,-5.61,0.13,2.65,0.90,0.83,2.35,
4.277,-5.61,0.13,2.65,0.93,0.85,2.36,
4.277,-5.48,-0.07,2.70,0.93,0.85,2.36,
4.277,-5.48,-0.07,2.70,0.96,0.87,2.37,
4.277,-5.48,-0.07,2.70,0.98,0.88,2.38,
4.277,-5.37,-0.26,2.76,0.98,0.88,2.38,
4.278,-5.37,-0.26,2.76,1.01,0.89,2.39,
4.278,-5.37,-0.26,2.76,1.04,0.91,2.39,
4.278,-5.27,-0.38,2.81,1.04,0.91,2.39,
4.278,-5.27,-0.38,2.81,1.07,0.91,2.40,
4.279,-5.27,-0.38,2.81,1.10,0.92,2.41,
4.28,-5.11,-0.43,2.90,1.10,0.92,2.41,
4.281,-5.11,-0.43,2.90,1.13,0.93,2.42,
4.284,-5.11,-0.43,2.90,1.16,0.94,2.43,
4.284,-4.95,-0.49,3.00,1.16,0.94,2.43,
4.286,-4.95,-0.49,3.00,1.19,0.95,2.44,
4.29,-4.95,-0.49,3.00,1.22,0.96,2.46,
4.29,-4.79,-0.49,3.11,1.22,0.96,2.46,
4.293,-4.79,-0.49,3.11,1.26,0.96,2.47,
4.295,-4.79,-0.49,3.11,1.29,0.97,2.49,
4.296,-4.66,-0.50,3.17,1.29,0.97,2.49,
4.298,-4.66,-0.50,3.17,1.32,0.97,2.51,
4.316,-4.66,-0.50,3.17,1.36,0.97,2.53,
4.316,-4.66,-0.50,3.17,1.40,0.97,2.55,
4.317,-4.66,-0.50,3.17,1.43,0.97,2.58,
4.317,-4.66,-0.50,3.17,1.47,0.98,2.60,
4.317,-4.48,-0.53,3.23,1.47,0.98,2.60,
4.318,-4.27,-0.55,3.26,1.47,0.98,2.60,
4.318,-4.27,-0.55,3.26,1.50,0.97,2.63,
4.319,-4.06,-0.57,3.25,1.50,0.97,2.63,
4.319,-4.06,-0.57,3.25,1.54,0.97,2.66,
4.32,-4.06,-0.57,3.25,1.58,0.97,2.68,
4.32,-3.83,-0.60,3.20,1.58,0.97,2.68,
4.321,-3.83,-0.60,3.20,1.61,0.97,2.71,
4.321,-3.83,-0.60,3.20,1.64,0.96,2.74,
4.321,-3.56,-0.68,3.11,1.64,0.96,2.74,
4.322,-3.56,-0.68,3.11,1.67,0.96,2.77,
4.333,-3.31,-0.78,2.97,1.67,0.96,2.77,
4.333,-3.31,-0.78,2.97,1.70,0.96,2.81,
4.334,-3.31,-0.78,2.97,1.73,0.95,2.84,
4.334,-3.31,-0.78,2.97,1.76,0.95,2.87,
4.334,-3.05,-0.92,2.84,1.76,0.95,2.87,
4.334,-3.05,-0.92,2.84,1.79,0.95,2.90,
4.334,-3.05,-0.92,2.84,1.82,0.95,2.93,
4.335,-2.81,-1.06,2.66,1.82,0.95,2.93,
4.338,-2.81,-1.06,2.66,1.84,0.95,2.96,
4.338,-2.58,-1.29,2.52,1.84,0.95,2.96,
4.339,-2.58,-1.29,2.52,1.86,0.96,2.99,
4.343,-2.58,-1.29,2.52,1.89,0.97,3.01,
4.344,-2.58,-1.29,2.52,1.91,0.98,3.05,
4.345,-2.35,-1.52,2.42,1.91,0.98,3.05,
4.346,-2.35,-1.52,2.42,1.94,0.99,3.07,
4.35,-2.35,-1.52,2.42,1.96,1.00,3.10,
4.35,-2.11,-1.79,2.34,1.96,1.00,3.10,
4.352,-2.11,-1.79,2.34,1.98,1.02,3.13,
4.355,-1.83,-2.07,2.27,1.98,1.02,3.13,
4.355,-1.83,-2.07,2.27,2.01,1.04,3.15,
4.357,-1.83,-2.07,2.27,2.03,1.06,3.18,
4.361,-1.83,-2.07,2.27,2.06,1.08,3.20,
4.361,-1.57,-2.36,2.20,2.06,1.08,3.20,
4.361,-1.57,-2.36,2.20,2.09,1.10,3.21,
4.364,-1.30,-2.67,2.10,2.09,1.10,3.21,
4.364,-1.30,-2.67,2.10,2.11,1.13,3.23,
4.366,-1.30,-2.67,2.10,2.14,1.15,3.25,
4.369,-1.30,-2.67,2.10,2.16,1.18,3.26,
4.369,-1.10,-2.96,1.99,2.16,1.18,3.26,
4.371,-1.10,-2.96,1.99,2.19,1.20,3.28,
4.373,-1.10,-2.96,1.99,2.21,1.23,3.29,
4.373,-0.94,-3.24,1.87,2.21,1.23,3.29,
4.385,-0.94,-3.24,1.87,2.24,1.25,3.30,
4.386,-0.94,-3.24,1.87,2.26,1.27,3.31,
4.386,-0.83,-3.52,1.75,2.26,1.27,3.31,
4.386,-0.83,-3.52,1.75,2.28,1.30,3.32,
4.386,-0.83,-3.52,1.75,2.30,1.32,3.33,
4.386,-0.70,-3.77,1.59,2.30,1.32,3.33,
4.386,-0.70,-3.77,1.59,2.32,1.33,3.33,
4.389,-0.70,-3.77,1.59,2.33,1.35,3.34,
4.389,-0.57,-3.97,1.41,2.33,1.35,3.34,
4.394,-0.57,-3.97,1.41,2.34,1.37,3.34,
4.394,-0.57,-3.97,1.41,2.35,1.38,3.34,
4.394,-0.41,-4.17,1.20,2.35,1.38,3.34,
4.395,-0.41,-4.17,1.20,2.35,1.39,3.34,
4.398,-0.41,-4.17,1.20,2.34,1.41,3.34,
4.398,-0.21,-4.37,0.93,2.34,1.41,3.34,
4.4,-0.21,-4.37,0.93,2.33,1.42,3.34,
4.403,-0.21,-4.37,0.93,2.32,1.44,3.33,
4.403,0.04,-4.51,0.70,2.32,1.44,3.33,
4.405,0.04,-4.51,0.70,2.30,1.46,3.32,
4.41,0.04,-4.51,0.70,2.27,1.47,3.31,
4.41,0.29,-4.70,0.44,2.27,1.47,3.31,
4.411,0.29,-4.70,0.44,2.23,1.49,3.30,
4.413,0.29,-4.70,0.44,2.19,1.51,3.29,
4.413,0.48,-4.86,0.21,2.19,1.51,3.29,
4.415,0.48,-4.86,0.21,2.15,1.53,3.28,
4.418,0.48,-4.86,0.21,2.09,1.55,3.26,
4.418,0.65,-5.00,0.05,2.09,1.55,3.26,
4.429,0.65,-5.00,0.05,2.03,1.56,3.25,
4.429,0.65,-5.00,0.05,1.97,1.57,3.23,
4.429,0.85,-5.12,-0.09,1.97,1.57,3.23,
4.43,0.85,-5.12,-0.09,1.90,1.57,3.21,
4.43,0.85,-5.12,-0.09,1.83,1.57,3.19,
4.43,1.06,-5.22,-0.18,1.83,1.57,3.19,
4.431,1.06,-5.22,-0.18,1.75,1.57,3.17,
4.433,1.26,-5.28,-0.18,1.75,1.57,3.17,
4.433,1.26,-5.28,-0.18,1.67,1.57,3.14,
4.435,1.26,-5.28,-0.18,1.59,1.57,3.11,
4.438,1.41,-5.36,-0.10,1.59,1.57,3.11,
4.438,1.41,-5.36,-0.10,1.51,1.56,3.08,
4.44,1.41,-5.36,-0.10,1.43,1.55,3.05,
4.444,1.52,-5.45,0.02,1.43,1.55,3.05,
4.444,1.52,-5.45,0.02,1.35,1.54,3.03,
4.445,1.52,-5.45,0.02,1.26,1.53,3.00,
4.447,1.52,-5.45,0.02,1.18,1.52,2.97,
4.448,1.63,-5.52,0.22,1.18,1.52,2.97,
4.45,1.63,-5.52,0.22,1.11,1.51,2.93,
4.453,1.63,-5.52,0.22,1.03,1.49,2.90,
4.453,1.74,-5.54,0.45,1.03,1.49,2.90,
4.455,1.74,-5.54,0.45,0.95,1.46,2.87,
4.461,1.74,-5.54,0.45,0.88,1.44,2.84,
4.461,1.79,-5.62,0.69,0.88,1.44,2.84,
4.461,1.79,-5.62,0.69,0.81,1.41,2.81,
4.463,1.79,-5.62,0.69,0.74,1.39,2.78,
4.463,1.86,-5.71,0.96,0.74,1.39,2.78,
4.465,1.86,-5.71,0.96,0.68,1.36,2.75,
4.467,1.95,-5.76,1.21,0.68,1.36,2.75,
4.468,1.95,-5.76,1.21,0.62,1.33,2.71,
4.47,1.95,-5.76,1.21,0.56,1.30,2.68,
4.473,1.95,-5.76,1.21,0.50,1.27,2.65,
4.473,2.01,-5.83,1.42,0.50,1.27,2.65,
4.481,2.01,-5.83,1.42,0.45,1.24,2.62,
4.482,2.01,-5.83,1.42,0.40,1.20,2.59,
4.482,2.05,-5.87,1.62,0.40,1.20,2.59,
4.482,2.05,-5.87,1.62,0.35,1.18,2.56,
4.487,2.18,-5.85,1.82,0.35,1.18,2.56,
4.488,2.18,-5.85,1.82,0.30,1.14,2.53,
4.488,2.18,-5.85,1.82,0.26,1.11,2.51,
4.488,2.18,-5.85,1.82,0.22,1.08,2.48,
4.488,2.27,-5.84,2.01,0.22,1.08,2.48,
4.489,2.27,-5.84,2.01,0.18,1.06,2.46,
4.492,2.35,-5.84,2.22,0.18,1.06,2.46,
4.493,2.35,-5.84,2.22,0.14,1.03,2.44,
4.496,2.35,-5.84,2.22,0.11,0.99,2.41,
4.497,2.35,-5.84,2.22,0.08,0.95,2.39,
4.497,2.45,-5.83,2.42,0.08,0.95,2.39,
4.499,2.45,-5.83,2.42,0.06,0.91,2.36,
4.502,2.45,-5.83,2.42,0.03,0.87,2.34,
4.502,2.53,-5.83,2.63,0.03,0.87,2.34,
4.504,2.53,-5.83,2.63,0.02,0.82,2.31,
4.507,2.53,-5.83,2.63,-0.00,0.78,2.29,
4.507,2.64,-5.79,2.75,-0.00,0.78,2.29,
4.512,2.64,-5.79,2.75,-0.02,0.74,2.27,
4.512,2.64,-5.79,2.75,-0.03,0.70,2.24,
4.512,2.72,-5.79,2.83,-0.03,0.70,2.24,
4.514,2.72,-5.79,2.83,-0.05,0.66,2.22,
4.517,2.72,-5.79,2.83,-0.06,0.61,2.20,
4.517,2.81,-5.80,2.87,-0.06,0.61,2.20,
4.519,2.81,-5.80,2.87,-0.07,0.57,2.18,
4.522,2.81,-5.80,2.87,-0.08,0.52,2.16,
4.522,2.91,-5.82,2.89,-0.08,0.52,2.16,
4.524,2.91,-5.82,2.89,-0.09,0.47,2.14,
4.527,2.91,-5.82,2.89,-0.10,0.42,2.12,
4.527,2.97,-5.83,2.87,-0.10,0.42,2.12,
4.529,2.97,-5.83,2.87,-0.11,0.37,2.10,
4.532,2.97,-5.83,2.87,-0.12,0.32,2.08,
4.532,3.00,-5.81,2.82,-0.12,0.32,2.08,
4.535,3.00,-5.81,2.82,-0.13,0.27,2.06,
4.537,3.00,-5.81,2.82,-0.14,0.22,2.04,
4.537,3.06,-5.82,2.74,-0.14,0.22,2.04,
4.54,3.06,-5.82,2.74,-0.15,0.17,2.02,
4.543,3.18,-5.83,2.61,-0.15,0.17,2.02,
4.543,3.18,-5.83,2.61,-0.16,0.12,2.00,
4.544,3.18,-5.83,2.61,-0.17,0.07,1.98,
4.547,3.18,-5.83,2.61,-0.18,0.02,1.96,
4.547,3.35,-5.86,2.46,-0.18,0.02,1.96,
4.549,3.35,-5.86,2.46,-0.20,-0.02,1.94,
4.551,3.35,-5.86,2.46,-0.22,-0.06,1.92,
4.551,3.50,-5.90,2.26,-0.22,-0.06,1.92,
4.554,3.50,-5.90,2.26,-0.24,-0.10,1.89,
4.556,3.50,-5.90,2.26,-0.27,-0.14,1.87,
4.556,3.70,-5.95,2.07,-0.27,-0.14,1.87,
4.559,3.70,-5.95,2.07,-0.30,-0.18,1.84,
4.562,3.70,-5.95,2.07,-0.33,-0.21,1.82,
4.562,3.88,-5.98,1.87,-0.33,-0.21,1.82,
4.565,3.88,-5.98,1.87,-0.36,-0.25,1.79,
4.567,3.88,-5.98,1.87,-0.40,-0.28,1.77,
4.567,4.08,-6.00,1.70,-0.40,-0.28,1.77,
4.572,4.08,-6.00,1.70,-0.44,-0.30,1.75,
4.572,4.08,-6.00,1.70,-0.48,-0.33,1.72,
4.572,4.20,-6.05,1.59,-0.48,-0.33,1.72,
4.575,4.20,-6.05,1.59,-0.52,-0.35,1.70,
4.578,4.33,-6.16,1.51,-0.52,-0.35,1.70,
4.58,4.33,-6.16,1.51,-0.56,-0.38,1.68,
4.58,4.33,-6.16,1.51,-0.61,-0.40,1.65,
4.581,4.33,-6.16,1.51,-0.65,-0.42,1.63,
4.582,4.48,-6.24,1.48,-0.65,-0.42,1.63,
4.585,4.48,-6.24,1.48,-0.70,-0.44,1.60,
4.61,4.48,-6.24,1.48,-0.74,-0.47,1.58,
4.61,4.60,-6.32,1.52,-0.74,-0.47,1.58,
4.61,4.60,-6.32,1.52,-0.78,-0.49,1.55,
4.611,4.76,-6.41,1.53,-0.78,-0.49,1.55,
4.611,4.76,-6.41,1.53,-0.82,-0.51,1.52,
4.611,4.76,-6.41,1.53,-0.86,-0.53,1.49,
4.611,4.76,-6.41,1.53,-0.89,-0.55,1.46,
4.611,4.93,-6.51,1.54,-0.89,-0.55,1.46,
4.611,4.93,-6.51,1.54,-0.93,-0.57,1.42,
4.612,4.93,-6.51,1.54,-0.96,-0.58,1.39,
4.612,5.08,-6.64,1.59,-0.96,-0.58,1.39,
4.612,5.08,-6.64,1.59,-0.99,-0.60,1.35,
4.612,5.08,-6.64,1.59,-1.02,-0.61,1.31,
4.612,5.19,-6.78,1.63,-1.02,-0.61,1.31,
4.613,5.19,-6.78,1.63,-1.05,-0.63,1.27,
4.613,5.36,-6.90,1.69,-1.05,-0.63,1.27,
4.613,5.36,-6.90,1.69,-1.08,-0.64,1.23,
4.616,5.36,-6.90,1.69,-1.10,-0.65,1.18,
4.617,5.36,-6.90,1.69,-1.12,-0.67,1.13,
4.618,5.51,-6.99,1.79,-1.12,-0.67,1.13,
4.618,5.51,-6.99,1.79,-1.13,-0.68,1.09,
4.621,5.51,-6.99,1.79,-1.14,-0.70,1.03,
4.621,5.71,-7.07,1.91,-1.14,-0.70,1.03,
4.623,5.71,-7.07,1.91,-1.15,-0.72,0.98,
4.626,5.85,-7.14,2.03,-1.15,-0.72,0.98,
4.628,5.85,-7.14,2.03,-1.15,-0.73,0.92,
4.628,5.85,-7.14,2.03,-1.15,-0.75,0.86,
4.631,5.99,-7.22,2.12,-1.15,-0.75,0.86,
4.631,5.99,-7.22,2.12,-1.14,-0.76,0.80,
4.633,5.99,-7.22,2.12,-1.13,-0.78,0.74,
4.635,5.99,-7.22,2.12,-1.11,-0.79,0.68,
4.636,6.09,-7.33,2.21,-1.11,-0.79,0.68,
4.638,6.09,-7.33,2.21,-1.09,-0.80,0.62,
4.64,6.09,-7.33,2.21,-1.06,-0.80,0.56,
4.641,6.11,-7.44,2.21,-1.06,-0.80,0.56,
4.643,6.11,-7.44,2.21,-1.03,-0.80,0.50,
4.646,6.11,-7.44,2.21,-1.01,-0.80,0.43,
4.646,6.04,-7.61,2.18,-1.01,-0.80,0.43,
4.648,6.04,-7.61,2.18,-0.97,-0.80,0.37,
4.65,6.04,-7.61,2.18,-0.94,-0.79,0.31,
4.65,5.91,-7.88,2.11,-0.94,-0.79,0.31,
4.653,5.91,-7.88,2.11,-0.91,-0.79,0.24,
4.656,5.91,-7.88,2.11,-0.87,-0.78,0.18,
4.656,5.74,-8.20,1.99,-0.87,-0.78,0.18,
4.658,5.74,-8.20,1.99,-0.84,-0.76,0.11,
4.664,5.50,-8.55,1.91,-0.84,-0.76,0.11,
4.665,5.50,-8.55,1.91,-0.80,-0.74,0.04,
4.665,5.50,-8.55,1.91,-0.77,-0.72,-0.03,
4.667,5.12,-8.93,1.76,-0.77,-0.72,-0.03,
4.667,5.12,-8.93,1.76,-0.73,-0.70,-0.10,
4.669,5.12,-8.93,1.76,-0.69,-0.68,-0.17,
4.67,5.12,-8.93,1.76,-0.66,-0.64,-0.24,
4.671,4.58,-9.43,1.54,-0.66,-0.64,-0.24,
4.673,4.58,-9.43,1.54,-0.62,-0.61,-0.30,
4.676,4.01,-10.02,1.33,-0.62,-0.61,-0.30,
4.676,4.01,-10.02,1.33,-0.59,-0.57,-0.37,
4.678,4.01,-10.02,1.33,-0.57,-0.53,-0.44,
4.681,3.59,-10.60,1.14,-0.57,-0.53,-0.44,
4.682,3.59,-10.60,1.14,-0.54,-0.50,-0.52,
4.683,3.59,-10.60,1.14,-0.51,-0.46,-0.60,
4.685,3.59,-10.60,1.14,-0.49,-0.43,-0.70,
4.685,3.42,-11.00,1.03,-0.49,-0.43,-0.70,
4.688,3.42,-11.00,1.03,-0.46,-0.40,-0.80,
4.69,3.42,-11.00,1.03,-0.45,-0.37,-0.91,
4.69,3.37,-11.20,0.94,-0.45,-0.37,-0.91,
4.699,3.37,-11.20,0.94,-0.43,-0.35,-1.02,
4.7,3.37,-11.20,0.94,-0.41,-0.32,-1.15,
4.7,3.46,-11.13,0.86,-0.41,-0.32,-1.15,
4.7,3.46,-11.13,0.86,-0.40,-0.30,-1.28,
4.702,3.46,-11.13,0.86,-0.39,-0.28,-1.41,
4.702,3.64,-10.88,0.61,-0.39,-0.28,-1.41,
4.703,3.64,-10.88,0.61,-0.39,-0.26,-1.54,
4.706,3.68,-10.48,0.38,-0.39,-0.26,-1.54,
4.707,3.68,-10.48,0.38,-0.40,-0.23,-1.67,
4.708,3.68,-10.48,0.38,-0.41,-0.19,-1.79,
4.719,3.68,-10.48,0.38,-0.43,-0.15,-1.89,
4.72,3.57,-9.96,0.23,-0.43,-0.15,-1.89,
4.72,3.57,-9.96,0.23,-0.45,-0.12,-1.99,
4.72,3.44,-9.43,0.26,-0.45,-0.12,-1.99,
4.721,3.44,-9.43,0.26,-0.46,-0.08,-2.08,
4.721,3.44,-9.43,0.26,-0.48,-0.04,-2.17,
4.722,3.44,-9.43,0.26,-0.49,-0.01,-2.25,
4.722,3.41,-8.92,0.33,-0.49,-0.01,-2.25,
4.723,3.41,-8.92,0.33,-0.50,0.02,-2.33,
4.725,3.41,-8.92,0.33,-0.51,0.05,-2.41,
4.726,3.33,-8.52,0.47,-0.51,0.05,-2.41,
4.73,3.33,-8.52,0.47,-0.51,0.07,-2.49,
4.731,3.33,-8.52,0.47,-0.51,0.09,-2.56,
4.731,3.03,-8.17,0.62,-0.51,0.09,-2.56,
4.733,3.03,-8.17,0.62,-0.51,0.11,-2.63,
4.735,2.63,-7.81,0.75,-0.51,0.11,-2.63,
4.735,2.63,-7.81,0.75,-0.50,0.13,-2.69,
4.737,2.63,-7.81,0.75,-0.49,0.14,-2.74,
4.74,2.63,-7.81,0.75,-0.47,0.14,-2.78,
4.74,2.19,-7.40,0.93,-0.47,0.14,-2.78,
4.743,2.19,-7.40,0.93,-0.45,0.14,-2.82,
4.745,2.19,-7.40,0.93,-0.41,0.13,-2.85,
4.745,1.66,-6.96,1.10,-0.41,0.13,-2.85,
4.747,1.66,-6.96,1.10,-0.36,0.11,-2.87,
4.75,1.66,-6.96,1.10,-0.30,0.09,-2.88,
4.775,1.01,-6.56,1.26,-0.30,0.09,-2.88,
4.775,1.01,-6.56,1.26,-0.23,0.06,-2.88,
4.776,1.01,-6.56,1.26,-0.14,0.02,-2.88,
4.776,0.31,-6.15,1.34,-0.14,0.02,-2.88,
4.776,0.31,-6.15,1.34,-0.05,-0.02,-2.87,
4.776,0.31,-6.15,1.34,0.05,-0.06,-2.85,
4.777,-0.23,-5.72,1.18,0.05,-0.06,-2.85,
4.777,-0.23,-5.72,1.18,0.16,-0.10,-2.83,
4.777,-0.23,-5.72,1.18,0.27,-0.14,-2.81,
4.777,-0.53,-5.28,0.72,0.27,-0.14,-2.81,
4.778,-0.53,-5.28,0.72,0.38,-0.17,-2.79,
4.778,-0.53,-5.28,0.72,0.48,-0.20,-2.76,
4.778,-0.69,-4.91,-0.07,0.48,-0.20,-2.76,
4.778,-0.69,-4.91,-0.07,0.57,-0.21,-2.73,
4.779,-0.69,-4.66,-1.16,0.57,-0.21,-2.73,
4.779,-0.69,-4.66,-1.16,0.64,-0.22,-2.70,
4.779,-0.69,-4.66,-1.16,0.70,-0.20,-2.66,
4.781,-0.54,-4.58,-2.31,0.70,-0.20,-2.66,
4.781,-0.54,-4.58,-2.31,0.74,-0.18,-2.62,
4.782,-0.54,-4.58,-2.31,0.76,-0.13,-2.58,
4.785,-0.54,-4.58,-2.31,0.77,-0.08,-2.54,
4.786,-0.35,-4.59,-3.44,0.77,-0.08,-2.54,
4.788,-0.35,-4.59,-3.44,0.75,-0.00,-2.50,
4.79,-0.25,-4.65,-4.30,0.75,-0.00,-2.50,
4.791,-0.25,-4.65,-4.30,0.73,0.08,-2.46,
4.792,-0.25,-4.65,-4.30,0.70,0.16,-2.43,
4.794,-0.25,-4.65,-4.30,0.65,0.24,-2.40,
4.795,-0.15,-4.77,-4.86,0.65,0.24,-2.40,
4.796,-0.15,-4.77,-4.86,0.60,0.32,-2.38,
4.799,-0.07,-4.93,-5.18,0.60,0.32,-2.38,
4.799,-0.07,-4.93,-5.18,0.55,0.39,-2.37,
4.802,-0.07,-4.93,-5.18,0.49,0.46,-2.36,
4.804,-0.07,-4.93,-5.18,0.42,0.51,-2.37,
4.804,0.02,-5.07,-5.29,0.42,0.51,-2.37,
4.807,0.02,-5.07,-5.29,0.35,0.56,-2.37,
4.814,0.02,-5.07,-5.29,0.28,0.60,-2.39,
4.814,0.02,-5.13,-5.20,0.28,0.60,-2.39,
4.815,0.02,-5.13,-5.20,0.20,0.64,-2.40,
4.815,0.02,-5.13,-5.20,0.13,0.66,-2.42,
4.815,-0.08,-5.11,-4.98,0.13,0.66,-2.42,
4.816,-0.08,-5.11,-4.98,0.05,0.68,-2.44,
4.819,-0.08,-5.11,-4.98,-0.02,0.69,-2.46,
4.82,-0.22,-5.00,-4.63,-0.02,0.69,-2.46,
4.823,-0.22,-5.00,-4.63,-0.09,0.69,-2.48,
4.825,-0.22,-5.00,-4.63,-0.16,0.68,-2.50,
4.826,-0.40,-4.84,-4.21,-0.16,0.68,-2.50,
4.828,-0.40,-4.84,-4.21,-0.23,0.67,-2.51,
4.829,-0.63,-4.64,-3.79,-0.23,0.67,-2.51,
4.829,-0.63,-4.64,-3.79,-0.29,0.65,-2.52,
4.832,-0.63,-4.64,-3.79,-0.35,0.62,-2.54,
4.835,-0.63,-4.64,-3.79,-0.42,0.58,-2.54,
4.835,-0.85,-4.45,-3.40,-0.42,0.58,-2.54,
4.837,-0.85,-4.45,-3.40,-0.48,0.54,-2.55,
4.839,-0.85,-4.45,-3.40,-0.54,0.50,-2.55,
4.839,-1.03,-4.29,-3.04,-0.54,0.50,-2.55,
4.842,-1.03,-4.29,-3.04,-0.60,0.45,-2.55,
4.844,-1.13,-4.16,-2.71,-0.60,0.45,-2.55,
4.845,-1.13,-4.16,-2.71,-0.66,0.40,-2.55,
4.846,-1.13,-4.16,-2.71,-0.73,0.34,-2.55,
4.849,-1.13,-4.16,-2.71,-0.79,0.29,-2.55,
4.849,-1.21,-4.05,-2.41,-0.79,0.29,-2.55,
4.851,-1.21,-4.05,-2.41,-0.86,0.23,-2.55,
4.854,-1.21,-4.05,-2.41,-0.92,0.17,-2.55,
4.854,-1.24,-3.98,-2.13,-0.92,0.17,-2.55,
4.856,-1.24,-3.98,-2.13,-0.99,0.10,-2.55,
4.86,-1.24,-3.87,-1.82,-0.99,0.10,-2.55,
4.861,-1.24,-3.87,-1.82,-1.05,0.03,-2.56,
4.861,-1.24,-3.87,-1.82,-1.12,-0.04,-2.57,
4.864,-1.24,-3.87,-1.82,-1.18,-0.12,-2.58,
4.864,-1.20,-3.78,-1.52,-1.18,-0.12,-2.58,
4.866,-1.20,-3.78,-1.52,-1.24,-0.20,-2.60,
4.869,-1.20,-3.78,-1.52,-1.30,-0.28,-2.61,
4.869,-1.16,-3.69,-1.21,-1.30,-0.28,-2.61,
4.871,-1.16,-3.69,-1.21,-1.36,-0.37,-2.63,
4.874,-1.16,-3.69,-1.21,-1.41,-0.46,-2.66,
4.874,-1.13,-3.56,-0.93,-1.41,-0.46,-2.66,
4.886,-1.13,-3.56,-0.93,-1.46,-0.55,-2.68,
4.886,-1.13,-3.56,-0.93,-1.50,-0.64,-2.70,
4.887,-1.14,-3.38,-0.74,-1.50,-0.64,-2.70,
4.887,-1.14,-3.38,-0.74,-1.55,-0.73,-2.73,
4.888,-1.17,-3.16,-0.56,-1.55,-0.73,-2.73,
4.888,-1.17,-3.16,-0.56,-1.58,-0.81,-2.76,
4.888,-1.17,-3.16,-0.56,-1.61,-0.89,-2.79,
4.889,-1.17,-2.89,-0.38,-1.61,-0.89,-2.79,
4.89,-1.17,-2.89,-0.38,-1.64,-0.97,-2.81,
4.891,-1.17,-2.89,-0.38,-1.67,-1.05,-2.85,
4.897,-1.25,-2.58,-0.24,-1.67,-1.05,-2.85,
4.898,-1.25,-2.58,-0.24,-1.69,-1.12,-2.87,
4.898,-1.25,-2.58,-0.24,-1.70,-1.19,-2.90,
4.899,-1.40,-2.30,-0.21,-1.70,-1.19,-2.90,
4.899,-1.40,-2.30,-0.21,-1.71,-1.26,-2.92,
4.901,-1.40,-2.30,-0.21,-1.72,-1.32,-2.94,
4.903,-1.40,-2.30,-0.21,-1.73,-1.37,-2.95,
4.904,-1.57,-2.01,-0.17,-1.73,-1.37,-2.95,
4.906,-1.57,-2.01,-0.17,-1.74,-1.42,-2.96,
4.909,-1.57,-2.01,-0.17,-1.74,-1.46,-2.97,
4.909,-1.77,-1.75,-0.14,-1.74,-1.46,-2.97,
4.912,-1.77,-1.75,-0.14,-1.75,-1.49,-2.97,
4.913,-1.77,-1.75,-0.14,-1.74,-1.51,-2.97,
4.914,-1.92,-1.42,-0.10,-1.74,-1.51,-2.97,
4.929,-1.92,-1.42,-0.10,-1.74,-1.53,-2.97,
4.929,-1.92,-1.42,-0.10,-1.73,-1.53,-2.96,
4.929,-2.05,-1.09,-0.04,-1.73,-1.53,-2.96,
4.93,-2.05,-1.09,-0.04,-1.72,-1.53,-2.95,
4.93,-2.18,-0.84,0.00,-1.72,-1.53,-2.95,
4.93,-2.18,-0.84,0.00,-1.71,-1.52,-2.93,
4.93,-2.18,-0.84,0.00,-1.70,-1.50,-2.92,
4.93,-2.18,-0.84,0.00,-1.68,-1.47,-2.90,
4.931,-2.26,-0.61,-0.03,-1.68,-1.47,-2.90,
4.931,-2.26,-0.61,-0.03,-1.67,-1.44,-2.88,
