
time,ax,ay,az,wx,wy,wz,
0.008,-0.18,0.01,0.10,0.01,-0.06,0.01,
0.008,-0.18,0.01,0.10,0.01,-0.07,0.01,
0.008,-0.04,-0.10,0.07,0.01,-0.07,0.01,
0.008,-0.04,-0.10,0.07,0.01,-0.08,0.01,
0.008,-0.04,-0.10,0.07,0.01,-0.08,0.01,
0.009,0.10,-0.08,-0.03,0.01,-0.08,0.01,
0.009,0.10,-0.08,-0.03,0.01,-0.08,0.01,
0.009,0.10,-0.08,-0.03,0.01,-0.07,0.01,
0.009,0.15,-0.01,-0.08,0.01,-0.07,0.01,
0.011,0.15,-0.01,-0.08,0.01,-0.06,0.01,
0.013,0.15,-0.01,-0.08,0.01,-0.06,0.01,
0.013,0.11,0.02,-0.03,0.01,-0.06,0.01,
0.015,0.11,0.02,-0.03,0.01,-0.05,0.01,
0.018,0.11,0.02,-0.03,0.01,-0.04,0.00,
0.018,0.01,0.02,0.00,0.01,-0.04,0.00,
0.02,0.01,0.02,0.00,0.01,-0.04,0.00,
0.024,0.01,0.02,0.00,0.02,-0.03,0.00,
0.024,-0.10,0.03,-0.03,0.02,-0.03,0.00,
0.025,-0.10,0.03,-0.03,0.02,-0.03,0.01,
0.029,-0.10,0.03,-0.03,0.01,-0.03,0.01,
0.03,-0.06,0.07,-0.10,0.01,-0.03,0.01,
0.03,-0.06,0.07,-0.10,0.01,-0.03,0.01,
0.033,-0.06,0.07,-0.10,0.01,-0.03,0.01,
0.034,0.11,0.08,-0.15,0.01,-0.03,0.01,
0.035,0.11,0.08,-0.15,0.01,-0.02,0.01,
0.038,0.11,0.08,-0.15,0.01,-0.01,0.00,
0.038,0.27,0.09,-0.12,0.01,-0.01,0.00,
0.04,0.27,0.09,-0.12,0.01,-0.00,-0.00,
0.043,0.27,0.09,-0.12,0.01,0.01,-0.00,
0.043,0.31,0.05,-0.11,0.01,0.01,-0.00,
0.046,0.31,0.05,-0.11,0.01,0.02,-0.01,
0.048,0.31,0.05,-0.11,0.01,0.03,-0.01,
0.048,0.30,-0.00,-0.14,0.01,0.03,-0.01,
0.05,0.30,-0.00,-0.14,0.00,0.04,-0.02,
0.053,0.30,-0.00,-0.14,0.00,0.05,-0.02,
0.053,0.23,-0.04,-0.13,0.00,0.05,-0.02,
0.055,0.23,-0.04,-0.13,0.00,0.05,-0.02,
0.058,0.23,-0.04,-0.13,0.00,0.06,-0.02,
0.058,0.11,-0.06,-0.12,0.00,0.06,-0.02,
0.061,0.11,-0.06,-0.12,-0.00,0.06,-0.03,
0.071,0.11,-0.06,-0.12,-0.00,0.06,-0.03,
0.071,0.08,-0.02,-0.09,-0.00,0.06,-0.03,
0.072,0.08,-0.02,-0.09,-0.00,0.06,-0.03,
0.072,0.07,0.01,-0.06,-0.00,0.06,-0.03,
0.072,0.07,0.01,-0.06,-0.01,0.05,-0.03,
0.072,0.07,0.01,-0.06,-0.01,0.05,-0.03,
0.073,0.07,0.01,-0.06,-0.01,0.05,-0.04,
0.073,0.05,0.05,-0.06,-0.01,0.05,-0.04,
0.075,0.05,0.05,-0.06,-0.01,0.04,-0.03,
0.078,0.12,0.09,-0.08,-0.01,0.04,-0.03,
0.078,0.12,0.09,-0.08,-0.01,0.04,-0.04,
0.081,0.12,0.09,-0.08,-0.01,0.05,-0.04,
0.085,0.21,0.11,-0.07,-0.01,0.05,-0.04,
0.085,0.21,0.11,-0.07,-0.01,0.05,-0.04,
0.086,0.21,0.11,-0.07,-0.01,0.06,-0.05,
0.088,0.21,0.11,-0.07,-0.00,0.06,-0.05,
0.088,0.21,0.16,0.00,-0.00,0.06,-0.05,
0.09,0.21,0.16,0.00,-0.00,0.06,-0.05,
0.093,0.21,0.16,0.00,0.00,0.07,-0.05,
0.093,0.04,0.16,0.05,0.00,0.07,-0.05,
0.1,0.04,0.16,0.05,0.00,0.07,-0.04,
0.103,0.04,0.16,0.05,0.00,0.06,-0.04,
0.103,-0.06,0.19,0.21,0.00,0.06,-0.04,
0.103,-0.06,0.19,0.21,0.01,0.05,-0.05,
0.105,-0.06,0.19,0.21,0.01,0.04,-0.05,
0.105,-0.04,0.29,0.26,0.01,0.04,-0.05,
0.105,-0.04,0.29,0.26,0.02,0.02,-0.04,
0.107,0.01,0.33,0.14,0.02,0.02,-0.04,
0.107,0.01,0.33,0.14,0.02,0.01,-0.04,
0.109,0.01,0.33,0.14,0.02,0.00,-0.04,
0.113,0.18,0.27,-0.01,0.02,0.00,-0.04,
0.114,0.18,0.27,-0.01,0.02,-0.00,-0.05,
0.115,0.18,0.27,-0.01,0.02,0.00,-0.05,
0.117,0.33,0.13,-0.17,0.02,0.00,-0.05,
0.117,0.33,0.13,-0.17,0.02,0.01,-0.06,
0.119,0.33,0.13,-0.17,0.02,0.02,-0.07,
0.123,0.33,0.13,-0.17,0.02,0.03,-0.08,
0.123,0.46,-0.02,-0.24,0.02,0.03,-0.08,
0.125,0.46,-0.02,-0.24,0.01,0.04,-0.08,
0.127,0.46,-0.02,-0.24,0.01,0.05,-0.09,
0.127,0.63,-0.16,-0.17,0.01,0.05,-0.09,
0.13,0.63,-0.16,-0.17,0.01,0.06,-0.10,
0.132,0.63,-0.16,-0.17,0.01,0.08,-0.11,
0.132,0.68,-0.28,-0.09,0.01,0.08,-0.11,
0.134,0.68,-0.28,-0.09,0.01,0.10,-0.12,
0.137,0.68,-0.28,-0.09,0.01,0.11,-0.13,
0.137,0.65,-0.31,-0.02,0.01,0.11,-0.13,
0.139,0.65,-0.31,-0.02,0.01,0.13,-0.14,
0.142,0.65,-0.31,-0.02,0.01,0.14,-0.14,
0.142,0.36,-0.26,0.01,0.01,0.14,-0.14,
0.145,0.36,-0.26,0.01,0.01,0.15,-0.14,
0.149,0.02,-0.11,0.13,0.01,0.15,-0.14,
0.149,0.02,-0.11,0.13,0.02,0.16,-0.14,
0.149,0.02,-0.11,0.13,0.02,0.15,-0.13,
0.152,-0.09,-0.03,0.02,0.02,0.15,-0.13,
0.153,-0.09,-0.03,0.02,0.02,0.15,-0.13,
0.155,-0.09,-0.03,0.02,0.02,0.14,-0.13,
0.157,-0.09,-0.03,0.02,0.01,0.13,-0.14,
0.157,-0.01,-0.10,-0.05,0.01,0.13,-0.14,
0.16,-0.01,-0.10,-0.05,0.01,0.11,-0.14,
0.163,-0.07,-0.03,0.05,0.01,0.11,-0.14,
0.163,-0.07,-0.03,0.05,0.01,0.10,-0.15,
0.164,-0.07,-0.03,0.05,0.01,0.10,-0.14,
0.167,-0.07,-0.03,0.05,0.01,0.09,-0.13,
0.167,-0.51,-0.22,0.04,0.01,0.09,-0.13,
0.169,-0.51,-0.22,0.04,0.02,0.10,-0.12,
0.172,-0.51,-0.22,0.04,0.02,0.08,-0.12,
0.172,-0.24,-0.05,0.41,0.02,0.08,-0.12,
0.174,-0.24,-0.05,0.41,0.03,0.05,-0.12,
0.184,-0.24,-0.05,0.41,0.03,0.03,-0.12,
0.185,-0.10,0.24,0.30,0.03,0.03,-0.12,
0.185,-0.10,0.24,0.30,0.03,0.03,-0.12,
0.185,-0.10,0.24,0.30,0.03,0.03,-0.13,
0.185,0.26,0.33,-0.13,0.03,0.03,-0.13,
0.186,0.26,0.33,-0.13,0.03,0.04,-0.13,
0.187,0.26,0.33,-0.13,0.03,0.04,-0.13,
0.187,0.08,0.73,0.17,0.03,0.04,-0.13,
0.189,0.08,0.73,0.17,0.04,0.04,-0.11,
0.192,0.08,0.73,0.17,0.04,0.05,-0.10,
0.192,-0.66,0.89,-0.21,0.04,0.05,-0.10,
0.194,-0.66,0.89,-0.21,0.02,0.09,-0.07,
0.197,-0.66,0.89,-0.21,-0.02,0.14,-0.04,
0.197,-1.26,0.57,-2.29,-0.02,0.14,-0.04,
0.199,-1.26,0.57,-2.29,-0.08,0.18,-0.02,
0.202,-1.26,0.57,-2.29,-0.15,0.21,0.00,
0.202,-1.14,-0.27,-3.15,-0.15,0.21,0.00,
0.204,-1.14,-0.27,-3.15,-0.21,0.26,0.03,
0.207,-1.14,-0.27,-3.15,-0.26,0.33,0.06,
0.208,-1.30,-0.82,-1.91,-0.26,0.33,0.06,
0.209,-1.30,-0.82,-1.91,-0.27,0.41,0.09,
0.211,-1.30,-0.82,-1.91,-0.24,0.47,0.10,
0.211,-0.33,-0.81,1.01,-0.24,0.47,0.10,
0.214,-0.33,-0.81,1.01,-0.19,0.46,0.10,
0.216,-0.33,-0.81,1.01,-0.12,0.35,0.08,
0.217,0.84,-0.62,3.96,-0.12,0.35,0.08,
0.219,0.84,-0.62,3.96,-0.05,0.17,0.05,
0.221,0.84,-0.62,3.96,0.02,-0.03,0.02,
0.221,0.73,-0.46,3.88,0.02,-0.03,0.02,
0.223,0.73,-0.46,3.88,0.06,-0.18,-0.01,
0.226,0.73,-0.46,3.88,0.08,-0.25,-0.03,
0.227,0.16,-0.21,1.23,0.08,-0.25,-0.03,
0.228,0.16,-0.21,1.23,0.08,-0.27,-0.03,
0.231,0.16,-0.21,1.23,0.07,-0.25,-0.03,
0.231,-0.09,0.22,-0.69,0.07,-0.25,-0.03,
0.233,-0.09,0.22,-0.69,0.05,-0.22,-0.01,
0.236,-0.09,0.22,-0.69,0.02,-0.18,0.00,
0.236,-0.08,0.14,-1.22,0.02,-0.18,0.00,
0.238,-0.08,0.14,-1.22,0.01,-0.15,0.01,
0.241,-0.08,0.14,-1.22,0.00,-0.12,0.01,
0.241,0.25,-0.09,-0.53,0.00,-0.12,0.01,
0.243,0.25,-0.09,-0.53,0.00,-0.10,0.00,
0.248,0.21,-0.23,0.20,0.00,-0.10,0.00,
0.248,0.21,-0.23,0.20,0.01,-0.09,-0.01,
0.248,0.21,-0.23,0.20,0.02,-0.09,-0.01,
0.251,0.21,-0.23,0.20,0.03,-0.08,-0.00,
0.252,-0.02,-0.18,0.38,0.03,-0.08,-0.00,
0.253,-0.02,-0.18,0.38,0.04,-0.08,0.00,
0.256,0.06,-0.01,0.34,0.04,-0.08,0.00,
0.257,0.06,-0.01,0.34,0.04,-0.08,0.00,
0.258,0.06,-0.01,0.34,0.05,-0.09,0.00,
0.261,0.06,-0.01,0.34,0.05,-0.10,-0.00,
0.261,0.23,0.21,0.28,0.05,-0.10,-0.00,
0.263,0.23,0.21,0.28,0.05,-0.10,-0.01,
0.266,-0.02,0.37,0.17,0.05,-0.10,-0.01,
0.266,-0.02,0.37,0.17,0.06,-0.11,-0.01,
0.268,-0.02,0.37,0.17,0.06,-0.11,-0.01,
0.271,-0.33,0.26,-0.17,0.06,-0.11,-0.01,
0.271,-0.33,0.26,-0.17,0.06,-0.11,-0.00,
0.273,-0.33,0.26,-0.17,0.06,-0.11,0.00,
0.277,-0.33,0.26,-0.17,0.05,-0.11,0.01,
0.277,-0.60,0.11,-0.28,0.05,-0.11,0.01,
0.279,-0.60,0.11,-0.28,0.05,-0.12,0.02,
0.281,-0.60,0.11,-0.28,0.04,-0.13,0.02,
0.281,-0.48,-0.04,-0.22,0.04,-0.13,0.02,
0.283,-0.48,-0.04,-0.22,0.04,-0.14,0.03,
0.286,-0.48,-0.04,-0.22,0.04,-0.16,0.03,
0.286,-0.07,-0.12,0.08,0.04,-0.16,0.03,
0.289,-0.07,-0.12,0.08,0.04,-0.18,0.03,
0.292,0.19,-0.09,0.25,0.04,-0.18,0.03,
0.292,0.19,-0.09,0.25,0.04,-0.20,0.03,
0.294,0.19,-0.09,0.25,0.05,-0.20,0.02,
0.296,0.19,-0.09,0.25,0.05,-0.20,0.02,
0.297,0.30,-0.04,0.20,0.05,-0.20,0.02,
0.299,0.30,-0.04,0.20,0.05,-0.19,0.02,
0.301,0.30,-0.04,0.20,0.05,-0.18,0.02,
0.301,0.37,-0.05,-0.03,0.05,-0.18,0.02,
0.303,0.37,-0.05,-0.03,0.05,-0.16,0.01,
0.306,0.37,-0.05,-0.03,0.05,-0.15,0.01,
0.306,0.34,-0.10,-0.20,0.05,-0.15,0.01,
0.308,0.34,-0.10,-0.20,0.05,-0.14,0.01,
0.31,0.34,-0.10,-0.20,0.04,-0.12,0.01,
0.311,0.30,-0.18,-0.15,0.04,-0.12,0.01,
0.313,0.30,-0.18,-0.15,0.05,-0.11,0.00,
0.316,0.30,-0.18,-0.15,0.05,-0.10,0.00,
0.316,0.26,-0.27,-0.03,0.05,-0.10,0.00,
0.318,0.26,-0.27,-0.03,0.05,-0.10,-0.00,
0.321,0.26,-0.27,-0.03,0.05,-0.09,-0.00,
0.321,0.22,-0.34,-0.07,0.05,-0.09,-0.00,
0.323,0.22,-0.34,-0.07,0.04,-0.08,-0.01,
0.326,0.15,-0.23,-0.04,0.04,-0.08,-0.01,
0.326,0.15,-0.23,-0.04,0.04,-0.08,-0.01,
0.328,0.15,-0.23,-0.04,0.04,-0.08,-0.01,
0.331,0.15,-0.23,-0.04,0.04,-0.08,-0.01,
0.331,0.18,-0.06,0.00,0.04,-0.08,-0.01,
0.333,0.18,-0.06,0.00,0.04,-0.08,-0.01,
0.336,0.03,-0.02,-0.04,0.04,-0.08,-0.01,
0.337,0.03,-0.02,-0.04,0.04,-0.08,-0.01,
0.338,0.03,-0.02,-0.04,0.04,-0.07,-0.00,
0.34,0.03,-0.02,-0.04,0.04,-0.05,-0.00,
0.357,0.12,-0.21,-0.21,0.04,-0.05,-0.00,
0.358,0.12,-0.21,-0.21,0.03,-0.03,-0.01,
0.358,0.58,-0.41,-0.15,0.03,-0.03,-0.01,
0.358,0.58,-0.41,-0.15,0.03,-0.01,-0.02,
0.359,0.58,-0.41,-0.15,0.03,0.00,-0.03,
0.359,0.07,-0.03,0.30,0.03,0.00,-0.03,
0.359,0.07,-0.03,0.30,0.04,-0.01,-0.03,
0.36,0.07,-0.03,0.30,0.05,-0.05,-0.02,
0.36,-0.47,0.35,0.66,0.05,-0.05,-0.02,
0.36,-0.47,0.35,0.66,0.05,-0.08,-0.02,
0.361,-0.47,0.35,0.66,0.07,-0.11,-0.01,
0.361,-0.47,0.35,0.66,0.07,-0.12,-0.00,
0.361,-0.98,0.41,0.35,0.07,-0.12,-0.00,
0.369,-0.98,0.41,0.35,0.07,-0.12,0.01,
0.375,-0.83,0.30,-0.50,0.07,-0.12,0.01,
0.375,-0.08,0.02,-0.81,0.07,-0.12,0.01,
0.376,-0.08,0.02,-0.81,0.06,-0.13,0.02,
0.376,-0.08,0.02,-0.81,0.05,-0.14,0.02,
0.376,-0.08,0.02,-0.81,0.03,-0.16,0.03,
0.376,-0.08,0.02,-0.81,0.02,-0.16,0.03,
0.376,-0.08,0.02,-0.81,0.01,-0.14,0.03,
0.376,0.61,-0.36,-0.58,0.01,-0.14,0.03,
0.377,0.61,-0.36,-0.58,0.01,-0.11,0.02,
0.38,0.61,-0.36,-0.58,0.01,-0.07,0.01,
0.381,1.02,-0.58,-0.08,0.01,-0.07,0.01,
0.387,1.02,-0.58,-0.08,0.02,-0.03,-0.01,
0.388,1.02,-0.58,-0.08,0.02,-0.01,-0.03,
0.388,1.12,-0.49,0.35,0.02,-0.01,-0.03,
0.388,1.12,-0.49,0.35,0.03,0.01,-0.05,
0.393,1.12,-0.49,0.35,0.04,0.02,-0.06,
0.394,0.86,-0.26,0.46,0.04,0.02,-0.06,
0.394,0.86,-0.26,0.46,0.05,0.02,-0.07,
0.395,0.86,-0.26,0.46,0.05,0.03,-0.07,
0.395,0.45,0.00,0.26,0.05,0.03,-0.07,
0.397,0.45,0.00,0.26,0.05,0.04,-0.08,
0.4,0.45,0.00,0.26,0.05,0.05,-0.08,
0.4,0.16,0.15,-0.03,0.05,0.05,-0.08,
0.402,0.16,0.15,-0.03,0.05,0.06,-0.08,
0.405,0.16,0.15,-0.03,0.05,0.07,-0.08,
0.405,0.10,0.24,-0.14,0.05,0.07,-0.08,
0.409,0.10,0.24,-0.14,0.05,0.08,-0.09,
0.411,0.10,0.24,-0.14,0.05,0.08,-0.09,
0.411,0.19,0.25,-0.03,0.05,0.08,-0.09,
0.413,0.19,0.25,-0.03,0.05,0.08,-0.09,
0.415,0.19,0.25,-0.03,0.06,0.09,-0.09,
0.415,0.45,0.14,0.05,0.06,0.09,-0.09,
0.417,0.45,0.14,0.05,0.06,0.09,-0.10,
0.42,0.45,0.14,0.05,0.07,0.11,-0.11,
0.42,0.64,0.05,0.08,0.07,0.11,-0.11,
0.422,0.64,0.05,0.08,0.07,0.12,-0.12,
0.425,0.64,0.05,0.08,0.07,0.14,-0.13,
0.425,0.58,0.03,0.03,0.07,0.14,-0.13,
0.427,0.58,0.03,0.03,0.07,0.16,-0.13,
0.43,0.58,0.03,0.03,0.07,0.19,-0.13,
0.431,0.38,0.00,-0.06,0.07,0.19,-0.13,
0.433,0.38,0.00,-0.06,0.08,0.21,-0.13,
0.435,0.38,0.00,-0.06,0.08,0.23,-0.13,
0.435,0.13,-0.01,-0.10,0.08,0.23,-0.13,
0.437,0.13,-0.01,-0.10,0.08,0.24,-0.13,
0.44,0.13,-0.01,-0.10,0.08,0.25,-0.13,
0.44,-0.06,-0.03,-0.13,0.08,0.25,-0.13,
0.443,-0.06,-0.03,-0.13,0.07,0.26,-0.13,
0.445,-0.26,0.01,-0.08,0.07,0.26,-0.13,
0.445,-0.26,0.01,-0.08,0.07,0.25,-0.13,
0.447,-0.26,0.01,-0.08,0.07,0.24,-0.12,
0.449,-0.26,0.01,-0.08,0.08,0.22,-0.12,
0.45,-0.40,0.11,0.02,0.08,0.22,-0.12,
0.452,-0.40,0.11,0.02,0.08,0.20,-0.11,
0.455,-0.43,0.24,0.12,0.08,0.20,-0.11,
0.455,-0.43,0.24,0.12,0.08,0.18,-0.11,
0.457,-0.43,0.24,0.12,0.08,0.15,-0.11,
0.459,-0.43,0.24,0.12,0.08,0.13,-0.10,
0.459,-0.32,0.26,0.13,0.08,0.13,-0.10,
0.462,-0.32,0.26,0.13,0.08,0.11,-0.10,
0.468,-0.32,0.26,0.13,0.08,0.09,-0.10,
0.469,-0.14,0.21,0.07,0.08,0.09,-0.10,
0.469,-0.14,0.21,0.07,0.07,0.08,-0.10,
0.477,-0.14,0.21,0.07,0.07,0.07,-0.10,
0.477,-0.03,0.09,0.11,0.07,0.07,-0.10,
0.478,-0.03,-0.06,0.13,0.07,0.07,-0.10,
0.478,-0.03,-0.06,0.13,0.07,0.06,-0.10,
0.478,-0.03,-0.06,0.13,0.07,0.06,-0.10,
0.478,-0.03,-0.06,0.13,0.08,0.05,-0.10,
0.479,-0.02,-0.10,0.05,0.08,0.05,-0.10,
0.48,-0.02,-0.10,0.05,0.08,0.04,-0.09,
0.487,-0.02,-0.10,0.05,0.08,0.03,-0.09,
0.488,-0.02,-0.10,0.05,0.08,0.01,-0.10,
0.488,0.03,-0.02,-0.05,0.08,0.01,-0.10,
0.488,0.03,-0.02,-0.05,0.07,-0.01,-0.10,
0.489,0.03,0.11,-0.05,0.07,-0.01,-0.10,
0.489,0.03,0.11,-0.05,0.07,-0.03,-0.10,
0.494,0.03,0.11,-0.05,0.07,-0.04,-0.11,
0.495,0.06,0.18,-0.03,0.07,-0.04,-0.11,
0.495,0.06,0.18,-0.03,0.07,-0.04,-0.11,
0.497,0.06,0.18,-0.03,0.07,-0.04,-0.11,
0.5,0.06,0.18,-0.03,0.07,-0.04,-0.11,
0.5,0.16,0.15,-0.03,0.07,-0.04,-0.11,
0.501,0.16,0.15,-0.03,0.07,-0.04,-0.11,
0.504,0.21,0.05,-0.09,0.07,-0.04,-0.11,
0.504,0.21,0.05,-0.09,0.07,-0.04,-0.11,
0.516,0.21,0.05,-0.09,0.07,-0.03,-0.11,
0.516,0.16,-0.08,-0.13,0.07,-0.03,-0.11,
0.517,0.16,-0.08,-0.13,0.06,-0.02,-0.11,
0.517,0.16,-0.08,-0.13,0.06,-0.01,-0.11,
0.517,0.16,-0.08,-0.13,0.06,-0.01,-0.11,
0.517,0.06,-0.11,-0.17,0.06,-0.01,-0.11,
0.517,0.06,-0.11,-0.17,0.06,-0.01,-0.11,
0.522,-0.24,-0.26,-0.26,0.06,-0.01,-0.11,
0.522,-0.24,-0.26,-0.26,0.05,-0.02,-0.11,
0.523,-0.24,-0.26,-0.26,0.05,-0.06,-0.10,
0.524,-0.24,-0.26,-0.26,0.04,-0.07,-0.10,
0.524,-0.03,-0.20,-0.15,0.04,-0.07,-0.10,
0.526,-0.03,-0.20,-0.15,0.05,-0.06,-0.11,
0.529,-0.03,-0.20,-0.15,0.05,-0.04,-0.12,
0.529,0.03,0.27,0.23,0.05,-0.04,-0.12,
0.532,0.03,0.27,0.23,0.06,-0.03,-0.11,
0.534,0.03,0.27,0.23,0.06,-0.02,-0.11,
0.534,-0.09,0.28,0.17,0.06,-0.02,-0.11,
0.536,-0.09,0.28,0.17,0.07,0.00,-0.10,
0.539,-0.09,0.28,0.17,0.07,0.01,-0.09,
0.539,-0.21,0.10,-0.01,0.07,0.01,-0.09,
0.541,-0.21,0.10,-0.01,0.07,0.01,-0.09,
0.545,-0.20,-0.00,-0.25,0.07,0.01,-0.09,
0.545,-0.20,-0.00,-0.25,0.06,0.00,-0.08,
0.546,-0.20,-0.00,-0.25,0.06,-0.01,-0.08,
0.552,-0.20,-0.00,-0.25,0.05,-0.03,-0.08,
0.553,-0.21,-0.03,-0.13,0.05,-0.03,-0.08,
0.553,-0.21,-0.03,-0.13,0.05,-0.04,-0.07,
0.553,-0.21,-0.03,-0.13,0.06,-0.04,-0.08,
0.554,-0.22,-0.02,0.14,0.06,-0.04,-0.08,
0.556,-0.22,-0.02,0.14,0.06,-0.04,-0.07,
0.56,-0.22,-0.02,0.14,0.07,-0.03,-0.07,
0.561,-0.21,-0.02,0.29,0.07,-0.03,-0.07,
0.561,-0.21,-0.02,0.29,0.08,-0.03,-0.06,
0.572,-0.29,-0.01,-0.07,0.08,-0.03,-0.06,
0.573,-0.29,-0.01,-0.07,0.07,-0.03,-0.06,
0.573,-0.29,-0.01,-0.07,0.07,-0.02,-0.05,
0.573,-0.29,-0.01,-0.07,0.07,-0.01,-0.04,
0.573,-0.58,0.08,-0.50,0.07,-0.01,-0.04,
0.573,-0.58,0.08,-0.50,0.05,0.01,-0.02,
0.573,-0.58,0.08,-0.50,0.04,0.00,-0.02,
0.574,-0.45,0.05,-0.50,0.04,0.00,-0.02,
0.576,-0.45,0.05,-0.50,0.04,0.00,-0.01,
0.578,-0.45,0.05,-0.50,0.05,-0.01,-0.01,
0.579,-0.45,0.02,0.13,0.05,-0.01,-0.01,
0.582,-0.45,0.02,0.13,0.04,-0.02,-0.00,
0.583,-0.45,0.02,0.13,0.05,-0.04,0.00,
0.584,-0.31,0.16,0.38,0.05,-0.04,0.00,
0.585,-0.31,0.16,0.38,0.06,-0.07,0.00,
0.589,-0.31,0.16,0.38,0.06,-0.09,0.00,
0.589,-0.11,0.32,0.19,0.06,-0.09,0.00,
0.591,-0.11,0.32,0.19,0.06,-0.09,0.01,
0.594,0.09,0.37,-0.18,0.06,-0.09,0.01,
0.595,0.09,0.37,-0.18,0.06,-0.08,0.01,
0.596,0.09,0.37,-0.18,0.06,-0.06,0.01,
0.6,0.09,0.37,-0.18,0.05,-0.04,0.01,
0.6,0.32,0.21,-0.35,0.05,-0.04,0.01,
0.601,0.32,0.21,-0.35,0.05,-0.02,0.01,
0.603,0.58,-0.16,-0.45,0.05,-0.02,0.01,
0.604,0.58,-0.16,-0.45,0.04,0.01,0.01,
0.606,0.58,-0.16,-0.45,0.04,0.04,-0.00,
0.609,0.85,-0.43,-0.19,0.04,0.04,-0.00,
0.61,0.85,-0.43,-0.19,0.04,0.07,-0.01,
0.611,0.85,-0.43,-0.19,0.04,0.09,-0.02,
0.613,0.85,-0.43,-0.19,0.04,0.12,-0.03,
0.613,0.96,-0.52,-0.09,0.04,0.12,-0.03,
0.617,0.96,-0.52,-0.09,0.04,0.15,-0.05,
0.618,0.96,-0.52,-0.09,0.04,0.16,-0.08,
0.618,1.04,-0.60,-0.09,0.04,0.16,-0.08,
0.62,1.04,-0.60,-0.09,0.04,0.18,-0.10,
0.623,1.04,-0.60,-0.09,0.04,0.20,-0.12,
0.623,0.86,-0.56,-0.14,0.04,0.20,-0.12,
0.625,0.86,-0.56,-0.14,0.04,0.23,-0.13,
0.628,0.86,-0.56,-0.14,0.04,0.27,-0.13,
0.628,0.45,-0.23,-0.33,0.04,0.27,-0.13,
0.63,0.45,-0.23,-0.33,0.04,0.31,-0.13,
0.633,0.12,0.12,-0.36,0.04,0.31,-0.13,
0.634,0.12,0.12,-0.36,0.04,0.35,-0.13,
0.636,0.12,0.12,-0.36,0.03,0.38,-0.12,
0.638,0.12,0.12,-0.36,0.04,0.39,-0.11,
0.638,-0.10,0.42,-0.15,0.04,0.39,-0.11,
0.64,-0.10,0.42,-0.15,0.04,0.38,-0.11,
0.643,-0.10,0.42,-0.15,0.03,0.36,-0.11,
0.643,0.01,0.45,0.01,0.03,0.36,-0.11,
0.646,0.01,0.45,0.01,0.03,0.31,-0.12,
0.654,0.04,0.37,0.21,0.03,0.31,-0.12,
0.654,0.04,0.37,0.21,0.03,0.27,-0.13,
0.654,0.04,0.37,0.21,0.03,0.23,-0.13,
0.655,0.04,0.37,0.21,0.04,0.21,-0.12,
0.662,-0.30,0.75,0.50,0.04,0.21,-0.12,
0.663,-0.30,0.75,0.50,0.05,0.20,-0.10,
0.665,-0.30,0.75,0.50,0.05,0.21,-0.10,
0.665,0.00,0.39,0.25,0.05,0.21,-0.10,
0.666,0.00,0.39,0.25,0.05,0.24,-0.11,
0.666,0.00,0.39,0.25,0.05,0.24,-0.12,
0.667,0.51,-0.23,0.40,0.05,0.24,-0.12,
0.668,0.51,-0.23,0.40,0.06,0.20,-0.14,
0.668,0.51,-0.23,0.40,0.07,0.13,-0.15,
0.669,0.73,-0.53,0.74,0.07,0.13,-0.15,
0.688,0.73,-0.53,0.74,0.07,0.08,-0.16,
0.71,0.73,-0.53,0.74,0.08,0.06,-0.16,
0.71,0.60,-0.66,0.27,0.08,0.06,-0.16,
0.711,0.60,-0.66,0.27,0.08,0.06,-0.17,
0.711,0.60,-0.66,0.27,0.08,0.08,-0.18,
0.711,0.33,-0.41,-0.04,0.08,0.08,-0.18,
0.711,0.33,-0.41,-0.04,0.08,0.09,-0.18,
0.712,0.33,-0.41,-0.04,0.08,0.08,-0.18,
0.712,0.06,-0.05,0.00,0.08,0.08,-0.18,
0.712,0.06,-0.05,0.00,0.08,0.07,-0.17,
0.712,0.06,-0.05,0.00,0.08,0.06,-0.17,
0.713,-0.08,0.14,0.18,0.08,0.06,-0.17,
0.713,-0.08,0.14,0.18,0.09,0.05,-0.17,
0.713,-0.08,0.14,0.18,0.09,0.03,-0.17,
0.713,-0.20,0.17,0.37,0.09,0.03,-0.17,
0.714,-0.20,0.17,0.37,0.10,0.02,-0.17,
0.714,-0.20,0.17,0.37,0.11,-0.01,-0.17,
0.714,-0.26,0.16,0.40,0.11,-0.01,-0.17,
0.714,-0.26,0.16,0.40,0.11,-0.03,-0.17,
0.715,-0.26,0.16,0.40,0.12,-0.04,-0.16,
0.715,-0.31,0.14,0.36,0.12,-0.04,-0.16,
0.715,-0.31,0.14,0.36,0.12,-0.05,-0.16,
0.715,-0.31,0.14,0.36,0.13,-0.07,-0.15,
0.716,-0.32,0.11,0.30,0.13,-0.07,-0.15,
0.716,-0.32,0.11,0.30,0.13,-0.09,-0.14,
0.716,-0.32,0.11,0.30,0.13,-0.11,-0.14,
0.716,-0.17,-0.01,0.21,0.13,-0.11,-0.14,
0.716,-0.17,-0.01,0.21,0.13,-0.11,-0.14,
0.718,0.02,-0.03,0.13,0.13,-0.11,-0.14,
0.718,0.02,-0.03,0.13,0.14,-0.12,-0.14,
0.721,0.02,-0.03,0.13,0.14,-0.12,-0.15,
0.724,0.03,0.07,0.09,0.14,-0.12,-0.15,
0.724,0.03,0.07,0.09,0.14,-0.10,-0.16,
0.724,0.03,0.07,0.09,0.15,-0.09,-0.16,
0.727,-0.12,0.03,0.01,0.15,-0.09,-0.16,
0.727,-0.12,0.03,0.01,0.15,-0.09,-0.15,
0.73,-0.12,0.03,0.01,0.15,-0.09,-0.15,
0.734,-0.19,-0.13,-0.29,0.15,-0.09,-0.15,
0.734,-0.19,-0.13,-0.29,0.14,-0.09,-0.14,
0.736,-0.19,-0.13,-0.29,0.14,-0.08,-0.14,
0.737,-0.13,-0.08,-0.40,0.14,-0.08,-0.14,
0.737,-0.13,-0.08,-0.40,0.13,-0.07,-0.13,
0.739,-0.13,-0.08,-0.40,0.13,-0.06,-0.13,
0.742,-0.01,0.15,-0.10,0.13,-0.06,-0.13,
0.742,-0.01,0.15,-0.10,0.13,-0.05,-0.13,
0.745,-0.01,0.15,-0.10,0.14,-0.05,-0.13,
0.747,-0.05,0.52,0.06,0.14,-0.05,-0.13,
0.748,-0.05,0.52,0.06,0.14,-0.05,-0.14,
0.753,-0.05,0.52,0.06,0.14,-0.04,-0.13,
0.753,-0.78,0.50,-0.12,0.14,-0.04,-0.13,
0.753,-0.78,0.50,-0.12,0.14,-0.05,-0.11,
0.755,-0.78,0.50,-0.12,0.14,-0.07,-0.09,
0.757,-0.78,0.50,-0.12,0.13,-0.08,-0.06,
0.757,-1.13,0.23,-0.36,0.13,-0.08,-0.06,
0.759,-1.13,0.23,-0.36,0.13,-0.09,-0.04,
0.762,-1.07,-0.18,-0.26,0.13,-0.09,-0.04,
0.762,-1.07,-0.18,-0.26,0.12,-0.11,-0.02,
0.779,-1.07,-0.18,-0.26,0.11,-0.14,-0.01,
0.779,-0.89,-0.32,-0.44,0.11,-0.14,-0.01,
0.779,-0.89,-0.32,-0.44,0.10,-0.16,0.00,
0.779,0.09,-0.30,-1.28,0.10,-0.16,0.00,
0.779,0.09,-0.30,-1.28,0.10,-0.11,0.00,
0.779,0.09,-0.30,-1.28,0.08,-0.04,-0.01,
0.78,0.09,-0.30,-1.28,0.06,0.01,-0.02,
0.78,0.09,-0.30,-1.28,0.03,0.07,-0.04,
0.78,1.29,1.01,-1.35,0.03,0.07,-0.04,
0.78,1.29,1.01,-1.35,0.03,0.13,-0.04,
0.785,-0.87,1.87,0.91,0.03,0.13,-0.04,
0.785,-0.87,1.87,0.91,0.04,0.12,0.01,
0.786,-0.87,1.87,0.91,0.08,-0.03,0.08,
0.787,-0.87,1.87,0.91,0.13,-0.18,0.12,
0.788,-2.00,0.53,2.92,0.13,-0.18,0.12,
0.789,-2.00,0.53,2.92,0.17,-0.26,0.11,
0.791,-2.00,0.53,2.92,0.19,-0.29,0.08,
0.791,-1.09,-0.96,0.92,0.19,-0.29,0.08,
0.794,-1.09,-0.96,0.92,0.19,-0.30,0.05,
0.796,-0.56,-1.02,-0.97,0.19,-0.30,0.05,
0.797,-0.56,-1.02,-0.97,0.16,-0.35,0.03,
0.799,-0.56,-1.02,-0.97,0.12,-0.43,0.04,
0.801,-0.56,-1.02,-0.97,0.08,-0.47,0.04,
0.802,0.28,-0.82,-1.16,0.08,-0.47,0.04,
0.804,0.28,-0.82,-1.16,0.07,-0.41,0.05,
0.806,0.74,-0.72,-0.58,0.07,-0.41,0.05,
0.807,0.74,-0.72,-0.58,0.07,-0.31,0.06,
0.809,0.74,-0.72,-0.58,0.07,-0.21,0.07,
0.811,0.74,-0.72,-0.58,0.09,-0.11,0.07,
0.811,1.19,-0.39,0.09,0.09,-0.11,0.07,
0.814,1.19,-0.39,0.09,0.10,-0.03,0.06,
0.817,1.06,-0.10,0.06,0.10,-0.03,0.06,
0.817,1.06,-0.10,0.06,0.10,0.02,0.05,
0.819,1.06,-0.10,0.06,0.10,0.03,0.04,
0.821,1.06,-0.10,0.06,0.11,0.01,0.03,
0.821,0.36,-0.18,0.62,0.11,0.01,0.03,
0.823,0.36,-0.18,0.62,0.12,-0.01,0.03,
0.826,0.36,-0.18,0.62,0.13,-0.03,0.03,
0.827,-0.18,-0.13,0.54,0.13,-0.03,0.03,
0.829,-0.18,-0.13,0.54,0.13,-0.05,0.03,
0.832,-0.18,-0.13,0.54,0.13,-0.06,0.03,
0.836,-0.37,0.12,0.11,0.13,-0.06,0.03,
0.836,-0.37,0.12,0.11,0.13,-0.07,0.03,
0.836,-0.25,0.29,-0.07,0.13,-0.07,0.03,
0.854,-0.25,0.29,-0.07,0.13,-0.06,0.03,
0.855,-0.25,0.29,-0.07,0.13,-0.05,0.04,
0.855,-0.10,0.25,0.16,0.13,-0.05,0.04,
0.855,-0.10,0.25,0.16,0.14,-0.04,0.05,
0.855,-0.10,0.25,0.16,0.14,-0.04,0.05,
0.856,-0.04,0.12,0.47,0.14,-0.04,0.05,
0.856,-0.04,0.12,0.47,0.15,-0.05,0.05,
0.856,-0.04,0.12,0.47,0.16,-0.07,0.05,
0.856,0.05,-0.10,0.67,0.16,-0.07,0.05,
0.859,0.05,-0.10,0.67,0.17,-0.08,0.05,
0.86,0.25,-0.24,0.70,0.17,-0.08,0.05,
0.86,0.25,-0.24,0.70,0.18,-0.10,0.05,
0.861,0.25,-0.24,0.70,0.19,-0.11,0.04,
0.862,0.25,-0.24,0.70,0.20,-0.12,0.03,
0.862,0.25,-0.24,0.70,0.21,-0.12,0.03,
0.863,0.44,-0.25,0.60,0.21,-0.12,0.03,
0.872,0.43,-0.21,0.44,0.21,-0.12,0.03,
0.873,0.43,-0.21,0.44,0.22,-0.13,0.02,
0.873,0.43,-0.21,0.44,0.22,-0.13,0.02,
0.873,0.43,-0.21,0.44,0.23,-0.12,0.02,
0.873,0.43,-0.21,0.44,0.23,-0.11,0.01,
0.873,0.43,-0.19,0.40,0.23,-0.11,0.01,
0.874,0.43,-0.19,0.40,0.24,-0.10,0.01,
0.879,0.43,-0.19,0.40,0.24,-0.10,0.01,
0.879,0.23,-0.11,0.34,0.24,-0.10,0.01,
0.879,0.23,-0.11,0.34,0.25,-0.10,0.01,
0.881,0.23,-0.11,0.34,0.25,-0.09,0.01,
0.881,0.20,0.01,0.29,0.25,-0.09,0.01,
0.892,0.20,0.01,0.29,0.25,-0.09,0.00,
0.893,0.20,0.01,0.29,0.25,-0.09,0.00,
0.893,0.14,0.10,0.25,0.25,-0.09,0.00,
0.893,0.14,0.10,0.25,0.25,-0.08,0.00,
0.893,0.14,0.10,0.25,0.26,-0.09,0.01,
0.894,-0.00,0.19,0.18,0.26,-0.09,0.01,
0.894,-0.00,0.19,0.18,0.26,-0.09,0.02,
0.895,-0.00,0.19,0.18,0.26,-0.08,0.02,
0.896,-0.01,0.20,0.17,0.26,-0.08,0.02,
0.898,-0.01,0.20,0.17,0.26,-0.07,0.02,
0.901,0.20,0.08,0.21,0.26,-0.07,0.02,
0.902,0.20,0.08,0.21,0.27,-0.05,0.02,
0.903,0.20,0.08,0.21,0.28,-0.03,0.02,
0.905,0.20,0.08,0.21,0.28,-0.02,0.02,
0.906,0.18,-0.03,0.13,0.28,-0.02,0.02,
0.908,0.18,-0.03,0.13,0.29,-0.01,0.02,
0.91,0.18,-0.03,0.13,0.29,0.00,0.03,
0.91,0.01,0.03,-0.12,0.29,0.00,0.03,
0.913,0.01,0.03,-0.12,0.28,0.02,0.03,
0.916,-0.18,0.25,-0.19,0.28,0.02,0.03,
0.916,-0.18,0.25,-0.19,0.28,0.03,0.04,
0.918,-0.18,0.25,-0.19,0.28,0.03,0.05,
0.921,-0.18,0.25,-0.19,0.28,0.04,0.05,
0.921,-0.17,0.29,-0.00,0.28,0.04,0.05,
0.923,-0.17,0.29,-0.00,0.28,0.04,0.06,
0.925,-0.17,0.29,-0.00,0.29,0.04,0.06,
0.926,-0.10,0.06,0.17,0.29,0.04,0.06,
0.928,-0.10,0.06,0.17,0.29,0.03,0.06,
0.931,-0.10,0.06,0.17,0.29,0.02,0.06,
0.931,-0.19,-0.05,0.24,0.29,0.02,0.06,
0.934,-0.19,-0.05,0.24,0.30,0.01,0.07,
0.935,-0.19,-0.05,0.24,0.30,-0.00,0.08,
0.936,-0.33,-0.09,0.18,0.30,-0.00,0.08,
0.938,-0.33,-0.09,0.18,0.30,-0.01,0.08,
0.94,-0.33,-0.09,0.18,0.30,-0.01,0.09,
0.941,-0.36,-0.12,0.13,0.30,-0.01,0.09,
0.942,-0.36,-0.12,0.13,0.31,-0.02,0.09,
0.947,-0.36,-0.12,0.13,0.31,-0.04,0.10,
0.947,-0.39,-0.18,0.13,0.31,-0.04,0.10,
0.949,-0.39,-0.18,0.13,0.31,-0.05,0.11,
0.952,-0.39,-0.18,0.13,0.31,-0.06,0.11,
0.955,-0.42,-0.09,0.01,0.31,-0.06,0.11,
0.955,-0.42,-0.09,0.01,0.31,-0.06,0.12,
0.956,-0.42,-0.09,0.01,0.31,-0.07,0.13,
0.956,-0.53,0.04,-0.15,0.31,-0.07,0.13,
0.964,-0.53,0.04,-0.15,0.31,-0.07,0.14,
0.965,-0.53,0.04,-0.15,0.31,-0.07,0.15,
0.965,-0.56,0.16,-0.18,0.31,-0.07,0.15,
0.965,-0.56,0.16,-0.18,0.31,-0.07,0.15,
0.974,-0.56,0.16,-0.18,0.31,-0.08,0.16,
0.975,-0.48,0.14,-0.11,0.31,-0.08,0.16,
0.976,-0.48,0.14,-0.11,0.31,-0.09,0.17,
0.976,-0.48,0.14,-0.11,0.31,-0.09,0.18,
0.976,-0.38,0.13,-0.03,0.31,-0.09,0.18,
0.976,-0.38,0.13,-0.03,0.31,-0.10,0.18,
0.977,-0.38,0.13,-0.03,0.31,-0.10,0.19,
0.978,-0.38,0.13,-0.03,0.32,-0.10,0.19,
0.978,-0.27,0.12,0.02,0.32,-0.10,0.19,
0.98,-0.27,0.12,0.02,0.32,-0.10,0.19,
0.98,-0.23,0.09,0.06,0.32,-0.10,0.19,
0.982,-0.23,0.09,0.06,0.32,-0.10,0.19,
0.986,-0.23,-0.11,0.03,0.32,-0.10,0.19,
0.986,-0.23,-0.11,0.03,0.33,-0.10,0.20,
0.987,-0.23,-0.11,0.03,0.33,-0.10,0.20,
0.99,-0.23,-0.11,0.03,0.33,-0.10,0.20,
0.99,-0.20,-0.32,0.06,0.33,-0.10,0.20,
0.992,-0.20,-0.32,0.06,0.34,-0.11,0.20,
0.995,-0.20,-0.32,0.06,0.34,-0.13,0.20,
0.995,-0.18,-0.32,0.09,0.34,-0.13,0.20,
0.997,-0.18,-0.32,0.09,0.35,-0.14,0.20,
1.0,-0.19,-0.15,0.10,0.35,-0.14,0.20,
1.001,-0.19,-0.15,0.10,0.35,-0.15,0.21,
1.019,-0.19,-0.15,0.10,0.35,-0.16,0.21,
1.02,-0.19,-0.15,0.10,0.36,-0.17,0.21,
1.02,-0.24,0.07,0.13,0.36,-0.17,0.21,
1.02,-0.24,0.07,0.13,0.36,-0.18,0.21,
1.021,-0.32,-0.01,0.08,0.36,-0.18,0.21,
1.021,-0.32,-0.01,0.08,0.37,-0.19,0.21,
1.021,-0.32,-0.01,0.08,0.37,-0.20,0.21,
1.022,-0.51,-0.03,0.09,0.37,-0.20,0.21,
1.022,-0.51,-0.03,0.09,0.38,-0.22,0.21,
1.022,-0.51,-0.03,0.09,0.38,-0.24,0.22,
1.023,-0.61,-0.05,0.11,0.38,-0.24,0.22,
1.023,-0.61,-0.05,0.11,0.38,-0.26,0.22,
1.024,-0.61,-0.05,0.11,0.39,-0.29,0.23,
1.026,-0.50,-0.05,0.18,0.39,-0.29,0.23,
1.027,-0.50,-0.05,0.18,0.39,-0.31,0.24,
1.028,-0.50,-0.05,0.18,0.39,-0.33,0.24,
1.029,-0.50,-0.05,0.18,0.40,-0.35,0.24,
1.03,-0.30,-0.03,0.31,0.40,-0.35,0.24,
1.032,-0.30,-0.03,0.31,0.41,-0.37,0.25,
1.039,-0.30,-0.03,0.31,0.42,-0.39,0.24,
1.04,-0.09,-0.05,0.36,0.42,-0.39,0.24,
1.041,-0.09,-0.05,0.36,0.43,-0.40,0.24,
1.041,-0.09,-0.05,0.36,0.44,-0.42,0.24,
1.041,0.02,-0.11,0.29,0.44,-0.42,0.24,
1.042,0.02,-0.11,0.29,0.45,-0.42,0.24,
1.044,0.02,-0.11,0.29,0.45,-0.42,0.24,
1.045,0.06,-0.18,0.18,0.45,-0.42,0.24,
1.047,0.06,-0.18,0.18,0.46,-0.41,0.23,
1.05,0.06,-0.18,0.18,0.47,-0.41,0.23,
1.05,0.05,-0.24,0.20,0.47,-0.41,0.23,
1.059,0.05,-0.24,0.20,0.47,-0.41,0.23,
1.059,-0.12,-0.26,0.20,0.47,-0.41,0.23,
1.059,-0.12,-0.26,0.20,0.48,-0.41,0.23,
1.06,-0.12,-0.26,0.20,0.49,-0.41,0.23,
1.06,-0.12,-0.26,0.20,0.49,-0.42,0.24,
1.06,-0.25,-0.22,0.14,0.49,-0.42,0.24,
1.061,-0.25,-0.22,0.14,0.50,-0.42,0.24,
1.064,-0.25,-0.22,0.14,0.50,-0.43,0.24,
1.065,-0.36,-0.13,0.13,0.50,-0.43,0.24,
1.067,-0.36,-0.13,0.13,0.50,-0.44,0.25,
1.07,-0.41,-0.14,0.18,0.50,-0.44,0.25,
1.07,-0.41,-0.14,0.18,0.50,-0.45,0.25,
1.071,-0.41,-0.14,0.18,0.51,-0.45,0.25,
1.074,-0.41,-0.14,0.18,0.51,-0.46,0.26,
1.074,-0.49,-0.18,0.18,0.51,-0.46,0.26,
1.076,-0.49,-0.18,0.18,0.52,-0.46,0.26,
1.079,-0.49,-0.18,0.18,0.52,-0.47,0.25,
1.079,-0.36,-0.34,0.17,0.52,-0.47,0.25,
1.082,-0.36,-0.34,0.17,0.53,-0.48,0.26,
1.086,-0.36,-0.34,0.17,0.54,-0.51,0.26,
1.086,-0.23,-0.29,0.42,0.54,-0.51,0.26,
1.086,-0.23,-0.29,0.42,0.55,-0.53,0.26,
1.089,-0.18,-0.09,0.33,0.55,-0.53,0.26,
1.089,-0.18,-0.09,0.33,0.56,-0.55,0.27,
1.091,-0.18,-0.09,0.33,0.56,-0.56,0.27,
1.094,-0.18,-0.09,0.33,0.56,-0.57,0.27,
1.094,-0.05,-0.19,0.38,0.56,-0.57,0.27,
1.096,-0.05,-0.19,0.38,0.57,-0.56,0.27,
1.099,-0.05,-0.19,0.38,0.58,-0.54,0.28,
1.1,0.01,-0.37,0.22,0.58,-0.54,0.28,
1.102,0.01,-0.37,0.22,0.58,-0.51,0.29,
1.104,0.23,-0.31,0.12,0.58,-0.51,0.29,
1.105,0.23,-0.31,0.12,0.58,-0.48,0.29,
1.106,0.23,-0.31,0.12,0.58,-0.47,0.29,
1.109,0.23,-0.31,0.12,0.58,-0.48,0.29,
1.109,0.26,-0.04,0.18,0.58,-0.48,0.29,
1.111,0.26,-0.04,0.18,0.58,-0.49,0.29,
1.114,0.26,-0.04,0.18,0.58,-0.49,0.28,
1.114,0.01,0.20,0.34,0.58,-0.49,0.28,
1.117,0.01,0.20,0.34,0.59,-0.51,0.28,
1.12,-0.19,0.31,0.46,0.59,-0.51,0.28,
1.12,-0.19,0.31,0.46,0.60,-0.52,0.29,
1.121,-0.19,0.31,0.46,0.60,-0.53,0.29,
1.125,-0.18,0.34,0.25,0.60,-0.53,0.29,
1.125,-0.18,0.34,0.25,0.61,-0.54,0.29,
1.126,-0.18,0.34,0.25,0.61,-0.55,0.29,
1.129,-0.18,0.34,0.25,0.60,-0.56,0.28,
1.129,-0.12,0.39,-0.21,0.60,-0.56,0.28,
1.131,-0.12,0.39,-0.21,0.59,-0.57,0.28,
1.134,0.05,0.50,-0.25,0.59,-0.57,0.28,
1.135,0.05,0.50,-0.25,0.57,-0.57,0.28,
1.137,0.05,0.50,-0.25,0.56,-0.58,0.28,
1.14,0.05,0.50,-0.25,0.56,-0.57,0.29,
1.14,0.33,0.41,-0.06,0.56,-0.57,0.29,
1.141,0.33,0.41,-0.06,0.56,-0.56,0.29,
1.144,0.33,0.41,-0.06,0.55,-0.55,0.30,
1.144,0.55,-0.00,-0.18,0.55,-0.55,0.30,
1.146,0.55,-0.00,-0.18,0.55,-0.52,0.30,
1.149,0.63,-0.39,-0.46,0.55,-0.52,0.30,
1.149,0.63,-0.39,-0.46,0.55,-0.49,0.30,
1.156,0.63,-0.39,-0.46,0.54,-0.45,0.29,
1.157,0.63,-0.39,-0.46,0.53,-0.42,0.28,
1.158,0.45,-0.48,-0.57,0.53,-0.42,0.28,
1.159,0.45,-0.48,-0.57,0.53,-0.39,0.27,
1.162,0.45,-0.48,-0.57,0.52,-0.36,0.27,
1.163,0.45,-0.48,-0.57,0.51,-0.35,0.28,
1.163,0.06,-0.43,-0.51,0.51,-0.35,0.28,
1.164,-0.25,-0.29,-0.29,0.51,-0.35,0.28,
1.164,-0.25,-0.29,-0.29,0.51,-0.34,0.28,
1.203,-0.25,-0.29,-0.29,0.51,-0.35,0.28,
1.229,-0.25,-0.29,-0.29,0.51,-0.36,0.28,
1.23,-0.31,-0.17,0.02,0.51,-0.36,0.28,
1.23,-0.31,-0.17,0.02,0.51,-0.38,0.28,
1.23,-0.46,-0.01,0.25,0.51,-0.38,0.28,
1.23,-0.46,-0.01,0.25,0.51,-0.41,0.28,
1.231,-0.46,-0.01,0.25,0.52,-0.43,0.29,
1.231,-0.46,-0.01,0.25,0.52,-0.45,0.30,
1.231,-0.46,-0.01,0.25,0.52,-0.47,0.31,
1.231,-0.68,0.18,0.32,0.52,-0.47,0.31,
1.232,-0.78,0.20,0.34,0.52,-0.47,0.31,
1.232,-0.78,0.20,0.34,0.52,-0.50,0.32,
1.232,-0.78,0.20,0.34,0.52,-0.52,0.34,
1.232,-0.79,0.06,0.30,0.52,-0.52,0.34,
1.233,-0.79,0.06,0.30,0.52,-0.52,0.35,
1.233,-0.79,0.06,0.30,0.52,-0.52,0.37,
1.233,-0.79,0.06,0.30,0.52,-0.52,0.38,
1.233,-0.68,0.02,0.34,0.52,-0.52,0.38,
1.234,-0.68,0.02,0.34,0.52,-0.54,0.40,
1.234,-0.68,0.02,0.34,0.53,-0.56,0.41,
1.234,-0.42,-0.02,0.49,0.53,-0.56,0.41,
1.234,-0.42,-0.02,0.49,0.53,-0.58,0.42,
1.235,-0.42,-0.02,0.49,0.54,-0.60,0.42,
1.235,-0.20,-0.01,0.50,0.54,-0.60,0.42,
1.235,-0.20,-0.01,0.50,0.54,-0.62,0.43,
1.235,-0.20,-0.01,0.50,0.55,-0.63,0.44,
1.236,-0.15,0.24,0.27,0.55,-0.63,0.44,
1.236,-0.15,0.24,0.27,0.55,-0.63,0.45,
1.236,-0.08,0.43,-0.04,0.55,-0.63,0.45,
1.236,-0.08,0.43,-0.04,0.55,-0.63,0.45,
1.237,-0.08,0.43,-0.04,0.55,-0.62,0.46,
1.237,-0.09,0.33,-0.24,0.55,-0.62,0.46,
1.237,-0.09,0.33,-0.24,0.55,-0.61,0.46,
1.237,-0.09,0.33,-0.24,0.55,-0.60,0.47,
1.238,-0.09,0.33,-0.24,0.55,-0.58,0.46,
1.238,-0.13,0.07,-0.30,0.55,-0.58,0.46,
1.238,-0.13,0.07,-0.30,0.55,-0.57,0.46,
1.238,-0.13,0.07,-0.30,0.54,-0.57,0.47,
1.239,-0.20,-0.15,-0.15,0.54,-0.57,0.47,
1.239,-0.20,-0.15,-0.15,0.54,-0.56,0.47,
1.239,-0.18,-0.25,0.07,0.54,-0.56,0.47,
1.239,-0.18,-0.25,0.07,0.54,-0.56,0.47,
1.239,-0.18,-0.25,0.07,0.54,-0.56,0.48,
1.24,-0.18,-0.25,0.07,0.55,-0.56,0.48,
1.24,-0.11,-0.33,0.21,0.55,-0.56,0.48,
1.24,-0.11,-0.33,0.21,0.55,-0.55,0.49,
1.245,-0.11,-0.33,0.21,0.56,-0.56,0.49,
1.246,-0.09,-0.34,0.16,0.56,-0.56,0.49,
1.246,-0.09,-0.34,0.16,0.56,-0.55,0.49,
1.248,-0.15,-0.28,0.09,0.56,-0.55,0.49,
1.248,-0.15,-0.28,0.09,0.56,-0.55,0.49,
1.254,-0.15,-0.28,0.09,0.56,-0.54,0.49,
1.257,-0.15,-0.28,0.09,0.57,-0.54,0.50,
1.258,-0.14,-0.19,0.02,0.57,-0.54,0.50,
1.258,-0.14,-0.19,0.02,0.57,-0.54,0.50,
1.258,-0.14,-0.19,0.02,0.56,-0.55,0.50,
1.26,0.00,-0.03,-0.07,0.56,-0.55,0.50,
1.267,0.00,-0.03,-0.07,0.56,-0.56,0.51,
1.267,0.00,-0.03,-0.07,0.55,-0.57,0.51,
1.267,0.13,0.25,-0.20,0.55,-0.57,0.51,
1.268,0.13,0.25,-0.20,0.55,-0.57,0.52,
1.268,0.13,0.25,-0.20,0.53,-0.57,0.52,
1.268,0.28,0.54,-0.21,0.53,-0.57,0.52,
1.272,0.28,0.54,-0.21,0.53,-0.57,0.53,
1.273,0.28,0.54,-0.21,0.52,-0.56,0.53,
1.273,0.34,0.62,-0.10,0.52,-0.56,0.53,
1.276,0.34,0.62,-0.10,0.52,-0.54,0.53,
1.279,0.34,0.62,-0.10,0.52,-0.52,0.53,
1.279,0.49,0.47,-0.06,0.52,-0.52,0.53,
1.281,0.49,0.47,-0.06,0.52,-0.50,0.53,
1.283,0.49,0.47,-0.06,0.52,-0.48,0.53,
1.283,0.57,0.33,-0.09,0.52,-0.48,0.53,
1.285,0.57,0.33,-0.09,0.53,-0.45,0.53,
1.288,0.57,0.29,-0.22,0.53,-0.45,0.53,
1.288,0.57,0.29,-0.22,0.53,-0.42,0.53,
1.29,0.57,0.29,-0.22,0.53,-0.40,0.53,
1.292,0.57,0.29,-0.22,0.53,-0.37,0.52,
1.292,0.44,0.17,-0.42,0.53,-0.37,0.52,
1.295,0.44,0.17,-0.42,0.53,-0.34,0.52,
1.297,0.44,0.17,-0.42,0.52,-0.31,0.52,
1.297,0.32,0.08,-0.58,0.52,-0.31,0.52,
1.3,0.32,0.08,-0.58,0.52,-0.29,0.51,
1.302,0.32,0.08,-0.58,0.51,-0.26,0.51,
1.305,0.32,0.08,-0.58,0.51,-0.25,0.51,
1.305,0.25,-0.01,-0.57,0.51,-0.25,0.51,
1.307,0.25,-0.01,-0.57,0.51,-0.25,0.51,
1.308,0.28,-0.06,-0.33,0.51,-0.25,0.51,
1.309,0.28,-0.06,-0.33,0.51,-0.24,0.51,
1.312,0.28,-0.06,-0.33,0.51,-0.24,0.51,
1.312,0.32,0.01,0.04,0.51,-0.24,0.51,
1.315,0.32,0.01,0.04,0.51,-0.25,0.51,
1.318,0.32,0.01,0.04,0.52,-0.25,0.50,
1.319,0.37,0.09,0.24,0.52,-0.25,0.50,
1.319,0.37,0.09,0.24,0.52,-0.25,0.50,
1.322,0.37,0.09,0.24,0.52,-0.24,0.50,
1.323,0.30,0.14,0.06,0.52,-0.24,0.50,
1.324,0.30,0.14,0.06,0.52,-0.23,0.50,
1.327,0.30,0.14,0.06,0.52,-0.23,0.50,
1.327,0.11,0.15,-0.01,0.52,-0.23,0.50,
1.329,0.11,0.15,-0.01,0.52,-0.23,0.50,
1.332,0.11,0.15,-0.01,0.52,-0.23,0.51,
1.351,-0.11,0.09,0.02,0.52,-0.23,0.51,
1.351,-0.11,0.09,0.02,0.52,-0.23,0.51,
1.351,-0.11,0.09,0.02,0.52,-0.25,0.51,
1.351,-0.30,0.04,-0.05,0.52,-0.25,0.51,
1.352,-0.30,0.04,-0.05,0.52,-0.26,0.52,
1.352,-0.30,0.04,-0.05,0.52,-0.28,0.52,
1.352,-0.38,0.04,-0.19,0.52,-0.28,0.52,
1.352,-0.38,0.04,-0.19,0.51,-0.30,0.53,
1.352,-0.38,0.04,-0.19,0.51,-0.32,0.53,
1.352,-0.32,0.05,-0.26,0.51,-0.32,0.53,
1.353,-0.32,0.05,-0.26,0.50,-0.35,0.54,
1.353,-0.09,0.08,-0.23,0.50,-0.35,0.54,
1.353,-0.09,0.08,-0.23,0.50,-0.37,0.55,
1.356,-0.09,0.08,-0.23,0.49,-0.38,0.55,
1.359,-0.09,0.08,-0.23,0.49,-0.40,0.55,
1.359,0.25,0.04,-0.23,0.49,-0.40,0.55,
1.363,0.54,-0.04,-0.42,0.49,-0.40,0.55,
1.363,0.54,-0.04,-0.42,0.49,-0.40,0.54,
1.363,0.54,-0.04,-0.42,0.49,-0.40,0.53,
1.365,0.54,-0.04,-0.42,0.48,-0.40,0.53,
1.372,0.54,-0.04,-0.42,0.47,-0.40,0.51,
1.379,0.66,-0.16,-0.59,0.47,-0.40,0.51,
1.38,0.66,-0.16,-0.59,0.47,-0.39,0.50,
1.38,0.66,-0.16,-0.59,0.46,-0.36,0.49,
1.38,0.58,-0.29,-0.55,0.46,-0.36,0.49,
1.381,0.58,-0.29,-0.55,0.45,-0.35,0.48,
1.381,0.58,-0.29,-0.55,0.45,-0.34,0.47,
1.382,0.53,-0.31,-0.29,0.45,-0.34,0.47,
1.382,0.53,-0.31,-0.29,0.45,-0.34,0.46,
1.382,0.53,-0.31,-0.29,0.45,-0.35,0.45,
1.388,0.62,-0.24,-0.02,0.45,-0.35,0.45,
1.389,0.62,-0.24,-0.02,0.45,-0.33,0.44,
1.389,0.62,-0.24,-0.02,0.45,-0.30,0.43,
1.389,0.60,-0.21,-0.42,0.45,-0.30,0.43,
1.39,0.60,-0.21,-0.42,0.44,-0.28,0.42,
1.397,0.60,-0.21,-0.42,0.44,-0.27,0.42,
1.397,0.49,-0.18,-0.22,0.44,-0.27,0.42,
1.397,0.49,-0.18,-0.22,0.43,-0.27,0.41,
1.398,0.49,-0.18,-0.22,0.43,-0.26,0.41,
1.398,0.34,-0.09,-0.07,0.43,-0.26,0.41,
1.402,0.34,-0.09,-0.07,0.43,-0.24,0.41,
1.404,0.10,-0.04,-0.10,0.43,-0.24,0.41,
1.404,0.10,-0.04,-0.10,0.42,-0.23,0.41,
1.405,0.10,-0.04,-0.10,0.42,-0.22,0.41,
1.406,-0.15,-0.03,0.08,0.42,-0.22,0.41,
1.407,-0.15,-0.03,0.08,0.41,-0.21,0.41,
1.408,-0.15,-0.03,0.08,0.41,-0.21,0.42,
1.411,-0.15,-0.03,0.08,0.41,-0.22,0.43,
1.411,-0.45,-0.05,0.37,0.41,-0.22,0.43,
1.413,-0.45,-0.05,0.37,0.41,-0.22,0.45,
1.416,-0.45,-0.05,0.37,0.42,-0.23,0.46,
1.416,-0.56,0.06,0.37,0.42,-0.23,0.46,
1.42,-0.56,0.06,0.37,0.42,-0.24,0.48,
1.421,-0.56,0.06,0.37,0.42,-0.25,0.49,
1.421,-0.70,0.11,0.05,0.42,-0.25,0.49,
1.423,-0.70,0.11,0.05,0.42,-0.27,0.51,
1.426,-0.70,0.11,0.05,0.41,-0.28,0.52,
1.426,-0.74,0.19,-0.28,0.41,-0.28,0.52,
1.429,-0.74,0.19,-0.28,0.41,-0.29,0.54,
1.431,-0.74,0.19,-0.28,0.40,-0.29,0.56,
1.431,-0.78,0.19,-0.42,0.40,-0.29,0.56,
1.436,-0.78,0.19,-0.42,0.40,-0.29,0.57,
1.437,-0.78,0.19,-0.42,0.40,-0.30,0.59,
1.437,-0.74,0.13,-0.33,0.40,-0.30,0.59,
1.439,-0.74,0.13,-0.33,0.39,-0.30,0.61,
1.441,-0.74,0.13,-0.33,0.40,-0.30,0.62,
1.441,-0.72,0.05,-0.16,0.40,-0.30,0.62,
1.443,-0.72,0.05,-0.16,0.40,-0.28,0.63,
1.447,-0.77,0.09,-0.21,0.40,-0.28,0.63,
1.447,-0.77,0.09,-0.21,0.41,-0.27,0.64,
1.45,-0.77,0.09,-0.21,0.41,-0.25,0.65,
1.452,-0.80,0.11,-0.70,0.41,-0.25,0.65,
1.452,-0.80,0.11,-0.70,0.40,-0.25,0.66,
1.454,-0.80,0.11,-0.70,0.39,-0.24,0.67,
1.457,-0.70,0.17,-1.30,0.39,-0.24,0.67,
1.457,-0.70,0.17,-1.30,0.38,-0.23,0.68,
1.458,-0.70,0.17,-1.30,0.36,-0.22,0.69,
1.461,-0.59,0.14,-1.17,0.36,-0.22,0.69,
1.461,-0.59,0.14,-1.17,0.34,-0.21,0.70,
1.463,-0.59,0.14,-1.17,0.33,-0.20,0.71,
1.466,-0.18,-0.15,-0.59,0.33,-0.20,0.71,
1.466,-0.18,-0.15,-0.59,0.33,-0.18,0.72,
1.469,-0.18,-0.15,-0.59,0.33,-0.17,0.72,
1.473,-0.18,-0.15,-0.59,0.33,-0.16,0.71,
1.473,0.15,-0.30,-0.19,0.33,-0.16,0.71,
1.475,0.15,-0.30,-0.19,0.33,-0.15,0.71,
1.476,0.15,-0.30,-0.19,0.33,-0.15,0.70,
1.476,0.21,-0.18,-0.15,0.33,-0.15,0.70,
1.478,0.21,-0.18,-0.15,0.33,-0.16,0.70,
1.481,0.18,-0.10,-0.47,0.33,-0.16,0.70,
1.482,0.18,-0.10,-0.47,0.33,-0.14,0.70,
1.483,0.18,-0.10,-0.47,0.32,-0.11,0.69,
1.49,0.18,-0.10,-0.47,0.31,-0.09,0.69,
1.492,0.05,-0.02,-0.58,0.31,-0.09,0.69,
1.493,0.05,-0.02,-0.58,0.31,-0.07,0.69,
1.493,0.12,-0.05,-0.26,0.31,-0.07,0.69,
1.494,0.12,-0.05,-0.26,0.31,-0.06,0.69,
1.496,0.12,-0.05,-0.26,0.31,-0.06,0.69,
1.497,0.15,-0.08,0.03,0.31,-0.06,0.69,
1.497,0.15,-0.08,0.03,0.31,-0.06,0.68,
1.524,0.04,-0.09,0.16,0.31,-0.06,0.68,
1.524,-0.06,0.02,0.02,0.31,-0.06,0.68,
1.525,-0.14,0.10,-0.23,0.31,-0.06,0.68,
1.525,-0.14,0.10,-0.23,0.31,-0.07,0.68,
1.526,-0.14,0.10,-0.23,0.32,-0.07,0.68,
1.526,-0.14,0.10,-0.23,0.32,-0.07,0.67,
1.526,-0.14,0.10,-0.23,0.33,-0.08,0.67,
1.527,-0.14,0.10,-0.23,0.33,-0.09,0.67,
1.527,-0.14,0.10,-0.23,0.33,-0.09,0.68,
1.527,-0.14,0.12,-0.32,0.33,-0.09,0.68,
1.528,-0.14,0.12,-0.32,0.32,-0.09,0.68,
1.528,-0.14,0.12,-0.32,0.32,-0.08,0.68,
1.528,-0.14,0.12,-0.32,0.32,-0.06,0.68,
1.529,-0.14,0.12,-0.32,0.32,-0.04,0.68,
1.529,-0.08,0.08,-0.22,0.32,-0.04,0.68,
1.529,-0.08,0.08,-0.22,0.32,-0.02,0.69,
1.53,-0.08,0.08,-0.22,0.32,-0.01,0.69,
1.53,-0.02,0.10,-0.06,0.32,-0.01,0.69,
1.531,-0.02,0.10,-0.06,0.32,0.01,0.69,
1.531,-0.02,0.10,-0.06,0.33,0.03,0.68,
1.531,0.03,-0.02,-0.17,0.33,0.03,0.68,
1.534,0.03,-0.02,-0.17,0.32,0.04,0.68,
1.536,0.07,-0.04,-0.27,0.32,0.04,0.68,
1.536,0.07,-0.04,-0.27,0.32,0.04,0.68,
1.538,0.07,-0.04,-0.27,0.31,0.04,0.68,
1.541,0.00,0.14,-0.23,0.31,0.04,0.68,
1.542,0.00,0.14,-0.23,0.31,0.04,0.68,
1.544,0.00,0.14,-0.23,0.31,0.04,0.68,
1.545,0.00,0.14,-0.23,0.31,0.04,0.68,
1.545,-0.15,0.14,-0.25,0.31,0.04,0.68,
1.547,-0.15,0.14,-0.25,0.31,0.03,0.68,
1.55,-0.15,0.14,-0.25,0.31,0.02,0.68,
1.55,-0.54,0.14,-0.16,0.31,0.02,0.68,
1.553,-0.54,0.14,-0.16,0.31,0.01,0.69,
1.555,-0.54,0.14,-0.16,0.32,0.01,0.70,
1.555,-0.91,0.26,-0.14,0.32,0.01,0.70,
1.557,-0.91,0.26,-0.14,0.32,0.01,0.72,
1.56,-0.91,0.26,-0.14,0.32,0.02,0.74,
1.56,-0.81,-0.21,-0.22,0.32,0.02,0.74,
1.562,-0.81,-0.21,-0.22,0.31,0.02,0.75,
1.572,-0.31,-0.57,-0.39,0.31,0.02,0.75,
1.574,0.08,-0.30,-0.40,0.31,0.02,0.75,
1.574,0.08,-0.30,-0.40,0.31,0.02,0.76,
1.574,0.08,-0.30,-0.40,0.31,0.03,0.76,
1.574,0.08,-0.30,-0.40,0.30,0.03,0.76,
1.575,0.08,-0.30,-0.40,0.30,0.04,0.75,
1.58,0.08,-0.30,-0.40,0.30,0.06,0.75,
1.58,0.08,-0.30,-0.40,0.30,0.07,0.75,
1.58,0.21,0.03,-0.29,0.30,0.07,0.75,
1.614,0.22,0.12,-0.18,0.30,0.07,0.75,
1.614,0.23,-0.17,-0.44,0.30,0.07,0.75,
1.615,0.23,-0.17,-0.44,0.30,0.09,0.75,
1.615,0.23,-0.17,-0.44,0.31,0.11,0.74,
1.615,0.23,-0.17,-0.44,0.31,0.13,0.74,
1.616,0.23,-0.17,-0.44,0.30,0.16,0.74,
1.616,0.23,-0.17,-0.44,0.29,0.17,0.73,
1.616,0.16,-0.38,-0.72,0.29,0.17,0.73,
1.617,0.16,-0.38,-0.72,0.28,0.18,0.72,
1.617,0.16,-0.38,-0.72,0.27,0.19,0.72,
1.617,-0.05,-0.28,-0.92,0.27,0.19,0.72,
1.618,-0.05,-0.28,-0.92,0.26,0.21,0.72,
1.618,-0.05,-0.28,-0.92,0.26,0.23,0.72,
1.618,-0.26,-0.13,-0.71,0.26,0.23,0.72,
1.618,-0.26,-0.13,-0.71,0.25,0.23,0.73,
1.619,-0.26,-0.13,-0.71,0.25,0.24,0.74,
1.619,-0.51,0.05,-0.25,0.25,0.24,0.74,
1.619,-0.51,0.05,-0.25,0.25,0.24,0.75,
1.62,-0.55,0.12,-0.22,0.25,0.24,0.75,
1.62,-0.55,0.12,-0.22,0.25,0.23,0.75,
1.62,-0.55,0.12,-0.22,0.24,0.23,0.77,
1.621,-0.55,0.12,-0.22,0.24,0.25,0.78,
1.621,-0.62,0.40,-0.54,0.24,0.25,0.78,
1.621,-0.62,0.40,-0.54,0.24,0.26,0.79,
1.622,-0.62,0.40,-0.54,0.23,0.27,0.80,
1.622,-0.63,0.25,-0.54,0.23,0.27,0.80,
1.622,-0.63,0.25,-0.54,0.23,0.28,0.81,
1.627,-0.63,0.25,-0.54,0.22,0.28,0.82,
1.628,-0.51,0.11,-0.39,0.22,0.28,0.82,
1.628,-0.51,0.11,-0.39,0.22,0.28,0.83,
1.63,-0.51,0.11,-0.39,0.21,0.29,0.84,
1.63,-0.44,-0.06,-0.37,0.21,0.29,0.84,
1.631,-0.44,-0.06,-0.37,0.20,0.28,0.85,
1.635,-0.44,-0.06,-0.37,0.20,0.28,0.85,
1.635,-0.23,0.04,-0.43,0.20,0.28,0.85,
1.637,-0.23,0.04,-0.43,0.20,0.29,0.85,
1.64,-0.20,0.15,-0.47,0.20,0.29,0.85,
1.64,-0.20,0.15,-0.47,0.19,0.28,0.85,
1.642,-0.20,0.15,-0.47,0.19,0.28,0.86,
1.644,-0.19,0.08,-0.62,0.19,0.28,0.86,
1.645,-0.19,0.08,-0.62,0.19,0.31,0.86,
1.647,-0.19,0.08,-0.62,0.19,0.34,0.86,
1.649,-0.19,0.08,-0.62,0.18,0.37,0.87,
1.649,-0.23,0.15,-0.64,0.18,0.37,0.87,
1.652,-0.23,0.15,-0.64,0.18,0.39,0.87,
1.655,-0.16,-0.08,-0.31,0.18,0.39,0.87,
1.656,-0.16,-0.08,-0.31,0.18,0.41,0.87,
1.656,-0.16,-0.08,-0.31,0.18,0.41,0.88,
1.659,-0.16,-0.08,-0.31,0.18,0.41,0.88,
1.659,-0.22,-0.10,0.11,0.18,0.41,0.88,
1.662,-0.22,-0.10,0.11,0.18,0.41,0.89,
1.687,-0.32,-0.03,0.22,0.18,0.41,0.89,
1.687,-0.32,-0.03,0.22,0.18,0.41,0.89,
1.687,-0.32,-0.03,0.22,0.18,0.40,0.89,
1.687,-0.32,-0.03,0.22,0.17,0.39,0.90,
1.688,-0.39,0.18,0.18,0.17,0.39,0.90,
1.688,-0.39,0.18,0.18,0.17,0.37,0.91,
1.688,-0.52,0.40,0.39,0.17,0.37,0.91,
1.688,-0.52,0.40,0.39,0.17,0.33,0.92,
1.689,-0.52,0.40,0.39,0.17,0.30,0.93,
1.689,-0.58,0.60,0.06,0.17,0.30,0.93,
1.689,-0.58,0.60,0.06,0.16,0.27,0.94,
1.69,-0.58,0.60,0.06,0.16,0.26,0.95,
1.69,-1.46,1.07,-1.41,0.16,0.26,0.95,
1.69,-1.46,1.07,-1.41,0.15,0.37,0.98,
1.69,-1.46,1.07,-1.41,0.14,0.46,1.00,
1.696,-0.89,0.80,-0.85,0.14,0.46,1.00,
1.708,-0.89,0.80,-0.85,0.11,0.45,1.02,
1.709,-0.89,0.80,-0.85,0.10,0.40,1.02,
1.709,-0.40,0.17,-0.28,0.10,0.40,1.02,
1.709,-0.40,0.17,-0.28,0.09,0.36,1.02,
1.709,-0.40,0.17,-0.28,0.09,0.37,1.02,
1.709,-0.36,0.16,-0.19,0.09,0.37,1.02,
1.71,-0.36,0.16,-0.19,0.09,0.38,1.03,
1.71,-0.19,0.52,-0.40,0.09,0.38,1.03,
1.714,-0.20,0.74,-0.37,0.09,0.38,1.03,
1.714,-0.20,0.74,-0.37,0.09,0.39,1.03,
1.714,-0.20,0.74,-0.37,0.09,0.40,1.03,
1.714,-0.20,0.74,-0.37,0.08,0.41,1.03,
1.715,-0.20,0.74,-0.37,0.07,0.42,1.03,
1.715,-0.20,0.74,-0.37,0.07,0.43,1.03,
1.715,-0.20,0.74,-0.37,0.06,0.44,1.04,
1.715,-0.34,0.68,-0.25,0.06,0.44,1.04,
1.719,-0.34,0.68,-0.25,0.06,0.44,1.04,
1.72,-0.34,0.68,-0.25,0.05,0.44,1.04,
1.72,-0.43,0.47,-0.04,0.05,0.44,1.04,
1.735,-0.43,0.47,-0.04,0.05,0.44,1.05,
1.736,-0.43,0.47,-0.04,0.05,0.44,1.06,
1.736,-0.56,0.48,0.07,0.05,0.44,1.06,
1.736,-0.56,0.48,0.07,0.05,0.44,1.06,
1.736,-0.58,0.59,-0.08,0.05,0.44,1.06,
1.736,-0.58,0.59,-0.08,0.04,0.45,1.07,
1.737,-0.58,0.59,-0.08,0.03,0.45,1.08,
1.737,-0.58,0.59,-0.08,0.02,0.44,1.08,
1.737,-0.39,0.74,-0.39,0.02,0.44,1.08,
1.737,-0.39,0.74,-0.39,0.00,0.44,1.08,
1.741,-0.51,1.02,-0.61,0.00,0.44,1.08,
1.742,-0.51,1.02,-0.61,-0.02,0.44,1.09,
1.742,-0.51,1.02,-0.61,-0.03,0.44,1.11,
1.744,-0.50,0.73,-0.36,-0.03,0.44,1.11,
1.744,-0.50,0.73,-0.36,-0.03,0.45,1.13,
1.746,-0.50,0.73,-0.36,-0.04,0.46,1.13,
1.749,-0.50,0.73,-0.36,-0.04,0.45,1.14,
1.75,-0.40,0.51,-0.10,-0.04,0.45,1.14,
1.751,-0.40,0.51,-0.10,-0.04,0.45,1.13,
1.755,-0.40,0.51,-0.10,-0.05,0.45,1.14,
1.756,-0.40,0.51,-0.10,-0.06,0.45,1.15,
1.756,-0.36,0.69,-0.04,-0.06,0.45,1.15,
1.758,-0.36,0.69,-0.04,-0.07,0.46,1.15,
1.759,-0.21,0.80,-0.25,-0.07,0.46,1.15,
1.761,-0.21,0.80,-0.25,-0.08,0.46,1.15,
1.763,-0.21,0.80,-0.25,-0.08,0.46,1.14,
1.763,-0.03,0.74,-0.17,-0.08,0.46,1.14,
1.765,-0.03,0.74,-0.17,-0.09,0.46,1.14,
1.774,-0.03,0.74,-0.17,-0.09,0.47,1.14,
1.774,0.00,0.74,-0.23,-0.09,0.47,1.14,
1.775,0.00,0.74,-0.23,-0.09,0.48,1.14,
1.775,0.00,0.74,-0.23,-0.10,0.49,1.13,
1.775,-0.14,0.78,-0.47,-0.10,0.49,1.13,
1.776,-0.14,0.78,-0.47,-0.11,0.50,1.13,
1.778,-0.14,0.78,-0.47,-0.12,0.52,1.13,
1.778,-0.28,0.93,-0.61,-0.12,0.52,1.13,
1.782,-0.28,0.93,-0.61,-0.13,0.53,1.13,
1.783,-0.28,0.93,-0.61,-0.14,0.54,1.13,
1.783,-0.35,1.04,-0.53,-0.14,0.54,1.13,
1.795,-0.35,1.04,-0.53,-0.15,0.54,1.13,
1.795,-0.35,1.04,-0.53,-0.16,0.53,1.12,
1.796,-0.34,1.05,-0.57,-0.16,0.53,1.12,
1.796,-0.34,1.05,-0.57,-0.17,0.53,1.12,
1.796,-0.34,1.05,-0.57,-0.19,0.52,1.11,
1.796,-0.44,1.20,-0.82,-0.19,0.52,1.11,
1.796,-0.44,1.20,-0.82,-0.21,0.51,1.11,
1.798,-0.44,1.20,-0.82,-0.22,0.51,1.11,
1.798,-0.73,1.45,-0.75,-0.22,0.51,1.11,
1.803,-0.73,1.45,-0.75,-0.23,0.51,1.12,
1.804,-0.73,1.45,-0.75,-0.23,0.51,1.13,
1.804,-0.94,1.71,-0.63,-0.23,0.51,1.13,
1.805,-0.94,1.71,-0.63,-0.24,0.50,1.14,
1.808,-0.94,1.71,-0.63,-0.25,0.50,1.15,
1.808,-1.11,1.78,-0.67,-0.25,0.50,1.15,
1.81,-1.11,1.78,-0.67,-0.26,0.49,1.16,
1.813,-1.11,1.78,-0.67,-0.27,0.49,1.17,
1.813,-1.25,1.87,-0.49,-0.27,0.49,1.17,
1.815,-1.25,1.87,-0.49,-0.28,0.50,1.18,
1.818,-1.25,1.87,-0.49,-0.29,0.50,1.20,
1.818,-1.33,2.05,-0.29,-0.29,0.50,1.20,
1.82,-1.33,2.05,-0.29,-0.30,0.51,1.21,
1.823,-1.33,2.05,-0.29,-0.31,0.51,1.22,
1.823,-1.31,2.07,-0.32,-0.31,0.51,1.22,
1.825,-1.31,2.07,-0.32,-0.32,0.51,1.23,
1.828,-1.31,2.07,-0.32,-0.32,0.51,1.24,
1.845,-1.41,2.18,0.07,-0.32,0.51,1.24,
1.846,-1.41,2.18,0.07,-0.33,0.51,1.26,
1.846,-1.41,2.18,0.07,-0.34,0.51,1.28,
1.847,-1.49,2.35,0.22,-0.34,0.51,1.28,
1.847,-1.49,2.35,0.22,-0.35,0.52,1.30,
1.847,-1.49,2.35,0.22,-0.37,0.51,1.32,
1.847,-1.60,2.51,0.30,-0.37,0.51,1.32,
1.848,-1.60,2.51,0.30,-0.38,0.51,1.34,
1.848,-1.60,2.51,0.30,-0.39,0.51,1.36,
1.848,-1.74,2.73,0.45,-0.39,0.51,1.36,
1.849,-1.74,2.73,0.45,-0.40,0.50,1.38,
1.849,-1.74,2.90,0.62,-0.40,0.50,1.38,
1.849,-1.74,2.90,0.62,-0.42,0.49,1.40,
1.851,-1.74,2.90,0.62,-0.43,0.47,1.41,
1.854,-1.74,2.90,0.62,-0.45,0.46,1.43,
1.855,-1.74,2.90,0.62,-0.46,0.45,1.45,
1.856,-1.82,3.12,0.31,-0.46,0.45,1.45,
1.858,-1.91,3.45,0.31,-0.46,0.45,1.45,
1.858,-1.91,3.45,0.31,-0.47,0.44,1.47,
1.86,-1.91,3.45,0.31,-0.48,0.44,1.50,
1.862,-1.95,3.69,0.21,-0.48,0.44,1.50,
1.863,-1.95,3.69,0.21,-0.48,0.45,1.55,
1.865,-1.95,3.69,0.21,-0.49,0.46,1.59,
1.867,-1.95,3.69,0.21,-0.51,0.48,1.63,
1.868,-1.80,3.89,0.20,-0.51,0.48,1.63,
1.875,-1.80,3.89,0.20,-0.52,0.48,1.66,
1.875,-1.80,3.89,0.20,-0.53,0.48,1.69,
1.876,-1.68,3.99,0.51,-0.53,0.48,1.69,
1.876,-1.68,3.99,0.51,-0.53,0.48,1.72,
1.879,-1.68,3.99,0.51,-0.54,0.49,1.74,
1.88,-1.80,4.14,0.27,-0.54,0.49,1.74,
1.88,-1.80,4.14,0.27,-0.55,0.50,1.76,
1.886,-1.80,4.14,0.27,-0.56,0.49,1.78,
1.887,-2.03,4.21,0.10,-0.56,0.49,1.78,
1.887,-2.03,4.21,0.10,-0.57,0.46,1.79,
1.904,-2.03,4.21,0.10,-0.59,0.42,1.81,
1.904,-2.03,4.21,0.10,-0.60,0.41,1.83,
1.905,-2.32,4.35,-0.07,-0.60,0.41,1.83,
1.905,-2.32,4.35,-0.07,-0.61,0.43,1.85,
1.905,-3.05,4.52,0.01,-0.61,0.43,1.85,
1.905,-3.05,4.52,0.01,-0.62,0.47,1.89,
1.906,-3.05,4.52,0.01,-0.62,0.50,1.92,
1.906,-3.33,4.43,0.33,-0.62,0.50,1.92,
1.906,-3.33,4.43,0.33,-0.64,0.53,1.95,
1.906,-3.33,4.43,0.33,-0.66,0.55,1.97,
1.906,-3.56,4.62,0.23,-0.66,0.55,1.97,
1.907,-3.56,4.62,0.23,-0.70,0.56,1.99,
1.907,-3.56,4.62,0.23,-0.73,0.58,2.01,
1.907,-3.98,5.36,-0.26,-0.73,0.58,2.01,
1.91,-3.98,5.36,-0.26,-0.76,0.59,2.03,
1.912,-3.98,5.36,-0.26,-0.78,0.58,2.05,
1.912,-4.45,6.28,-0.47,-0.78,0.58,2.05,
1.914,-4.45,6.28,-0.47,-0.80,0.57,2.07,
1.918,-4.45,6.28,-0.47,-0.80,0.57,2.10,
1.918,-5.23,6.82,-1.31,-0.80,0.57,2.10,
1.92,-5.23,6.82,-1.31,-0.80,0.56,2.13,
1.922,-6.36,7.43,-1.27,-0.80,0.56,2.13,
1.923,-6.36,7.43,-1.27,-0.80,0.55,2.18,
1.927,-6.36,7.43,-1.27,-0.79,0.56,2.24,
1.927,-6.36,7.43,-1.27,-0.79,0.58,2.31,
1.927,-7.50,7.81,-1.30,-0.79,0.58,2.31,
1.929,-7.50,7.81,-1.30,-0.81,0.61,2.38,
1.933,-7.50,7.81,-1.30,-0.82,0.66,2.44,
1.933,-8.40,8.08,-1.22,-0.82,0.66,2.44,
1.935,-8.40,8.08,-1.22,-0.85,0.72,2.51,
1.937,-8.40,8.08,-1.22,-0.87,0.79,2.58,
1.937,-9.47,8.54,-1.54,-0.87,0.79,2.58,
1.939,-9.47,8.54,-1.54,-0.89,0.83,2.65,
1.942,-9.47,8.54,-1.54,-0.92,0.86,2.72,
1.942,-10.14,9.04,-1.91,-0.92,0.86,2.72,
1.944,-10.14,9.04,-1.91,-0.93,0.87,2.79,
1.947,-10.14,9.04,-1.91,-0.95,0.85,2.85,
1.947,-10.95,9.54,-2.12,-0.95,0.85,2.85,
1.95,-10.95,9.54,-2.12,-0.96,0.83,2.93,
1.954,-11.72,10.02,-2.57,-0.96,0.83,2.93,
1.955,-11.72,10.02,-2.57,-0.96,0.82,3.00,
1.957,-11.72,10.02,-2.57,-0.97,0.81,3.08,
1.958,-12.12,10.49,-3.51,-0.97,0.81,3.08,
1.959,-12.12,10.49,-3.51,-0.97,0.81,3.17,
1.96,-12.12,10.49,-3.51,-0.96,0.81,3.27,
1.962,-12.12,10.49,-3.51,-0.94,0.81,3.39,
1.962,-12.05,11.00,-4.29,-0.94,0.81,3.39,
1.964,-12.05,11.00,-4.29,-0.89,0.81,3.52,
1.967,-12.05,11.00,-4.29,-0.84,0.81,3.66,
1.967,-11.11,11.47,-5.22,-0.84,0.81,3.66,
1.979,-11.11,11.47,-5.22,-0.78,0.80,3.79,
1.98,-9.79,12.11,-6.17,-0.78,0.80,3.79,
1.981,-9.79,12.11,-6.17,-0.75,0.79,3.91,
1.982,-9.79,12.11,-6.17,-0.72,0.76,4.04,
1.982,-9.79,12.11,-6.17,-0.68,0.72,4.16,
1.983,-8.73,12.79,-6.21,-0.68,0.72,4.16,
1.983,-8.73,12.79,-6.21,-0.64,0.71,4.28,
2.02,-7.35,13.33,-6.34,-0.64,0.71,4.28,
2.022,-5.78,13.63,-5.75,-0.64,0.71,4.28,
2.022,-5.78,13.63,-5.75,-0.60,0.73,4.39,
2.023,-5.78,13.63,-5.75,-0.57,0.80,4.46,
2.023,-5.78,13.63,-5.75,-0.53,0.89,4.49,
2.024,-5.78,13.63,-5.75,-0.50,0.99,4.49,
2.024,-5.78,13.63,-5.75,-0.47,1.09,4.45,
2.025,-4.71,13.59,-4.80,-0.47,1.09,4.45,
2.058,-4.71,13.59,-4.80,-0.45,1.19,4.38,
2.058,-4.71,13.59,-4.80,-0.44,1.29,4.30,
2.059,-4.05,12.87,-3.86,-0.44,1.29,4.30,
2.06,-4.05,12.87,-3.86,-0.44,1.37,4.21,
2.06,-4.05,12.87,-3.86,-0.44,1.45,4.13,
2.061,-4.23,11.53,-3.01,-0.44,1.45,4.13,
2.061,-4.23,11.53,-3.01,-0.44,1.50,4.07,
2.062,-4.47,9.99,-2.44,-0.44,1.50,4.07,
2.062,-4.47,9.99,-2.44,-0.44,1.54,4.04,
2.063,-4.47,9.99,-2.44,-0.44,1.56,4.01,
2.063,-4.47,9.99,-2.44,-0.37,1.57,3.98,
2.064,-3.90,8.37,-1.82,-0.37,1.57,3.98,
2.064,-3.90,8.37,-1.82,-0.27,1.58,3.94,
2.064,-3.90,8.37,-1.82,-0.19,1.59,3.88,
2.065,-3.43,6.86,-2.93,-0.19,1.59,3.88,
2.065,-3.43,6.86,-2.93,-0.13,1.57,3.81,
2.065,-3.42,6.21,-3.67,-0.13,1.57,3.81,
2.065,-3.42,6.21,-3.67,-0.09,1.52,3.72,
2.066,-3.42,6.21,-3.67,-0.07,1.47,3.60,
2.066,-3.42,6.21,-3.67,-0.07,1.43,3.46,
2.066,-3.43,6.10,-3.76,-0.07,1.43,3.46,
2.066,-3.43,6.10,-3.76,-0.07,1.42,3.29,
2.067,-3.43,6.10,-3.76,-0.07,1.47,3.12,
2.067,-3.94,6.25,-3.02,-0.07,1.47,3.12,
2.067,-3.94,6.25,-3.02,-0.05,1.56,2.97,
2.067,-3.94,6.25,-3.02,-0.02,1.68,2.82,
2.068,-4.66,5.93,-2.10,-0.02,1.68,2.82,
2.068,-4.66,5.93,-2.10,0.02,1.82,2.70,
2.068,-4.66,5.93,-2.10,0.06,1.95,2.59,
2.068,-5.30,5.03,-1.75,0.06,1.95,2.59,
2.069,-5.30,5.03,-1.75,0.10,2.07,2.49,
2.069,-5.30,5.03,-1.75,0.14,2.16,2.40,
2.069,-5.47,3.86,-1.96,0.14,2.16,2.40,
2.069,-5.47,3.86,-1.96,0.17,2.26,2.30,
2.07,-5.47,3.86,-1.96,0.20,2.35,2.21,
2.07,-5.09,2.41,-2.12,0.20,2.35,2.21,
2.07,-5.09,2.41,-2.12,0.25,2.45,2.13,
2.07,-4.23,0.39,-1.47,0.25,2.45,2.13,
2.071,-4.23,0.39,-1.47,0.34,2.52,2.08,
2.071,-4.23,0.39,-1.47,0.42,2.57,2.07,
2.071,-4.23,0.39,-1.47,0.46,2.58,2.08,
2.071,-2.67,-1.54,-1.39,0.46,2.58,2.08,
2.071,-2.67,-1.54,-1.39,0.47,2.56,2.10,
2.072,-2.67,-1.54,-1.39,0.47,2.52,2.11,
2.072,-0.84,-2.93,-1.93,0.47,2.52,2.11,
2.072,-0.84,-2.93,-1.93,0.47,2.48,2.06,
2.072,-0.84,-2.93,-1.93,0.45,2.45,1.93,
2.073,0.93,-3.78,-2.88,0.45,2.45,1.93,
2.073,0.93,-3.78,-2.88,0.41,2.42,1.70,
2.076,2.34,-4.02,-2.62,0.41,2.42,1.70,
2.076,2.34,-4.02,-2.62,0.37,2.40,1.40,
2.078,2.34,-4.02,-2.62,0.34,2.39,1.03,
2.081,2.34,-4.02,-2.62,0.32,2.40,0.65,
2.082,1.59,-3.62,-2.04,0.32,2.40,0.65,
2.083,1.59,-3.62,-2.04,0.30,2.47,0.29,
2.086,1.59,-3.62,-2.04,0.30,2.58,-0.02,
2.087,-2.27,-2.54,-1.63,0.30,2.58,-0.02,
2.095,-2.27,-2.54,-1.63,0.32,2.72,-0.27,
2.096,-2.27,-2.54,-1.63,0.34,2.84,-0.48,
2.096,-5.36,-2.01,-0.86,0.34,2.84,-0.48,
2.096,-5.36,-2.01,-0.86,0.36,2.94,-0.65,
2.097,-5.36,-2.01,-0.86,0.39,3.01,-0.78,
2.097,-7.75,-1.92,-0.24,0.39,3.01,-0.78,
2.101,-9.47,-2.19,0.08,0.39,3.01,-0.78,
2.104,-9.47,-2.19,0.08,0.42,3.04,-0.89,
2.104,-9.47,-2.19,0.08,0.44,3.02,-0.97,
2.104,-9.47,-2.19,0.08,0.47,2.98,-1.03,
2.113,-9.47,-2.19,0.08,0.49,2.91,-1.09,
2.114,-10.65,-2.72,0.17,0.49,2.91,-1.09,
2.114,-10.65,-2.72,0.17,0.52,2.81,-1.13,
2.114,-10.65,-2.72,0.17,0.54,2.68,-1.17,
2.115,-11.29,-3.14,0.22,0.54,2.68,-1.17,
2.115,-11.29,-3.14,0.22,0.56,2.51,-1.20,
2.115,-11.27,-3.62,0.44,0.56,2.51,-1.20,
2.116,-11.27,-3.62,0.44,0.59,2.31,-1.24,
2.119,-11.27,-3.62,0.44,0.62,2.07,-1.28,
2.121,-10.74,-4.14,0.49,0.62,2.07,-1.28,
2.121,-10.74,-4.14,0.49,0.64,1.81,-1.32,
2.123,-10.74,-4.14,0.49,0.67,1.53,-1.36,
2.127,-10.74,-4.14,0.49,0.70,1.25,-1.41,
2.127,-9.91,-4.59,0.42,0.70,1.25,-1.41,
2.128,-9.91,-4.59,0.42,0.73,0.98,-1.46,
2.131,-9.91,-4.59,0.42,0.76,0.73,-1.51,
2.131,-8.76,-4.96,0.07,0.76,0.73,-1.51,
2.133,-8.76,-4.96,0.07,0.79,0.51,-1.56,
2.135,-8.76,-4.96,0.07,0.83,0.33,-1.62,
2.135,-7.46,-5.00,-0.29,0.83,0.33,-1.62,
2.138,-7.46,-5.00,-0.29,0.87,0.18,-1.68,
2.141,-6.11,-4.97,-0.43,0.87,0.18,-1.68,
2.141,-6.11,-4.97,-0.43,0.90,0.06,-1.75,
2.143,-6.11,-4.97,-0.43,0.94,-0.04,-1.83,
2.145,-4.98,-4.83,-0.47,0.94,-0.04,-1.83,
2.145,-4.98,-4.83,-0.47,0.98,-0.11,-1.92,
2.147,-4.98,-4.83,-0.47,1.02,-0.15,-2.01,
2.15,-4.98,-4.83,-0.47,1.07,-0.18,-2.11,
2.15,-4.23,-4.70,-0.43,1.07,-0.18,-2.11,
2.152,-4.23,-4.70,-0.43,1.11,-0.20,-2.22,
2.155,-3.95,-4.58,-0.47,1.11,-0.20,-2.22,
2.155,-3.95,-4.58,-0.47,1.15,-0.20,-2.33,
2.158,-3.95,-4.58,-0.47,1.18,-0.18,-2.44,
2.171,-4.07,-4.51,-0.40,1.18,-0.18,-2.44,
2.171,-4.07,-4.51,-0.40,1.22,-0.17,-2.56,
2.171,-4.07,-4.51,-0.40,1.25,-0.14,-2.68,
2.171,-4.45,-4.50,-0.20,1.25,-0.14,-2.68,
2.172,-4.45,-4.50,-0.20,1.28,-0.12,-2.80,
2.172,-4.45,-4.50,-0.20,1.32,-0.11,-2.91,
2.172,-4.45,-4.50,-0.20,1.35,-0.11,-3.02,
2.172,-5.00,-4.47,0.06,1.35,-0.11,-3.02,
2.184,-5.00,-4.47,0.06,1.38,-0.13,-3.13,
2.185,-5.00,-4.47,0.06,1.41,-0.17,-3.23,
2.185,-5.76,-4.50,0.47,1.41,-0.17,-3.23,
2.185,-5.76,-4.50,0.47,1.44,-0.24,-3.32,
2.185,-6.47,-4.58,0.89,1.44,-0.24,-3.32,
2.185,-6.47,-4.58,0.89,1.46,-0.34,-3.41,
2.186,-6.47,-4.58,0.89,1.49,-0.44,-3.48,
2.186,-6.90,-4.55,0.89,1.49,-0.44,-3.48,
2.186,-6.90,-4.55,0.89,1.52,-0.53,-3.55,
2.226,-6.90,-4.55,0.89,1.54,-0.61,-3.61,
2.227,-6.90,-4.55,0.89,1.57,-0.68,-3.67,
2.228,-6.97,-4.50,0.83,1.57,-0.68,-3.67,
2.228,-6.97,-4.50,0.83,1.60,-0.74,-3.73,
2.228,-6.69,-4.36,0.60,1.60,-0.74,-3.73,
2.229,-6.69,-4.36,0.60,1.62,-0.80,-3.78,
2.229,-6.69,-4.36,0.60,1.63,-0.89,-3.83,
2.229,-6.27,-4.15,0.74,1.63,-0.89,-3.83,
2.23,-6.27,-4.15,0.74,1.64,-1.01,-3.89,
2.23,-6.27,-4.15,0.74,1.65,-1.12,-3.96,
2.23,-5.70,-3.81,0.91,1.65,-1.12,-3.96,
2.23,-5.70,-3.81,0.91,1.66,-1.18,-4.04,
2.231,-5.70,-3.81,0.91,1.68,-1.22,-4.13,
2.232,-5.70,-3.81,0.91,1.70,-1.23,-4.22,
2.232,-5.37,-3.45,1.12,1.70,-1.23,-4.22,
2.232,-5.37,-3.45,1.12,1.72,-1.23,-4.31,
2.233,-5.37,-3.45,1.12,1.73,-1.21,-4.39,
2.233,-5.11,-3.03,1.19,1.73,-1.21,-4.39,
2.233,-5.11,-3.03,1.19,1.75,-1.18,-4.47,
2.233,-5.11,-3.03,1.19,1.77,-1.15,-4.54,
2.234,-4.83,-2.64,1.14,1.77,-1.15,-4.54,
2.234,-4.83,-2.64,1.14,1.78,-1.12,-4.60,
2.235,-4.63,-2.39,1.04,1.78,-1.12,-4.60,
2.235,-4.63,-2.39,1.04,1.79,-1.09,-4.66,
2.235,-4.63,-2.39,1.04,1.80,-1.06,-4.71,
2.235,-4.63,-2.39,1.04,1.81,-1.01,-4.77,
2.236,-4.48,-2.32,0.87,1.81,-1.01,-4.77,
2.236,-4.48,-2.32,0.87,1.81,-0.97,-4.84,
2.238,-4.48,-2.32,0.87,1.82,-0.92,-4.90,
2.238,-4.47,-2.31,0.70,1.82,-0.92,-4.90,
2.24,-4.47,-2.31,0.70,1.82,-0.87,-4.96,
2.24,-4.41,-2.25,0.53,1.82,-0.87,-4.96,
2.241,-4.41,-2.25,0.53,1.82,-0.82,-5.03,
2.244,-4.41,-2.25,0.53,1.82,-0.78,-5.10,
2.245,-4.41,-2.25,0.53,1.82,-0.74,-5.17,
2.245,-4.45,-2.06,0.46,1.82,-0.74,-5.17,
2.246,-4.45,-2.06,0.46,1.81,-0.71,-5.23,
2.249,-4.45,-2.06,0.46,1.81,-0.69,-5.29,
2.249,-4.55,-1.82,0.64,1.81,-0.69,-5.29,
2.251,-4.55,-1.82,0.64,1.81,-0.70,-5.35,
2.254,-4.55,-1.82,0.64,1.80,-0.72,-5.41,
2.254,-4.54,-1.58,1.06,1.80,-0.72,-5.41,
2.259,-4.54,-1.58,1.06,1.80,-0.75,-5.47,
2.259,-4.34,-1.36,1.32,1.80,-0.75,-5.47,
2.26,-4.34,-1.36,1.32,1.80,-0.78,-5.53,
2.263,-4.34,-1.36,1.32,1.79,-0.80,-5.58,
2.265,-4.34,-1.36,1.32,1.78,-0.82,-5.64,
2.265,-3.99,-1.26,1.54,1.78,-0.82,-5.64,
2.266,-3.99,-1.26,1.54,1.78,-0.84,-5.69,
2.269,-3.99,-1.26,1.54,1.77,-0.86,-5.74,
2.269,-3.53,-1.21,1.83,1.77,-0.86,-5.74,
2.273,-3.53,-1.21,1.83,1.76,-0.88,-5.79,
2.274,-3.53,-1.21,1.83,1.75,-0.91,-5.84,
2.274,-2.98,-1.16,2.07,1.75,-0.91,-5.84,
2.276,-2.98,-1.16,2.07,1.74,-0.94,-5.90,
2.279,-2.98,-1.16,2.07,1.73,-0.98,-5.96,
2.279,-2.39,-0.99,2.24,1.73,-0.98,-5.96,
2.282,-2.39,-0.99,2.24,1.72,-1.02,-6.02,
2.284,-2.39,-0.99,2.24,1.71,-1.07,-6.09,
2.284,-1.90,-0.75,2.41,1.71,-1.07,-6.09,
2.286,-1.90,-0.75,2.41,1.70,-1.11,-6.15,
2.297,-1.90,-0.75,2.41,1.70,-1.15,-6.22,
2.298,-1.45,-0.43,2.45,1.70,-1.15,-6.22,
2.298,-1.45,-0.43,2.45,1.69,-1.19,-6.29,
2.298,-1.45,-0.43,2.45,1.67,-1.22,-6.36,
2.298,-1.12,-0.03,2.42,1.67,-1.22,-6.36,
2.298,-1.12,-0.03,2.42,1.66,-1.26,-6.43,
2.305,-1.12,-0.03,2.42,1.64,-1.30,-6.50,
2.306,-1.12,-0.03,2.42,1.62,-1.34,-6.56,
2.306,-0.94,0.43,2.36,1.62,-1.34,-6.56,
2.306,-0.94,0.43,2.36,1.60,-1.38,-6.63,
2.307,-0.94,0.43,2.36,1.57,-1.42,-6.70,
2.307,-0.82,0.93,2.29,1.57,-1.42,-6.70,
2.314,-0.82,0.93,2.29,1.54,-1.45,-6.76,
2.314,-0.82,0.93,2.29,1.52,-1.49,-6.83,
2.314,-0.76,1.50,2.27,1.52,-1.49,-6.83,
2.314,-0.73,2.09,2.35,1.52,-1.49,-6.83,
2.315,-0.73,2.09,2.35,1.49,-1.52,-6.88,
2.316,-0.73,2.09,2.35,1.47,-1.56,-6.94,
2.318,-0.73,2.09,2.35,1.44,-1.60,-6.99,
2.319,-0.65,2.78,2.43,1.44,-1.60,-6.99,
2.321,-0.65,2.78,2.43,1.41,-1.65,-7.04,
2.323,-0.65,2.78,2.43,1.38,-1.69,-7.09,
2.338,-0.52,3.49,2.56,1.38,-1.69,-7.09,
2.339,-0.52,3.49,2.56,1.36,-1.75,-7.13,
2.339,-0.52,3.49,2.56,1.34,-1.81,-7.17,
2.339,-0.52,3.49,2.56,1.33,-1.88,-7.20,
2.339,-0.35,4.30,2.67,1.33,-1.88,-7.20,
2.34,-0.01,5.27,2.65,1.33,-1.88,-7.20,
2.34,-0.01,5.27,2.65,1.32,-1.97,-7.23,
2.34,-0.01,5.27,2.65,1.31,-2.07,-7.25,
2.34,-0.01,5.27,2.65,1.30,-2.20,-7.28,
2.341,0.56,6.47,2.44,1.30,-2.20,-7.28,
2.341,0.56,6.47,2.44,1.28,-2.33,-7.30,
2.343,0.56,6.47,2.44,1.27,-2.47,-7.33,
2.344,1.25,7.88,2.12,1.27,-2.47,-7.33,
2.347,1.25,7.88,2.12,1.25,-2.61,-7.36,
2.348,1.25,7.88,2.12,1.23,-2.76,-7.38,
2.349,1.95,9.33,1.76,1.23,-2.76,-7.38,
2.351,1.95,9.33,1.76,1.21,-2.91,-7.40,
2.353,1.95,9.33,1.76,1.18,-3.06,-7.44,
2.353,3.14,12.17,1.35,1.18,-3.06,-7.44,
2.358,3.14,12.17,1.35,1.17,-3.17,-7.50,
2.361,3.30,13.68,1.20,1.17,-3.17,-7.50,
2.361,3.30,13.68,1.20,1.15,-3.31,-7.50,
2.361,3.30,13.68,1.20,1.14,-3.46,-7.44,
2.363,3.30,13.68,1.20,1.12,-3.60,-7.36,
2.364,3.55,13.74,1.14,1.12,-3.60,-7.36,
2.366,3.55,13.74,1.14,1.11,-3.72,-7.27,
2.369,4.32,14.22,1.17,1.11,-3.72,-7.27,
2.369,4.32,14.22,1.17,1.10,-3.83,-7.18,
2.376,4.32,14.22,1.17,1.09,-3.92,-7.08,
2.376,4.32,14.22,1.17,1.08,-4.00,-6.96,
2.376,5.42,15.02,0.71,1.08,-4.00,-6.96,
2.377,5.42,15.02,0.71,1.06,-4.06,-6.82,
2.378,5.42,15.02,0.71,1.02,-4.10,-6.65,
2.378,6.48,15.69,-0.98,1.02,-4.10,-6.65,
2.38,6.48,15.69,-0.98,0.96,-4.10,-6.44,
2.383,6.48,15.69,-0.98,0.88,-4.03,-6.21,
2.383,7.60,15.99,-4.09,0.88,-4.03,-6.21,
2.385,7.60,15.99,-4.09,0.78,-3.87,-5.94,
2.39,7.60,15.99,-4.09,0.69,-3.64,-5.66,
2.39,9.79,16.17,-6.27,0.69,-3.64,-5.66,
2.391,9.79,16.17,-6.27,0.62,-3.45,-5.37,
2.393,9.79,16.17,-6.27,0.57,-3.29,-5.09,
2.393,13.38,17.10,-5.36,0.57,-3.29,-5.09,
2.396,13.38,17.10,-5.36,0.54,-3.11,-4.84,
2.399,13.38,17.10,-5.36,0.52,-2.91,-4.62,
2.399,17.36,18.42,-5.00,0.52,-2.91,-4.62,
2.401,17.36,18.42,-5.00,0.54,-2.86,-4.36,
2.402,17.36,18.42,-5.00,0.59,-2.88,-4.08,
2.403,17.32,16.77,-1.30,0.59,-2.88,-4.08,
2.405,17.32,16.77,-1.30,0.66,-2.89,-3.82,
2.408,17.32,16.77,-1.30,0.69,-2.91,-3.57,
2.408,19.65,12.41,-0.36,0.69,-2.91,-3.57,
2.411,19.65,12.41,-0.36,0.67,-2.90,-3.30,
2.413,19.65,12.41,-0.36,0.64,-2.78,-3.02,
2.413,21.10,8.16,-4.36,0.64,-2.78,-3.02,
2.415,21.10,8.16,-4.36,0.56,-2.51,-2.71,
2.418,21.10,8.16,-4.36,0.45,-2.16,-2.32,
2.418,19.91,5.69,-9.18,0.45,-2.16,-2.32,
2.42,19.91,5.69,-9.18,0.35,-1.77,-1.85,
2.423,18.54,3.76,-9.48,0.35,-1.77,-1.85,
2.424,18.54,3.76,-9.48,0.27,-1.39,-1.29,
2.425,18.54,3.76,-9.48,0.29,-1.01,-0.69,
2.428,18.54,3.76,-9.48,0.29,-0.70,-0.03,
2.428,18.03,2.32,-8.12,0.29,-0.70,-0.03,
2.43,18.03,2.32,-8.12,0.18,-0.56,0.73,
2.432,18.03,2.32,-8.12,0.27,-0.46,1.43,
2.433,18.90,0.69,-4.49,0.27,-0.46,1.43,
2.435,18.90,0.69,-4.49,0.38,-0.39,2.06,
2.438,18.90,0.69,-4.49,0.17,-0.50,2.76,
2.44,19.10,0.45,-4.75,0.17,-0.50,2.76,
2.441,19.10,0.45,-4.75,0.17,-0.58,3.41,
2.442,19.10,0.45,-4.75,0.20,-0.63,3.98,
2.443,20.31,-0.28,-4.99,0.20,-0.63,3.98,
2.445,20.31,-0.28,-4.99,0.21,-0.63,4.35,
2.448,20.31,-0.28,-4.99,0.19,-0.55,4.50,
2.448,23.14,-0.33,-5.19,0.19,-0.55,4.50,
2.45,23.14,-0.33,-5.19,0.14,-0.46,4.46,
2.452,23.14,-0.33,-5.19,0.13,-0.36,4.26,
2.452,25.38,0.09,-3.41,0.13,-0.36,4.26,
2.456,25.38,0.09,-3.41,0.15,-0.31,3.96,
2.459,25.38,0.09,-3.41,0.10,-0.35,3.61,
2.459,25.34,1.79,-2.06,0.10,-0.35,3.61,
2.46,25.34,1.79,-2.06,0.04,-0.44,3.29,
2.462,25.34,1.79,-2.06,-0.09,-0.52,3.07,
2.463,18.41,3.81,-1.37,-0.09,-0.52,3.07,
2.465,18.41,3.81,-1.37,-0.20,-0.52,2.94,
2.467,18.41,3.81,-1.37,-0.29,-0.38,2.82,
2.468,10.93,4.87,1.00,-0.29,-0.38,2.82,
2.47,10.93,4.87,1.00,-0.35,-0.13,2.67,
2.474,10.93,4.87,1.00,-0.38,0.25,2.50,
2.476,3.60,5.28,4.69,-0.38,0.25,2.50,
2.476,3.60,5.28,4.69,-0.40,0.70,2.33,
2.484,-4.09,6.20,7.71,-0.40,0.70,2.33,
2.484,-4.09,6.20,7.71,-0.38,1.18,2.17,
2.485,-4.09,6.20,7.71,-0.33,1.62,1.94,
2.485,-4.09,6.20,7.71,-0.26,1.93,1.66,
2.485,-5.76,6.82,8.31,-0.26,1.93,1.66,
2.485,-5.76,6.82,8.31,-0.22,2.07,1.36,
2.49,-5.76,6.82,8.31,-0.19,1.99,1.14,
2.492,-7.46,7.03,7.18,-0.19,1.99,1.14,
2.521,-7.46,7.03,7.18,-0.14,1.68,1.08,
2.521,-9.85,7.56,6.03,-0.14,1.68,1.08,
2.521,-9.85,7.56,6.03,-0.08,1.18,1.18,
2.522,-9.85,7.56,6.03,-0.06,0.53,1.45,
2.522,-11.50,8.40,4.53,-0.06,0.53,1.45,
2.522,-11.50,8.40,4.53,-0.05,-0.19,1.85,
2.523,-12.13,8.70,3.46,-0.05,-0.19,1.85,
2.523,-12.13,8.70,3.46,-0.11,-0.87,2.32,
2.523,-12.13,8.70,3.46,-0.19,-1.43,2.78,
2.523,-12.13,8.70,3.46,-0.21,-1.81,3.21,
2.524,-12.13,8.70,3.46,-0.11,-1.99,3.57,
2.524,-12.13,8.70,3.46,0.24,-2.04,3.86,
2.524,-12.13,8.70,3.46,0.77,-2.09,4.00,
2.524,-12.13,8.70,3.46,1.24,-2.33,3.94,
2.525,-12.13,8.70,3.46,1.66,-2.84,3.75,
2.525,-12.13,8.70,3.46,1.73,-3.53,3.54,
2.525,-11.68,7.92,4.61,1.73,-3.53,3.54,
2.526,-6.70,4.63,1.55,1.73,-3.53,3.54,
2.526,0.14,0.83,-8.00,1.73,-3.53,3.54,
2.526,1.76,-0.44,-14.78,1.73,-3.53,3.54,
2.526,1.76,-0.44,-14.78,1.45,-4.33,3.40,
2.526,1.76,-0.44,-14.78,0.97,-5.16,3.40,
2.527,3.10,-0.44,-11.06,0.97,-5.16,3.40,
2.531,3.10,-0.44,-11.06,0.47,-5.85,3.53,
2.531,3.10,-0.44,-11.06,0.06,-6.26,3.77,
2.533,7.74,2.51,-2.83,0.06,-6.26,3.77,
2.533,7.74,2.51,-2.83,-0.18,-6.40,4.05,
2.536,7.74,2.51,-2.83,-0.26,-6.33,4.31,
2.538,7.74,2.51,-2.83,-0.21,-6.11,4.52,
2.538,13.85,4.32,4.41,-0.21,-6.11,4.52,
2.539,13.85,4.32,4.41,-0.03,-5.76,4.61,
2.544,13.85,4.32,4.41,0.23,-5.26,4.57,
2.544,19.82,4.83,4.46,0.23,-5.26,4.57,
2.545,19.82,4.83,4.46,0.49,-4.59,4.44,
2.548,19.82,4.83,4.46,0.68,-3.81,4.24,
2.548,23.19,6.76,0.64,0.68,-3.81,4.24,
2.55,23.19,6.76,0.64,0.79,-2.95,3.98,
2.552,23.19,6.76,0.64,0.83,-2.02,3.67,
2.552,23.82,5.15,-2.88,0.83,-2.02,3.67,
2.554,23.82,5.15,-2.88,0.83,-1.10,3.34,
2.557,23.82,5.15,-2.88,0.81,-0.26,3.01,
2.557,21.85,-0.45,-3.81,0.81,-0.26,3.01,
2.562,18.61,-5.66,-2.22,0.81,-0.26,3.01,
2.562,18.61,-5.66,-2.22,0.79,0.41,2.68,
2.562,18.61,-5.66,-2.22,0.79,0.84,2.37,
2.564,18.61,-5.66,-2.22,0.77,1.10,2.05,
2.567,18.61,-5.66,-2.22,0.72,1.25,1.73,
2.567,15.65,-8.39,-2.01,0.72,1.25,1.73,
2.569,15.65,-8.39,-2.01,0.64,1.34,1.42,
2.578,15.65,-8.39,-2.01,0.56,1.41,1.18,
2.579,11.08,-6.87,-1.95,0.56,1.41,1.18,
2.579,11.08,-6.87,-1.95,0.51,1.53,0.99,
2.579,11.08,-6.87,-1.95,0.47,1.68,0.86,
2.579,7.28,-3.30,-1.49,0.47,1.68,0.86,
2.592,4.76,-0.61,-0.52,0.47,1.68,0.86,
2.593,2.80,0.76,0.92,0.47,1.68,0.86,
2.593,2.80,0.76,0.92,0.44,1.84,0.76,
2.593,2.80,0.76,0.92,0.42,1.95,0.70,
2.594,2.80,0.76,0.92,0.40,2.03,0.65,
2.594,2.80,0.76,0.92,0.40,2.08,0.61,
2.594,2.80,0.76,0.92,0.43,2.12,0.58,
2.595,0.98,1.14,2.05,0.43,2.12,0.58,
2.595,0.98,1.14,2.05,0.47,2.17,0.57,
2.596,0.98,1.14,2.05,0.51,2.21,0.57,
2.596,0.98,1.14,2.05,0.57,2.21,0.59,
2.597,-0.20,0.93,2.77,0.57,2.21,0.59,
2.605,-0.20,0.93,2.77,0.62,2.16,0.62,
2.606,-0.20,0.93,2.77,0.66,2.05,0.65,
2.606,-0.86,0.24,2.85,0.66,2.05,0.65,
2.606,-0.86,0.24,2.85,0.70,1.88,0.68,
2.607,-0.86,0.24,2.85,0.72,1.65,0.70,
2.607,-1.55,-0.23,2.43,0.72,1.65,0.70,
2.609,-1.55,-0.23,2.43,0.72,1.38,0.71,
2.611,-2.48,-0.41,1.95,0.72,1.38,0.71,
2.611,-2.48,-0.41,1.95,0.72,1.07,0.73,
2.613,-2.48,-0.41,1.95,0.72,0.76,0.76,
2.621,-3.24,-0.41,1.74,0.72,0.76,0.76,
2.621,-3.24,-0.41,1.74,0.70,0.43,0.79,
2.621,-3.24,-0.41,1.74,0.69,0.11,0.81,
2.621,-3.24,-0.41,1.74,0.68,-0.18,0.84,
2.621,-3.27,-0.16,1.69,0.68,-0.18,0.84,
2.623,-3.27,-0.16,1.69,0.68,-0.42,0.87,
2.626,-3.27,-0.16,1.69,0.68,-0.61,0.91,
2.626,-2.77,0.34,1.26,0.68,-0.61,0.91,
2.629,-2.77,0.34,1.26,0.69,-0.73,0.96,
2.631,-1.65,0.36,0.57,0.69,-0.73,0.96,
2.631,-1.65,0.36,0.57,0.69,-0.82,1.00,
2.633,-1.65,0.36,0.57,0.69,-0.86,1.02,
2.635,-1.65,0.36,0.57,0.68,-0.88,1.03,
2.636,-0.12,0.14,-0.38,0.68,-0.88,1.03,
2.639,-0.12,0.14,-0.38,0.67,-0.87,1.02,
2.641,1.12,-0.03,-1.34,0.67,-0.87,1.02,
2.641,1.12,-0.03,-1.34,0.64,-0.84,1.00,
2.643,1.12,-0.03,-1.34,0.61,-0.79,0.97,
2.647,1.86,-0.27,-1.93,0.61,-0.79,0.97,
2.647,1.86,-0.27,-1.93,0.58,-0.73,0.94,
2.649,1.86,-0.27,-1.93,0.55,-0.66,0.90,
2.651,2.23,-0.51,-1.85,0.55,-0.66,0.90,
2.651,2.23,-0.51,-1.85,0.52,-0.59,0.85,
2.654,2.23,-0.51,-1.85,0.49,-0.50,0.81,
2.664,2.54,-0.57,-1.47,0.49,-0.50,0.81,
2.664,2.54,-0.57,-1.47,0.48,-0.41,0.75,
2.665,2.54,-0.57,-1.47,0.46,-0.30,0.70,
2.665,2.69,-0.55,-1.53,0.46,-0.30,0.70,
2.665,2.69,-0.55,-1.53,0.45,-0.18,0.64,
2.665,2.69,-0.55,-1.53,0.45,-0.04,0.58,
2.666,2.69,-0.55,-1.53,0.44,0.10,0.53,
2.666,2.69,-0.52,-2.06,0.44,0.10,0.53,
2.668,2.69,-0.52,-2.06,0.42,0.24,0.47,
2.672,2.69,-0.52,-2.06,0.40,0.38,0.42,
2.672,2.72,-0.37,-2.61,0.40,0.38,0.42,
2.678,2.72,-0.37,-2.61,0.38,0.52,0.37,
2.68,2.72,-0.37,-2.61,0.35,0.66,0.32,
2.681,2.57,-0.49,-2.70,0.35,0.66,0.32,
2.681,2.57,-0.49,-2.70,0.33,0.78,0.28,
2.681,2.57,-0.49,-2.70,0.31,0.88,0.24,
2.681,2.03,-0.77,-2.11,0.31,0.88,0.24,
2.696,2.03,-0.77,-2.11,0.29,0.95,0.21,
2.696,1.19,-0.75,-1.26,0.29,0.95,0.21,
2.696,1.19,-0.75,-1.26,0.28,1.00,0.20,
2.697,1.19,-0.75,-1.26,0.27,1.04,0.19,
2.697,0.23,-0.56,-0.48,0.27,1.04,0.19,
2.697,0.23,-0.56,-0.48,0.27,1.06,0.19,
2.697,0.23,-0.56,-0.48,0.27,1.06,0.21,
2.697,0.23,-0.56,-0.48,0.28,1.05,0.24,
2.697,-0.83,-0.32,0.09,0.28,1.05,0.24,
2.699,-0.83,-0.32,0.09,0.28,1.05,0.28,
2.701,-0.83,-0.32,0.09,0.29,1.04,0.32,
2.701,-1.62,-0.09,0.51,0.29,1.04,0.32,
2.703,-1.62,-0.09,0.51,0.30,1.02,0.37,
2.706,-1.62,-0.09,0.51,0.31,0.97,0.40,
2.707,-2.28,0.22,0.93,0.31,0.97,0.40,
2.708,-2.28,0.22,0.93,0.32,0.91,0.44,
2.71,-2.86,0.67,1.19,0.32,0.91,0.44,
2.711,-2.86,0.67,1.19,0.32,0.82,0.48,
2.713,-2.86,0.67,1.19,0.33,0.72,0.51,
2.715,-2.86,0.67,1.19,0.34,0.61,0.55,
2.715,-3.23,1.01,1.13,0.34,0.61,0.55,
2.718,-3.23,1.01,1.13,0.35,0.50,0.59,
2.72,-3.23,1.01,1.13,0.35,0.39,0.61,
2.72,-2.79,1.15,0.85,0.35,0.39,0.61,
2.723,-2.79,1.15,0.85,0.35,0.28,0.64,
2.726,-2.79,1.15,0.85,0.35,0.19,0.68,
2.726,-2.77,0.87,0.50,0.35,0.19,0.68,
2.728,-2.77,0.87,0.50,0.34,0.12,0.72,
2.73,-2.53,0.48,0.13,0.34,0.12,0.72,
2.73,-2.53,0.48,0.13,0.34,0.06,0.78,
2.732,-2.53,0.48,0.13,0.33,0.03,0.83,
2.735,-2.53,0.48,0.13,0.33,0.02,0.87,
2.735,-1.94,0.20,-0.11,0.33,0.02,0.87,
2.737,-1.94,0.20,-0.11,0.32,0.02,0.90,
2.74,-1.94,0.20,-0.11,0.32,0.02,0.92,
2.74,-1.06,0.07,-0.22,0.32,0.02,0.92,
2.742,-1.06,0.07,-0.22,0.32,0.04,0.94,
2.745,-0.14,-0.03,-0.34,0.32,0.04,0.94,
2.745,-0.14,-0.03,-0.34,0.32,0.06,0.94,
2.747,-0.14,-0.03,-0.34,0.31,0.10,0.94,
2.75,-0.14,-0.03,-0.34,0.31,0.14,0.92,
2.75,0.65,-0.14,-0.56,0.31,0.14,0.92,
2.752,0.65,-0.14,-0.56,0.31,0.18,0.90,
2.755,0.65,-0.14,-0.56,0.31,0.25,0.88,
2.755,1.07,-0.25,-0.99,0.31,0.25,0.88,
2.757,1.07,-0.25,-0.99,0.30,0.31,0.86,
2.76,1.07,-0.25,-0.99,0.30,0.37,0.83,
2.76,1.10,-0.39,-1.12,0.30,0.37,0.83,
2.762,1.10,-0.39,-1.12,0.29,0.42,0.81,
2.765,1.10,-0.39,-1.12,0.28,0.45,0.79,
2.765,0.74,-0.37,-0.97,0.28,0.45,0.79,
2.767,0.74,-0.37,-0.97,0.28,0.48,0.77,
2.77,0.74,-0.37,-0.97,0.28,0.51,0.76,
2.77,0.16,-0.20,-1.01,0.28,0.51,0.76,
2.772,0.16,-0.20,-1.01,0.27,0.53,0.75,
2.779,0.16,-0.20,-1.01,0.27,0.54,0.76,
2.78,-0.41,0.01,-1.06,0.27,0.54,0.76,
2.78,-0.41,0.01,-1.06,0.26,0.56,0.76,
2.78,-0.41,0.01,-1.06,0.25,0.57,0.78,
2.782,-0.93,0.15,-1.03,0.25,0.57,0.78,
2.783,-0.93,0.15,-1.03,0.24,0.58,0.80,
2.833,-0.93,0.15,-1.03,0.24,0.60,0.82,
2.834,-0.93,0.15,-1.03,0.23,0.62,0.85,
2.834,-0.93,0.15,-1.03,0.23,0.63,0.88,
2.835,-0.93,0.15,-1.03,0.23,0.64,0.90,
2.835,-0.93,0.15,-1.03,0.23,0.65,0.94,
2.835,-1.33,0.24,-0.83,0.23,0.65,0.94,
2.836,-1.66,0.31,-0.72,0.23,0.65,0.94,
2.836,-1.89,0.42,-0.80,0.23,0.65,0.94,
2.836,-1.89,0.42,-0.80,0.22,0.65,0.97,
2.837,-1.89,0.42,-0.80,0.21,0.66,1.01,
2.837,-2.10,0.44,-0.73,0.21,0.66,1.01,
2.837,-2.22,0.42,-0.54,0.21,0.66,1.01,
2.838,-2.22,0.42,-0.54,0.20,0.66,1.05,
2.838,-2.22,0.42,-0.54,0.20,0.66,1.09,
2.838,-2.22,0.42,-0.54,0.19,0.66,1.14,
2.839,-2.33,0.42,-0.28,0.19,0.66,1.14,
2.839,-2.33,0.42,-0.28,0.19,0.65,1.18,
2.839,-2.33,0.42,-0.28,0.18,0.65,1.23,
2.84,-2.33,0.42,-0.28,0.18,0.63,1.27,
2.84,-2.12,0.46,-0.08,0.18,0.63,1.27,
2.84,-2.12,0.46,-0.08,0.17,0.60,1.30,
2.841,-2.12,0.46,-0.08,0.17,0.57,1.33,
2.857,-1.72,0.52,0.07,0.17,0.57,1.33,
2.857,-1.72,0.52,0.07,0.17,0.54,1.36,
2.857,-1.72,0.52,0.07,0.17,0.53,1.38,
2.857,-1.52,0.52,0.02,0.17,0.53,1.38,
2.858,-1.52,0.52,0.02,0.16,0.51,1.40,
2.858,-1.52,0.52,0.02,0.16,0.52,1.43,
2.858,-1.63,0.48,-0.16,0.16,0.52,1.43,
2.858,-1.63,0.48,-0.16,0.16,0.55,1.46,
2.859,-1.63,0.48,-0.16,0.15,0.62,1.50,
2.859,-1.80,0.58,-0.70,0.15,0.62,1.50,
2.859,-1.80,0.58,-0.70,0.15,0.65,1.53,
2.859,-1.49,0.74,-0.23,0.15,0.65,1.53,
2.86,-1.49,0.74,-0.23,0.13,0.59,1.56,
2.86,-1.49,0.74,-0.23,0.12,0.50,1.58,
2.86,-1.49,0.74,-0.23,0.12,0.42,1.60,
2.86,-1.75,0.48,0.13,0.12,0.42,1.60,
2.861,-1.75,0.48,0.13,0.11,0.40,1.63,
2.861,-1.80,0.20,0.03,0.11,0.40,1.63,
2.861,-1.80,0.20,0.03,0.11,0.41,1.66,
2.861,-1.80,0.20,0.03,0.11,0.44,1.70,
2.862,-1.80,0.20,0.03,0.11,0.46,1.72,
2.862,-1.14,0.21,-0.14,0.11,0.46,1.72,
2.862,-1.14,0.21,-0.14,0.11,0.47,1.73,
2.862,-1.14,0.21,-0.14,0.10,0.47,1.73,
2.862,-0.49,0.36,-0.26,0.10,0.47,1.73,
2.871,-0.49,0.36,-0.26,0.09,0.48,1.73,
2.872,-0.21,0.39,-0.54,0.09,0.48,1.73,
2.872,-0.21,0.39,-0.54,0.08,0.51,1.73,
2.872,-0.21,0.39,-0.54,0.08,0.54,1.73,
2.872,-0.29,0.36,-0.86,0.08,0.54,1.73,
2.873,-0.29,0.36,-0.86,0.07,0.60,1.73,
2.873,-0.29,0.36,-0.86,0.06,0.66,1.73,
2.877,-0.29,0.36,-0.86,0.06,0.71,1.73,
2.878,-0.30,0.54,-0.83,0.06,0.71,1.73,
2.878,-0.30,0.54,-0.83,0.05,0.74,1.73,
2.879,-0.40,0.60,-0.22,0.05,0.74,1.73,
2.879,-0.40,0.60,-0.22,0.05,0.74,1.73,
2.881,-0.40,0.60,-0.22,0.05,0.73,1.73,
2.884,-0.77,0.44,-0.32,0.05,0.73,1.73,
2.885,-0.77,0.44,-0.32,0.05,0.71,1.73,
2.887,-0.77,0.44,-0.32,0.06,0.70,1.75,
2.889,-0.77,0.44,-0.32,0.06,0.71,1.76,
2.897,-0.95,0.36,-1.20,0.06,0.71,1.76,
2.898,-0.95,0.36,-1.20,0.03,0.75,1.76,
2.899,-0.95,0.36,-1.20,-0.02,0.78,1.76,
2.899,-0.66,1.39,-1.58,-0.02,0.78,1.76,
2.9,-0.66,1.39,-1.58,-0.08,0.80,1.77,
2.9,-0.66,1.39,-1.58,-0.11,0.79,1.78,
2.901,-0.35,1.97,0.39,-0.11,0.79,1.78,
2.903,-0.35,1.97,0.39,-0.11,0.78,1.76,
2.905,-0.04,2.59,1.74,-0.11,0.78,1.76,
2.905,-0.04,2.59,1.74,-0.10,0.76,1.73,
2.916,-0.04,2.59,1.74,-0.08,0.75,1.70,
2.916,-0.04,2.59,1.74,-0.07,0.76,1.71,
2.917,-0.68,2.48,1.28,-0.07,0.76,1.71,
2.917,-0.68,2.48,1.28,-0.06,0.78,1.72,
2.917,-0.68,2.48,1.28,-0.06,0.81,1.73,
2.917,-1.32,1.72,0.68,-0.06,0.81,1.73,
2.942,-1.32,1.72,0.68,-0.08,0.82,1.74,
2.942,-1.32,1.72,0.68,-0.10,0.80,1.76,
2.943,-1.49,1.91,0.82,-0.10,0.80,1.76,
2.943,-1.49,1.91,0.82,-0.13,0.78,1.78,
2.943,-1.67,2.50,1.35,-0.13,0.78,1.78,
2.943,-1.67,2.50,1.35,-0.15,0.76,1.80,
2.943,-1.67,2.50,1.35,-0.17,0.74,1.82,
2.943,-1.67,2.50,1.35,-0.19,0.72,1.85,
2.944,-2.02,2.83,1.72,-0.19,0.72,1.85,
2.944,-2.02,2.83,1.72,-0.19,0.70,1.89,
2.944,-2.02,2.83,1.72,-0.20,0.69,1.92,
2.946,-2.43,2.64,1.40,-0.20,0.69,1.92,
2.946,-2.43,2.64,1.40,-0.20,0.67,1.96,
2.946,-2.43,2.64,1.40,-0.22,0.65,2.00,
2.947,-2.71,2.45,1.08,-0.22,0.65,2.00,
2.947,-2.71,2.45,1.08,-0.24,0.61,2.03,
2.947,-2.80,2.68,0.80,-0.24,0.61,2.03,
2.952,-2.80,2.68,0.80,-0.26,0.60,2.07,
2.952,-2.80,2.68,0.80,-0.28,0.60,2.11,
2.952,-2.80,2.68,0.80,-0.30,0.60,2.15,
2.953,-2.73,2.94,0.56,-0.30,0.60,2.15,
2.953,-2.73,2.94,0.56,-0.33,0.58,2.19,
2.953,-2.79,2.94,0.74,-0.33,0.58,2.19,
2.954,-2.79,2.94,0.74,-0.36,0.53,2.22,
2.956,-2.79,2.94,0.74,-0.39,0.50,2.25,
2.96,-2.79,2.94,0.74,-0.42,0.48,2.29,
2.961,-2.62,3.22,-0.03,-0.42,0.48,2.29,
2.961,-2.62,3.22,-0.03,-0.45,0.47,2.32,
2.965,-2.62,3.22,-0.03,-0.49,0.45,2.35,
2.965,-2.67,3.11,-0.21,-0.49,0.45,2.35,
2.965,-2.67,3.11,-0.21,-0.51,0.44,2.39,
2.969,-2.67,3.11,-0.21,-0.54,0.44,2.42,
2.969,-2.65,3.04,-0.12,-0.54,0.44,2.42,
2.97,-2.65,3.04,-0.12,-0.57,0.43,2.45,
2.979,-2.65,3.04,-0.12,-0.60,0.42,2.47,
2.98,-2.50,3.18,-0.38,-0.60,0.42,2.47,
2.98,-2.50,3.18,-0.38,-0.63,0.41,2.49,
2.98,-2.50,3.18,-0.38,-0.68,0.40,2.51,
2.981,-2.33,3.41,-0.85,-0.68,0.40,2.51,
2.981,-2.33,3.41,-0.85,-0.72,0.38,2.54,
2.99,-2.33,3.41,-0.85,-0.75,0.36,2.57,
2.991,-2.33,3.41,-0.85,-0.77,0.35,2.60,
3.021,-2.32,4.22,-0.94,-0.77,0.35,2.60,
3.021,-2.33,4.79,-0.72,-0.77,0.35,2.60,
3.022,-2.33,4.79,-0.72,-0.78,0.33,2.64,
3.022,-2.33,4.79,-0.72,-0.78,0.33,2.67,
3.023,-2.43,5.31,-1.45,-0.78,0.33,2.67,
3.023,-2.43,5.31,-1.45,-0.79,0.36,2.70,
3.024,-2.43,5.31,-1.45,-0.79,0.42,2.73,
3.024,-2.43,5.31,-1.45,-0.80,0.50,2.76,
3.024,-2.39,5.36,-2.24,-0.80,0.50,2.76,
3.024,-2.39,5.36,-2.24,-0.81,0.57,2.78,
3.025,-2.39,5.36,-2.24,-0.83,0.64,2.79,
3.025,-2.39,5.52,-2.51,-0.83,0.64,2.79,
3.025,-2.39,5.52,-2.51,-0.85,0.69,2.80,
3.025,-2.39,5.52,-2.51,-0.88,0.73,2.81,
3.026,-2.49,5.99,-2.39,-0.88,0.73,2.81,
3.026,-2.49,5.99,-2.39,-0.90,0.76,2.82,
3.026,-2.49,5.99,-2.39,-0.92,0.80,2.83,
3.026,-3.20,6.85,-2.31,-0.92,0.80,2.83,
3.027,-3.20,6.85,-2.31,-0.95,0.85,2.84,
3.027,-3.20,6.85,-2.31,-0.97,0.92,2.85,
3.027,-4.16,7.68,-2.47,-0.97,0.92,2.85,
3.027,-4.16,7.68,-2.47,-0.98,1.01,2.87,
3.028,-4.16,7.68,-2.47,-0.99,1.10,2.90,
3.028,-5.13,8.63,-2.60,-0.99,1.10,2.90,
3.028,-5.13,8.63,-2.60,-0.99,1.19,2.94,
3.029,-5.13,8.63,-2.60,-0.99,1.28,2.98,
3.029,-6.29,9.48,-1.92,-0.99,1.28,2.98,
3.033,-6.29,9.48,-1.92,-0.98,1.35,3.02,
3.034,-6.29,9.48,-1.92,-0.97,1.41,3.07,
3.034,-7.78,10.04,-1.34,-0.97,1.41,3.07,
3.035,-7.78,10.04,-1.34,-0.97,1.47,3.13,
3.037,-7.78,10.04,-1.34,-0.99,1.53,3.19,
3.038,-9.35,10.49,-1.54,-0.99,1.53,3.19,
3.041,-9.35,10.49,-1.54,-1.01,1.59,3.25,
3.043,-9.35,10.49,-1.54,-1.03,1.64,3.30,
3.044,-10.56,11.06,-1.43,-1.03,1.64,3.30,
3.045,-10.56,11.06,-1.43,-1.06,1.67,3.34,
3.047,-10.56,11.06,-1.43,-1.08,1.68,3.37,
3.048,-11.47,12.01,-1.26,-1.08,1.68,3.37,
3.05,-11.47,12.01,-1.26,-1.10,1.66,3.38,
3.052,-11.47,12.01,-1.26,-1.10,1.64,3.39,
3.052,-11.96,12.95,-1.54,-1.10,1.64,3.39,
3.054,-11.96,12.95,-1.54,-1.11,1.64,3.41,
3.058,-13.23,13.96,-2.27,-1.11,1.64,3.41,
3.059,-13.23,13.96,-2.27,-1.10,1.66,3.43,
3.06,-13.23,13.96,-2.27,-1.10,1.71,3.45,
3.063,-13.23,13.96,-2.27,-1.08,1.76,3.46,
3.063,-13.81,14.44,-3.53,-1.08,1.76,3.46,
3.066,-13.81,14.44,-3.53,-1.07,1.81,3.49,
3.068,-13.81,14.44,-3.53,-1.05,1.83,3.54,
3.068,-15.06,15.22,-3.96,-1.05,1.83,3.54,
3.07,-15.06,15.22,-3.96,-1.01,1.80,3.64,
3.073,-15.06,15.22,-3.96,-0.97,1.73,3.78,
3.073,-16.19,16.33,-3.85,-0.97,1.73,3.78,
3.077,-16.19,16.33,-3.85,-0.94,1.60,3.98,
3.083,-16.06,17.01,-4.13,-0.94,1.60,3.98,
3.083,-16.06,17.01,-4.13,-0.91,1.46,4.21,
3.083,-16.06,17.01,-4.13,-0.86,1.34,4.45,
3.084,-16.06,17.01,-4.13,-0.81,1.23,4.66,
3.084,-13.22,16.41,-4.24,-0.81,1.23,4.66,
3.088,-13.22,16.41,-4.24,-0.76,1.15,4.81,
3.088,-13.22,16.41,-4.24,-0.72,1.07,4.94,
3.089,-9.87,14.79,-4.93,-0.72,1.07,4.94,
3.09,-9.87,14.79,-4.93,-0.68,1.00,5.03,
3.117,-7.38,13.01,-5.50,-0.68,1.00,5.03,
3.119,-7.38,13.01,-5.50,-0.62,0.94,5.11,
3.12,-7.38,13.01,-5.50,-0.57,0.89,5.15,
3.12,-4.73,11.35,-5.91,-0.57,0.89,5.15,
3.121,-4.73,11.35,-5.91,-0.55,0.84,5.18,
3.121,-4.73,11.35,-5.91,-0.52,0.81,5.19,
3.122,-4.73,11.35,-5.91,-0.48,0.82,5.17,
3.123,-2.72,9.93,-5.76,-0.48,0.82,5.17,
3.125,-2.72,9.93,-5.76,-0.45,0.86,5.13,
3.125,-1.17,8.89,-4.89,-0.45,0.86,5.13,
3.126,-1.17,8.89,-4.89,-0.39,0.91,5.08,
3.126,-1.17,8.89,-4.89,-0.34,0.97,5.01,
3.127,-0.17,8.28,-4.24,-0.34,0.97,5.01,
3.128,-0.17,8.28,-4.24,-0.30,1.02,4.92,
3.129,-0.17,8.28,-4.24,-0.25,1.04,4.78,
3.129,-0.17,8.28,-4.24,-0.20,1.07,4.61,
3.129,0.24,7.79,-3.79,-0.20,1.07,4.61,
3.13,0.24,7.79,-3.79,-0.14,1.11,4.39,
3.13,0.24,7.79,-3.79,-0.10,1.19,4.15,
3.13,0.26,7.46,-3.45,-0.10,1.19,4.15,
3.131,0.26,7.46,-3.45,-0.05,1.28,3.91,
3.131,-0.58,7.03,-3.04,-0.05,1.28,3.91,
3.132,-0.58,7.03,-3.04,0.01,1.40,3.67,
3.132,-0.58,7.03,-3.04,0.07,1.54,3.45,
3.132,-0.58,7.03,-3.04,0.13,1.70,3.25,
3.133,-2.01,5.99,-3.12,0.13,1.70,3.25,
3.136,-2.01,5.99,-3.12,0.21,1.87,3.08,
3.139,-2.01,5.99,-3.12,0.28,2.03,2.93,
3.142,-3.41,4.57,-3.62,0.28,2.03,2.93,
3.143,-3.41,4.57,-3.62,0.34,2.18,2.78,
3.144,-3.90,2.93,-3.83,0.34,2.18,2.78,
3.144,-3.90,2.93,-3.83,0.36,2.32,2.63,
3.147,-3.90,2.93,-3.83,0.36,2.45,2.47,
3.149,-3.90,2.93,-3.83,0.40,2.57,2.35,
3.149,-3.98,1.20,-2.68,0.40,2.57,2.35,
3.149,-3.98,1.20,-2.68,0.51,2.66,2.29,
3.179,-3.98,1.20,-2.68,0.64,2.71,2.28,
3.18,-3.61,-1.04,-1.99,0.64,2.71,2.28,
3.18,-3.61,-1.04,-1.99,0.71,2.73,2.33,
3.18,-3.61,-1.04,-1.99,0.71,2.72,2.41,
3.181,-2.12,-2.48,-2.74,0.71,2.72,2.41,
3.181,-2.12,-2.48,-2.74,0.68,2.70,2.47,
3.182,-2.12,-2.48,-2.74,0.66,2.70,2.45,
3.182,0.08,-3.29,-3.78,0.66,2.70,2.45,
3.182,0.08,-3.29,-3.78,0.62,2.71,2.32,
3.183,0.08,-3.29,-3.78,0.57,2.71,2.08,
3.183,2.10,-3.54,-4.32,0.57,2.71,2.08,
3.183,2.10,-3.54,-4.32,0.50,2.71,1.74,
3.184,2.10,-3.54,-4.32,0.42,2.73,1.34,
3.184,2.46,-3.70,-3.82,0.42,2.73,1.34,
3.184,2.46,-3.70,-3.82,0.36,2.79,0.92,
3.185,2.46,-3.70,-3.82,0.33,2.89,0.53,
3.185,-0.73,-3.11,-2.70,0.33,2.89,0.53,
3.185,-0.73,-3.11,-2.70,0.32,3.04,0.20,
3.185,-0.73,-3.11,-2.70,0.34,3.17,-0.09,
3.186,-4.37,-2.60,-0.84,0.34,3.17,-0.09,
3.186,-4.37,-2.60,-0.84,0.37,3.26,-0.30,
3.186,-4.37,-2.60,-0.84,0.41,3.32,-0.47,
3.186,-7.49,-2.43,0.97,0.41,3.32,-0.47,
3.189,-7.49,-2.43,0.97,0.45,3.35,-0.59,
3.196,-9.83,-2.71,1.51,0.45,3.35,-0.59,
3.197,-9.83,-2.71,1.51,0.50,3.35,-0.68,
3.197,-9.83,-2.71,1.51,0.53,3.33,-0.74,
3.199,-9.83,-2.71,1.51,0.55,3.28,-0.80,
3.2,-11.14,-3.26,1.54,0.55,3.28,-0.80,
3.201,-11.14,-3.26,1.54,0.58,3.20,-0.85,
3.202,-11.14,-3.26,1.54,0.60,3.09,-0.89,
3.203,-11.77,-3.81,1.56,0.60,3.09,-0.89,
3.204,-11.77,-3.81,1.56,0.61,2.93,-0.93,
3.209,-11.77,-3.81,1.56,0.63,2.72,-0.97,
3.21,-12.09,-4.42,1.73,0.63,2.72,-0.97,
3.227,-12.09,-4.42,1.73,0.64,2.47,-1.00,
3.228,-12.09,-4.42,1.73,0.65,2.17,-1.04,
3.228,-12.01,-5.18,1.81,0.65,2.17,-1.04,
3.228,-12.01,-5.18,1.81,0.66,1.84,-1.07,
3.228,-12.01,-5.18,1.81,0.67,1.50,-1.11,
3.229,-11.68,-5.85,1.83,0.67,1.50,-1.11,
3.229,-11.68,-5.85,1.83,0.69,1.17,-1.15,
3.229,-11.68,-5.85,1.83,0.71,0.86,-1.21,
3.229,-10.85,-6.25,1.65,0.71,0.86,-1.21,
3.23,-10.85,-6.25,1.65,0.73,0.56,-1.27,
3.23,-9.81,-6.30,1.21,0.73,0.56,-1.27,
3.23,-9.81,-6.30,1.21,0.76,0.30,-1.33,
3.23,-9.81,-6.30,1.21,0.79,0.08,-1.41,
3.231,-9.81,-6.30,1.21,0.82,-0.12,-1.49,
3.231,-8.87,-6.15,0.74,0.82,-0.12,-1.49,
3.233,-8.87,-6.15,0.74,0.86,-0.28,-1.57,
3.236,-8.87,-6.15,0.74,0.89,-0.43,-1.66,
3.236,-7.99,-5.93,0.32,0.89,-0.43,-1.66,
3.238,-7.99,-5.93,0.32,0.92,-0.57,-1.75,
3.242,-7.99,-5.93,0.32,0.95,-0.70,-1.84,
3.244,-7.24,-5.67,-0.03,0.95,-0.70,-1.84,
3.244,-7.24,-5.67,-0.03,0.97,-0.82,-1.93,
3.247,-6.69,-5.42,-0.28,0.97,-0.82,-1.93,
3.25,-6.69,-5.42,-0.28,0.99,-0.92,-2.03,
3.25,-6.69,-5.42,-0.28,1.01,-1.01,-2.13,
3.251,-6.69,-5.42,-0.28,1.02,-1.09,-2.24,
3.251,-6.20,-5.38,-0.27,1.02,-1.09,-2.24,
3.253,-6.20,-5.38,-0.27,1.04,-1.14,-2.34,
3.256,-5.69,-5.51,0.01,1.04,-1.14,-2.34,
3.256,-5.69,-5.51,0.01,1.07,-1.16,-2.45,
3.261,-5.69,-5.51,0.01,1.09,-1.19,-2.55,
3.261,-5.69,-5.51,0.01,1.11,-1.23,-2.64,
3.261,-5.87,-5.51,0.06,1.11,-1.23,-2.64,
3.263,-5.87,-5.51,0.06,1.12,-1.28,-2.73,
3.266,-5.87,-5.51,0.06,1.14,-1.34,-2.83,
3.266,-5.80,-5.53,0.02,1.14,-1.34,-2.83,
3.268,-5.80,-5.53,0.02,1.16,-1.39,-2.93,
3.27,-5.80,-5.53,0.02,1.17,-1.46,-3.03,
3.27,-5.74,-5.58,0.21,1.17,-1.46,-3.03,
3.273,-5.74,-5.58,0.21,1.19,-1.53,-3.13,
3.277,-5.74,-5.58,0.21,1.21,-1.58,-3.23,
3.279,-5.58,-5.72,0.17,1.21,-1.58,-3.23,
3.279,-5.58,-5.72,0.17,1.22,-1.63,-3.33,
3.309,-5.68,-5.75,0.07,1.22,-1.63,-3.33,
3.309,-5.90,-5.76,-0.05,1.22,-1.63,-3.33,
3.309,-5.90,-5.76,-0.05,1.24,-1.67,-3.43,
3.31,-5.90,-5.76,-0.05,1.25,-1.74,-3.52,
3.311,-5.90,-5.76,-0.05,1.26,-1.84,-3.61,
3.311,-5.90,-5.76,-0.05,1.27,-1.92,-3.69,
3.311,-5.90,-5.76,-0.05,1.28,-1.96,-3.78,
3.311,-5.90,-5.76,-0.05,1.29,-1.97,-3.87,
3.312,-5.93,-5.72,-0.08,1.29,-1.97,-3.87,
3.312,-5.93,-5.72,-0.08,1.32,-1.98,-3.95,
3.312,-5.88,-5.60,0.21,1.32,-1.98,-3.95,
3.312,-5.88,-5.60,0.21,1.34,-1.98,-4.03,
3.313,-5.88,-5.60,0.21,1.36,-1.97,-4.11,
3.313,-5.24,-5.59,0.04,1.36,-1.97,-4.11,
3.313,-5.24,-5.59,0.04,1.37,-1.95,-4.19,
3.313,-5.24,-5.59,0.04,1.39,-1.92,-4.27,
3.313,-4.56,-5.50,-0.03,1.39,-1.92,-4.27,
3.314,-4.56,-5.50,-0.03,1.40,-1.90,-4.34,
3.314,-4.56,-5.50,-0.03,1.41,-1.86,-4.42,
3.314,-4.03,-5.44,-0.06,1.41,-1.86,-4.42,
3.314,-4.03,-5.44,-0.06,1.42,-1.81,-4.50,
3.315,-4.03,-5.44,-0.06,1.44,-1.76,-4.59,
3.331,-3.80,-5.32,0.11,1.44,-1.76,-4.59,
3.331,-3.80,-5.32,0.11,1.45,-1.70,-4.67,
3.331,-3.80,-5.32,0.11,1.47,-1.62,-4.76,
3.331,-3.53,-5.18,0.08,1.47,-1.62,-4.76,
3.332,-3.53,-5.18,0.08,1.48,-1.54,-4.85,
3.332,-3.53,-5.18,0.08,1.50,-1.47,-4.93,
3.332,-3.66,-5.01,0.17,1.50,-1.47,-4.93,
3.332,-3.66,-5.01,0.17,1.51,-1.41,-5.01,
3.333,-3.66,-5.01,0.17,1.52,-1.33,-5.09,
3.333,-3.52,-4.88,0.12,1.52,-1.33,-5.09,
3.333,-3.52,-4.88,0.12,1.54,-1.22,-5.18,
3.335,-3.52,-4.88,0.12,1.56,-1.10,-5.28,
3.336,-3.26,-4.66,0.19,1.56,-1.10,-5.28,
3.338,-3.26,-4.66,0.19,1.58,-1.00,-5.37,
3.34,-3.26,-4.66,0.19,1.60,-0.91,-5.44,
3.34,-3.62,-4.39,0.31,1.60,-0.91,-5.44,
3.342,-3.62,-4.39,0.31,1.63,-0.84,-5.52,
3.345,-3.62,-4.39,0.31,1.65,-0.78,-5.59,
3.345,-3.84,-4.06,0.34,1.65,-0.78,-5.59,
3.347,-3.84,-4.06,0.34,1.67,-0.75,-5.65,
3.35,-3.84,-4.06,0.34,1.68,-0.74,-5.71,
3.35,-4.21,-3.69,0.44,1.68,-0.74,-5.71,
3.352,-4.21,-3.69,0.44,1.69,-0.73,-5.77,
3.355,-4.21,-3.69,0.44,1.69,-0.71,-5.83,
3.355,-4.04,-3.42,0.03,1.69,-0.71,-5.83,
3.357,-4.04,-3.42,0.03,1.69,-0.69,-5.90,
3.36,-4.04,-3.42,0.03,1.68,-0.66,-5.96,
3.361,-3.68,-3.02,0.02,1.68,-0.66,-5.96,
3.362,-3.68,-3.02,0.02,1.68,-0.65,-6.02,
3.365,-3.27,-2.62,0.47,1.68,-0.65,-6.02,
3.365,-3.27,-2.62,0.47,1.67,-0.66,-6.08,
3.367,-3.27,-2.62,0.47,1.66,-0.67,-6.14,
3.369,-3.27,-2.62,0.47,1.66,-0.68,-6.20,
3.37,-2.80,-2.19,1.01,1.66,-0.68,-6.20,
3.372,-2.80,-2.19,1.01,1.67,-0.68,-6.26,
3.378,-2.80,-2.19,1.01,1.67,-0.67,-6.32,
3.378,-2.20,-1.83,1.40,1.67,-0.67,-6.32,
3.378,-2.20,-1.83,1.40,1.68,-0.65,-6.38,
3.38,-2.20,-1.83,1.40,1.68,-0.64,-6.44,
3.38,-1.56,-1.52,1.55,1.68,-0.64,-6.44,
3.382,-1.56,-1.52,1.55,1.69,-0.62,-6.50,
3.385,-1.56,-1.52,1.55,1.69,-0.60,-6.56,
3.386,-0.89,-1.16,1.55,1.69,-0.60,-6.56,
3.387,-0.89,-1.16,1.55,1.69,-0.57,-6.63,
3.389,-0.89,-1.16,1.55,1.69,-0.55,-6.70,
3.39,-0.20,-0.75,1.44,1.69,-0.55,-6.70,
3.393,-0.20,-0.75,1.44,1.69,-0.54,-6.77,
3.396,-0.20,-0.75,1.44,1.68,-0.54,-6.84,
3.396,0.40,-0.26,1.38,1.68,-0.54,-6.84,
3.396,0.40,-0.26,1.38,1.67,-0.54,-6.92,
3.399,0.40,-0.26,1.38,1.67,-0.55,-7.00,
3.399,0.80,0.34,1.54,1.67,-0.55,-7.00,
3.401,0.80,0.34,1.54,1.66,-0.55,-7.09,
3.405,0.80,0.34,1.54,1.65,-0.58,-7.17,
3.405,0.85,0.96,1.76,1.65,-0.58,-7.17,
3.407,0.85,0.96,1.76,1.64,-0.68,-7.24,
3.41,0.60,1.44,1.95,1.64,-0.68,-7.24,
3.411,0.60,1.44,1.95,1.63,-0.79,-7.31,
3.413,0.60,1.44,1.95,1.62,-0.88,-7.37,
3.415,0.60,1.44,1.95,1.61,-0.97,-7.40,
3.415,-0.35,1.16,2.29,1.61,-0.97,-7.40,
3.417,-0.35,1.16,2.29,1.60,-1.06,-7.42,
3.419,-0.35,1.16,2.29,1.60,-1.14,-7.43,
3.419,-0.53,1.76,2.64,1.60,-1.14,-7.43,
3.421,-0.53,1.76,2.64,1.60,-1.20,-7.46,
3.424,-0.53,1.76,2.64,1.61,-1.25,-7.49,
3.424,0.28,3.46,2.77,1.61,-1.25,-7.49,
3.427,0.28,3.46,2.77,1.63,-1.31,-7.51,
3.429,0.28,3.46,2.77,1.65,-1.39,-7.53,
3.429,0.84,5.48,2.70,1.65,-1.39,-7.53,
3.431,0.84,5.48,2.70,1.67,-1.50,-7.52,
3.434,1.58,7.82,2.36,1.67,-1.50,-7.52,
3.434,1.58,7.82,2.36,1.68,-1.63,-7.51,
3.436,1.58,7.82,2.36,1.69,-1.76,-7.50,
3.439,1.58,7.82,2.36,1.70,-1.91,-7.49,
3.439,2.73,10.41,1.60,1.70,-1.91,-7.49,
3.441,2.73,10.41,1.60,1.68,-2.07,-7.48,
3.445,3.50,12.41,0.35,1.68,-2.07,-7.48,
3.447,3.50,12.41,0.35,1.66,-2.22,-7.46,
3.447,3.50,12.41,0.35,1.62,-2.36,-7.43,
3.449,3.50,12.41,0.35,1.57,-2.51,-7.37,
3.449,4.12,13.84,-0.63,1.57,-2.51,-7.37,
3.451,4.12,13.84,-0.63,1.51,-2.65,-7.31,
3.454,4.12,13.84,-0.63,1.45,-2.78,-7.24,
3.454,5.19,15.41,-0.59,1.45,-2.78,-7.24,
3.457,5.19,15.41,-0.59,1.38,-2.90,-7.15,
3.463,5.19,15.41,-0.59,1.32,-3.00,-7.06,
3.464,5.19,15.41,-0.59,1.25,-3.12,-6.96,
3.465,6.50,17.09,-0.21,1.25,-3.12,-6.96,
3.466,7.79,18.66,0.01,1.25,-3.12,-6.96,
3.466,7.79,18.66,0.01,1.17,-3.25,-6.84,
3.466,7.79,18.66,0.01,1.08,-3.38,-6.71,
3.469,7.79,18.66,0.01,0.98,-3.49,-6.57,
3.469,9.32,20.07,-0.01,0.98,-3.49,-6.57,
3.471,9.32,20.07,-0.01,0.88,-3.55,-6.41,
3.474,9.32,20.07,-0.01,0.79,-3.57,-6.23,
3.474,10.84,20.83,-0.13,0.79,-3.57,-6.23,
3.478,10.84,20.83,-0.13,0.70,-3.54,-6.02,
3.481,12.00,20.46,0.59,0.70,-3.54,-6.02,
3.481,12.00,20.46,0.59,0.65,-3.50,-5.78,
3.51,12.00,20.46,0.59,0.62,-3.46,-5.53,
3.51,12.00,20.46,0.59,0.63,-3.39,-5.26,
3.511,12.86,18.20,0.64,0.63,-3.39,-5.26,
3.511,12.86,18.20,0.64,0.63,-3.26,-4.98,
3.511,12.86,18.20,0.64,0.62,-3.02,-4.68,
3.512,12.38,14.64,-2.91,0.62,-3.02,-4.68,
3.512,12.38,14.64,-2.91,0.63,-2.74,-4.37,
3.512,12.38,14.64,-2.91,0.65,-2.53,-4.06,
3.512,13.09,11.12,-4.61,0.65,-2.53,-4.06,
3.513,13.09,11.12,-4.61,0.68,-2.41,-3.76,
3.513,15.45,9.18,-5.02,0.68,-2.41,-3.76,
3.513,15.45,9.18,-5.02,0.72,-2.34,-3.47,
3.513,15.45,9.18,-5.02,0.72,-2.34,-3.16,
3.514,15.45,9.18,-5.02,0.67,-2.35,-2.82,
3.514,18.24,8.33,-5.71,0.67,-2.35,-2.82,
3.514,18.24,8.33,-5.71,0.62,-2.24,-2.42,
3.515,18.24,8.33,-5.71,0.59,-1.99,-1.97,
3.516,18.24,8.33,-5.71,0.58,-1.68,-1.49,
3.516,18.86,7.09,-6.46,0.58,-1.68,-1.49,
3.516,19.81,5.36,-4.45,0.58,-1.68,-1.49,
3.517,19.81,5.36,-4.45,0.57,-1.37,-0.98,
3.517,19.81,5.36,-4.45,0.55,-1.11,-0.42,
3.53,19.97,3.24,-2.72,0.55,-1.11,-0.42,
3.531,19.97,3.24,-2.72,0.56,-0.91,0.18,
3.532,19.97,3.24,-2.72,0.60,-0.75,0.81,
3.532,19.97,3.24,-2.72,0.64,-0.65,1.45,
3.532,20.34,0.74,-1.86,0.64,-0.65,1.45,
3.533,20.34,0.74,-1.86,0.61,-0.64,2.08,
3.533,20.34,0.74,-1.86,0.55,-0.70,2.68,
3.534,21.21,-1.35,-1.52,0.55,-0.70,2.68,
3.534,21.21,-1.35,-1.52,0.54,-0.77,3.14,
3.534,21.21,-1.35,-1.52,0.61,-0.77,3.39,
3.536,22.99,-1.07,-2.67,0.61,-0.77,3.39,
3.536,22.99,-1.07,-2.67,0.46,-0.83,3.48,
3.539,22.99,-1.07,-2.67,0.27,-0.92,3.41,
3.54,23.81,0.16,-3.03,0.27,-0.92,3.41,
3.542,23.81,0.16,-3.03,0.04,-1.05,3.24,
3.543,23.81,0.16,-3.03,-0.13,-1.19,3.11,
3.544,18.60,2.63,-0.32,-0.13,-1.19,3.11,
3.548,18.60,2.63,-0.32,-0.14,-1.32,3.04,
3.548,18.60,2.63,-0.32,-0.05,-1.43,3.04,
3.549,12.39,4.27,1.88,-0.05,-1.43,3.04,
3.55,12.39,4.27,1.88,0.00,-1.48,3.02,
3.553,12.39,4.27,1.88,-0.10,-1.42,2.94,
3.553,7.97,5.48,0.11,-0.10,-1.42,2.94,
3.555,7.97,5.48,0.11,-0.32,-1.23,2.72,
3.558,7.97,5.48,0.11,-0.52,-0.87,2.40,
3.56,1.31,7.63,2.94,-0.52,-0.87,2.40,
3.562,1.31,7.63,2.94,-0.62,-0.39,1.99,
3.563,1.31,7.63,2.94,-0.55,0.14,1.49,
3.563,-4.92,9.87,10.75,-0.55,0.14,1.49,
3.565,-4.92,9.87,10.75,-0.36,0.63,0.97,
3.568,-4.92,9.87,10.75,-0.17,0.95,0.54,
3.568,-8.78,10.60,13.44,-0.17,0.95,0.54,
3.57,-8.78,10.60,13.44,0.01,0.98,0.34,
3.573,-8.78,10.60,13.44,0.14,0.67,0.44,
3.573,-12.96,11.07,13.27,0.14,0.67,0.44,
3.585,-12.96,11.07,13.27,0.22,0.03,0.79,
3.585,-12.96,11.07,13.27,0.28,-0.83,1.34,
3.586,-15.29,11.09,12.18,0.28,-0.83,1.34,
3.586,-15.29,11.09,12.18,0.34,-1.75,2.01,
3.587,-15.29,11.09,12.18,0.37,-2.55,2.72,
3.587,-15.39,10.51,7.97,0.37,-2.55,2.72,
3.588,-15.39,10.51,7.97,0.43,-3.13,3.38,
3.588,-15.39,10.51,7.97,0.64,-3.52,3.90,
3.588,-11.38,7.72,2.07,0.64,-3.52,3.90,
3.613,-11.38,7.72,2.07,0.88,-3.80,4.23,
3.614,-11.38,7.72,2.07,1.11,-4.05,4.36,
3.614,-3.87,4.56,-6.44,1.11,-4.05,4.36,
3.614,-3.87,4.56,-6.44,1.23,-4.29,4.34,
3.614,-3.87,4.56,-6.44,1.22,-4.54,4.31,
3.615,1.28,3.63,-12.47,1.22,-4.54,4.31,
3.615,1.28,3.63,-12.47,0.96,-4.85,4.33,
3.615,1.28,3.63,-12.47,0.60,-5.28,4.43,
3.615,4.38,3.15,-9.86,0.60,-5.28,4.43,
3.616,4.38,3.15,-9.86,0.26,-5.74,4.56,
3.616,4.38,3.15,-9.86,0.02,-6.13,4.70,
3.616,9.39,3.45,-1.05,0.02,-6.13,4.70,
3.616,9.39,3.45,-1.05,-0.05,-6.36,4.81,
3.616,9.39,3.45,-1.05,0.05,-6.41,4.86,
3.617,13.68,4.20,7.45,0.05,-6.41,4.86,
3.621,16.90,1.60,5.36,0.05,-6.41,4.86,
3.621,16.90,1.60,5.36,0.29,-6.19,4.82,
3.621,16.90,1.60,5.36,0.58,-5.66,4.64,
3.621,16.90,1.60,5.36,0.87,-4.90,4.34,
3.622,16.90,1.60,5.36,1.10,-4.04,4.01,
3.622,17.38,-1.72,-2.07,1.10,-4.04,4.01,
3.625,17.38,-1.72,-2.07,1.22,-3.19,3.70,
3.627,15.24,-3.34,-9.66,1.22,-3.19,3.70,
3.628,15.24,-3.34,-9.66,1.20,-2.37,3.47,
3.63,15.24,-3.34,-9.66,1.06,-1.60,3.33,
3.632,15.24,-3.34,-9.66,0.87,-0.87,3.25,
3.632,13.54,-4.33,-14.37,0.87,-0.87,3.25,
3.635,13.54,-4.33,-14.37,0.66,-0.19,3.20,
3.637,13.54,-4.33,-14.37,0.49,0.38,3.12,
3.637,13.81,-4.90,-11.99,0.49,0.38,3.12,
3.639,13.81,-4.90,-11.99,0.36,0.77,2.97,
3.642,13.81,-4.90,-11.99,0.27,0.97,2.73,
3.643,15.46,-4.49,-5.65,0.27,0.97,2.73,
3.645,15.46,-4.49,-5.65,0.19,1.05,2.44,
3.668,15.46,-4.49,-5.65,0.15,1.07,2.14,
3.668,15.48,-2.93,-0.62,0.15,1.07,2.14,
3.668,15.48,-2.93,-0.62,0.12,1.12,1.86,
3.668,15.48,-2.93,-0.62,0.10,1.25,1.63,
3.669,12.89,-0.66,0.92,0.10,1.25,1.63,
3.669,12.89,-0.66,0.92,0.10,1.49,1.45,
3.669,12.89,-0.66,0.92,0.12,1.78,1.33,
3.669,8.92,1.80,1.45,0.12,1.78,1.33,
3.669,8.92,1.80,1.45,0.15,2.07,1.23,
3.669,5.20,1.80,2.18,0.15,2.07,1.23,
3.67,5.20,1.80,2.18,0.19,2.33,1.17,
3.67,5.20,1.80,2.18,0.24,2.54,1.14,
3.67,5.20,1.80,2.18,0.28,2.69,1.12,
3.67,2.33,0.15,2.37,0.28,2.69,1.12,
3.67,2.33,0.15,2.37,0.32,2.75,1.11,
3.673,0.44,-1.03,2.44,0.32,2.75,1.11,
3.674,0.44,-1.03,2.44,0.34,2.70,1.11,
3.682,-1.33,-1.23,2.45,0.34,2.70,1.11,
3.684,-1.33,-1.23,2.45,0.35,2.55,1.12,
3.684,-1.33,-1.23,2.45,0.35,2.36,1.13,
3.685,-1.33,-1.23,2.45,0.36,2.20,1.14,
3.685,-1.33,-1.23,2.45,0.38,2.04,1.16,
3.685,-1.95,-0.54,3.07,0.38,2.04,1.16,
3.685,-1.95,-0.54,3.07,0.41,1.85,1.17,
3.687,-1.95,-0.54,3.07,0.44,1.64,1.19,
3.687,-2.26,0.06,3.38,0.44,1.64,1.19,
3.69,-2.26,0.06,3.38,0.48,1.39,1.22,
3.697,-2.26,0.06,3.38,0.51,1.11,1.25,
3.697,-2.50,0.47,3.53,0.51,1.11,1.25,
3.697,-2.50,0.47,3.53,0.54,0.81,1.28,
3.698,-2.50,0.47,3.53,0.57,0.51,1.30,
3.698,-2.48,0.50,3.75,0.57,0.51,1.30,
3.705,-2.48,0.50,3.75,0.61,0.22,1.32,
3.706,-2.48,0.50,3.75,0.65,-0.05,1.35,
3.706,-2.63,0.26,3.67,0.65,-0.05,1.35,
3.706,-2.63,0.26,3.67,0.69,-0.28,1.40,
3.707,-2.63,0.26,3.67,0.73,-0.46,1.45,
3.707,-2.42,0.01,3.04,0.73,-0.46,1.45,
3.709,-2.42,0.01,3.04,0.77,-0.58,1.49,
3.712,-2.42,0.01,3.04,0.79,-0.67,1.52,
3.713,-1.90,-0.20,1.85,0.79,-0.67,1.52,
3.714,-1.90,-0.20,1.85,0.80,-0.75,1.55,
3.717,-1.90,-0.20,1.85,0.79,-0.82,1.58,
3.717,-1.26,-0.17,-0.09,0.79,-0.82,1.58,
3.719,-1.26,-0.17,-0.09,0.75,-0.86,1.60,
3.721,-0.38,-0.06,-2.73,0.75,-0.86,1.60,
3.721,-0.38,-0.06,-2.73,0.69,-0.88,1.61,
3.724,-0.38,-0.06,-2.73,0.62,-0.87,1.60,
3.729,0.43,-0.15,-4.14,0.62,-0.87,1.60,
3.73,0.43,-0.15,-4.14,0.53,-0.85,1.59,
3.73,0.43,-0.15,-4.14,0.45,-0.83,1.58,
3.732,1.23,-0.77,-3.40,0.45,-0.83,1.58,
3.732,1.23,-0.77,-3.40,0.39,-0.80,1.55,
3.735,1.23,-0.77,-3.40,0.35,-0.71,1.51,
3.737,1.23,-0.77,-3.40,0.32,-0.60,1.47,
3.738,2.13,-1.24,-2.39,0.32,-0.60,1.47,
3.74,2.13,-1.24,-2.39,0.31,-0.48,1.41,
3.741,2.13,-1.24,-2.39,0.30,-0.35,1.34,
3.742,3.22,-1.19,-1.67,0.30,-0.35,1.34,
3.745,3.22,-1.19,-1.67,0.29,-0.21,1.27,
3.747,4.17,-0.96,-1.88,0.29,-0.21,1.27,
3.747,4.17,-0.96,-1.88,0.29,-0.06,1.18,
3.749,4.17,-0.96,-1.88,0.27,0.09,1.08,
3.751,4.66,-0.73,-2.18,0.27,0.09,1.08,
3.752,4.66,-0.73,-2.18,0.26,0.24,0.99,
3.754,4.66,-0.73,-2.18,0.24,0.35,0.89,
3.756,4.66,-0.73,-2.18,0.23,0.50,0.78,
3.756,4.77,-1.11,-2.39,0.23,0.50,0.78,
3.759,4.77,-1.11,-2.39,0.21,0.68,0.68,
3.762,3.80,-1.36,-1.78,0.21,0.68,0.68,
3.763,3.80,-1.36,-1.78,0.19,0.82,0.60,
3.764,3.80,-1.36,-1.78,0.18,0.90,0.53,
3.767,3.80,-1.36,-1.78,0.18,0.94,0.47,
3.767,2.49,-1.02,-0.20,0.18,0.94,0.47,
3.769,2.49,-1.02,-0.20,0.19,0.96,0.42,
3.771,2.49,-1.02,-0.20,0.21,0.97,0.39,
3.772,1.04,-0.51,0.73,0.21,0.97,0.39,
3.773,1.04,-0.51,0.73,0.23,0.97,0.37,
3.779,1.04,-0.51,0.73,0.25,0.95,0.37,
3.781,-0.24,-0.15,1.11,0.25,0.95,0.37,
3.782,-0.24,-0.15,1.11,0.26,0.91,0.38,
3.782,-0.24,-0.15,1.11,0.27,0.85,0.39,
3.782,-1.11,0.21,1.33,0.27,0.85,0.39,
3.785,-1.11,0.21,1.33,0.28,0.77,0.42,
3.788,-1.89,0.44,1.62,0.28,0.77,0.42,
3.788,-1.89,0.44,1.62,0.28,0.68,0.45,
3.789,-1.89,0.44,1.62,0.29,0.58,0.49,
3.791,-1.89,0.44,1.62,0.30,0.47,0.54,
3.791,-2.47,0.54,1.81,0.30,0.47,0.54,
3.814,-2.47,0.54,1.81,0.31,0.37,0.59,
3.815,-2.64,0.64,1.83,0.31,0.37,0.59,
3.816,-2.64,0.64,1.83,0.31,0.26,0.64,
3.817,-2.64,0.64,1.83,0.32,0.17,0.69,
3.817,-2.64,0.64,1.83,0.33,0.08,0.74,
3.817,-2.39,0.65,1.67,0.33,0.08,0.74,
3.818,-2.39,0.65,1.67,0.33,-0.01,0.78,
3.818,-2.39,0.65,1.67,0.34,-0.08,0.83,
3.818,-1.84,0.48,1.28,0.34,-0.08,0.83,
3.819,-1.84,0.48,1.28,0.34,-0.15,0.86,
3.819,-1.84,0.48,1.28,0.34,-0.20,0.88,
3.849,-1.06,0.21,0.71,0.34,-0.20,0.88,
3.849,-1.06,0.21,0.71,0.34,-0.23,0.90,
3.85,-1.06,0.21,0.71,0.34,-0.25,0.91,
3.85,-0.26,-0.07,0.11,0.34,-0.25,0.91,
3.85,-0.26,-0.07,0.11,0.33,-0.26,0.91,
3.85,-0.26,-0.07,0.11,0.33,-0.25,0.89,
3.851,0.51,-0.28,-0.37,0.33,-0.25,0.89,
3.851,0.51,-0.28,-0.37,0.32,-0.23,0.88,
3.851,0.51,-0.28,-0.37,0.32,-0.20,0.85,
3.851,1.02,-0.43,-0.57,0.32,-0.20,0.85,
3.852,1.02,-0.43,-0.57,0.32,-0.16,0.83,
3.852,1.02,-0.43,-0.57,0.32,-0.11,0.80,
3.852,1.28,-0.44,-0.59,0.32,-0.11,0.80,
3.852,1.28,-0.44,-0.59,0.32,-0.05,0.76,
3.853,1.39,-0.23,-0.21,0.32,-0.05,0.76,
3.853,1.39,-0.23,-0.21,0.32,-0.02,0.74,
3.853,1.39,-0.23,-0.21,0.33,0.01,0.70,
3.853,1.39,-0.23,-0.21,0.33,0.11,0.66,
3.854,1.48,-0.34,-1.04,0.33,0.11,0.66,
3.854,1.48,-0.34,-1.04,0.34,0.27,0.63,
3.854,1.16,-0.24,-1.15,0.34,0.27,0.63,
3.854,1.16,-0.24,-1.15,0.33,0.41,0.60,
3.855,1.16,-0.24,-1.15,0.33,0.49,0.58,
3.855,1.16,-0.24,-1.15,0.34,0.52,0.56,
3.855,0.63,-0.24,-0.13,0.34,0.52,0.56,
3.855,0.63,-0.24,-0.13,0.34,0.55,0.55,
3.857,-0.14,-0.09,0.20,0.34,0.55,0.55,
3.858,-0.14,-0.09,0.20,0.35,0.56,0.54,
3.86,-0.14,-0.09,0.20,0.36,0.57,0.54,
3.861,-0.78,0.30,0.11,0.36,0.57,0.54,
3.863,-0.78,0.30,0.11,0.36,0.58,0.55,
3.863,-0.78,0.30,0.11,0.36,0.58,0.57,
3.866,-0.78,0.30,0.11,0.36,0.58,0.60,
3.867,-1.41,0.71,-0.12,0.36,0.58,0.60,
3.869,-1.41,0.71,-0.12,0.35,0.56,0.63,
3.871,-1.41,0.71,-0.12,0.34,0.52,0.66,
3.871,-2.06,0.89,-0.31,0.34,0.52,0.66,
3.873,-2.06,0.89,-0.31,0.33,0.48,0.70,
3.876,-2.47,0.76,-0.35,0.33,0.48,0.70,
3.877,-2.47,0.76,-0.35,0.32,0.45,0.74,
3.879,-2.47,0.76,-0.35,0.31,0.42,0.79,
3.88,-2.47,0.76,-0.35,0.30,0.39,0.84,
3.881,-2.44,0.48,-0.36,0.30,0.39,0.84,
3.883,-2.44,0.48,-0.36,0.29,0.37,0.88,
3.886,-2.44,0.48,-0.36,0.29,0.37,0.92,
3.886,-1.91,0.42,-0.53,0.29,0.37,0.92,
3.888,-1.91,0.42,-0.53,0.28,0.37,0.96,
3.89,-1.91,0.42,-0.53,0.27,0.37,0.98,
3.891,-1.22,0.27,-0.52,0.27,0.37,0.98,
3.892,-1.22,0.27,-0.52,0.26,0.36,0.99,
3.902,-1.22,0.27,-0.52,0.26,0.35,1.01,
3.903,-0.66,0.11,-0.25,0.26,0.35,1.01,
3.903,-0.66,0.11,-0.25,0.25,0.34,1.01,
3.904,-0.66,0.11,-0.25,0.25,0.35,1.02,
3.906,-0.56,0.31,-0.45,0.25,0.35,1.02,
3.906,-0.56,0.31,-0.45,0.24,0.37,1.03,
3.906,-0.56,0.31,-0.45,0.23,0.34,1.04,
3.907,-0.88,0.69,-0.51,0.23,0.34,1.04,
3.943,-0.88,0.69,-0.51,0.23,0.42,1.06,
3.943,-0.88,0.69,-0.51,0.22,0.55,1.08,
3.943,-1.23,0.77,-1.66,0.22,0.55,1.08,
3.943,-1.23,0.77,-1.66,0.20,0.59,1.10,
3.944,-1.23,0.77,-1.66,0.19,0.59,1.11,
3.944,-0.97,0.41,-0.62,0.19,0.59,1.11,
3.945,-0.97,0.41,-0.62,0.19,0.59,1.13,
3.945,-0.97,0.41,-0.62,0.18,0.61,1.14,
3.945,-0.81,0.16,-0.21,0.18,0.61,1.14,
3.945,-0.81,0.16,-0.21,0.18,0.63,1.15,
3.945,-0.49,0.22,0.01,0.18,0.63,1.15,
3.946,-0.49,0.22,0.01,0.18,0.64,1.16,
3.946,-0.49,0.22,0.01,0.18,0.65,1.16,
3.946,-0.50,0.45,-0.33,0.18,0.65,1.16,
3.946,-0.50,0.45,-0.33,0.18,0.66,1.17,
3.946,-0.50,0.45,-0.33,0.18,0.69,1.17,
3.946,-0.50,0.45,-0.33,0.17,0.72,1.18,
3.946,-0.67,0.57,-0.65,0.17,0.72,1.18,
3.946,-0.67,0.57,-0.65,0.17,0.74,1.19,
3.947,-0.67,0.57,-0.65,0.17,0.76,1.21,
3.947,-1.11,0.62,-0.51,0.17,0.76,1.21,
3.947,-1.11,0.62,-0.51,0.16,0.77,1.22,
3.947,-1.41,0.56,-0.63,0.16,0.77,1.22,
3.947,-1.41,0.56,-0.63,0.16,0.77,1.24,
3.949,-1.41,0.56,-0.63,0.17,0.76,1.26,
3.952,-1.24,0.88,-1.24,0.17,0.76,1.26,
3.952,-1.24,0.88,-1.24,0.15,0.75,1.26,
3.953,-1.24,0.88,-1.24,0.12,0.77,1.27,
3.956,-1.28,1.51,-0.87,0.12,0.77,1.27,
3.956,-1.28,1.51,-0.87,0.10,0.78,1.30,
3.957,-1.28,1.51,-0.87,0.09,0.79,1.31,
3.96,-1.03,1.87,-0.24,0.09,0.79,1.31,
3.96,-1.03,1.87,-0.24,0.08,0.81,1.31,
3.963,-1.03,1.87,-0.24,0.07,0.82,1.31,
3.965,-1.03,1.87,-0.24,0.07,0.81,1.32,
3.965,-1.01,1.72,0.54,0.07,0.81,1.32,
3.968,-1.01,1.72,0.54,0.07,0.79,1.33,
3.971,-1.01,1.72,0.54,0.07,0.78,1.34,
3.971,-1.10,1.51,0.80,0.07,0.78,1.34,
3.972,-1.10,1.51,0.80,0.08,0.79,1.35,
3.975,-1.10,1.51,0.80,0.08,0.80,1.36,
3.975,-1.11,1.57,0.71,0.08,0.80,1.36,
3.987,-1.11,1.57,0.71,0.08,0.81,1.38,
3.987,-1.11,1.57,0.71,0.08,0.81,1.39,
3.987,-1.25,1.76,0.78,0.08,0.81,1.39,
3.988,-1.25,1.76,0.78,0.08,0.81,1.41,
3.988,-1.36,1.75,0.86,0.08,0.81,1.41,
3.988,-1.36,1.75,0.86,0.07,0.79,1.42,
3.988,-1.36,1.75,0.86,0.06,0.78,1.44,
3.991,-1.36,1.75,0.86,0.05,0.78,1.46,
3.991,-1.49,1.93,0.89,0.05,0.78,1.46,
3.992,-1.49,1.93,0.89,0.04,0.78,1.49,
4.005,-1.49,1.93,0.89,0.04,0.78,1.51,
4.005,-1.68,2.10,1.01,0.04,0.78,1.51,
4.005,-1.68,2.10,1.01,0.03,0.78,1.54,
4.006,-1.68,2.10,1.01,0.03,0.79,1.57,
4.006,-1.82,2.19,0.80,0.03,0.79,1.57,
4.006,-1.82,2.19,0.80,0.02,0.78,1.59,
4.006,-1.82,2.19,0.80,0.01,0.77,1.62,
4.006,-1.94,2.07,0.76,0.01,0.77,1.62,
4.007,-1.94,2.07,0.76,-0.00,0.76,1.65,
4.009,-1.94,2.07,0.76,-0.01,0.73,1.68,
4.01,-2.08,1.71,0.93,-0.01,0.73,1.68,
4.014,-2.08,1.71,0.93,-0.02,0.70,1.71,
4.018,-2.08,1.71,0.93,-0.04,0.69,1.74,
4.018,-2.08,2.09,0.58,-0.04,0.69,1.74,
4.019,-2.08,2.09,0.58,-0.06,0.71,1.77,
4.019,-2.08,2.09,0.58,-0.07,0.72,1.80,
4.02,-2.04,2.36,0.37,-0.07,0.72,1.80,
4.022,-2.04,2.36,0.37,-0.09,0.70,1.83,
4.024,-2.04,2.36,0.37,-0.10,0.66,1.86,
4.025,-2.06,2.17,0.74,-0.10,0.66,1.86,
4.027,-2.06,2.17,0.74,-0.12,0.66,1.89,
4.031,-1.91,2.49,0.06,-0.12,0.66,1.89,
4.031,-1.91,2.49,0.06,-0.14,0.68,1.92,
4.032,-1.91,2.49,0.06,-0.16,0.70,1.94,
4.034,-2.02,2.69,0.16,-0.16,0.70,1.94,
4.035,-2.02,2.69,0.16,-0.18,0.71,1.97,
4.038,-2.02,2.69,0.16,-0.20,0.71,2.00,
4.043,-2.06,2.70,0.35,-0.20,0.71,2.00,
4.043,-2.06,2.70,0.35,-0.22,0.71,2.03,
4.043,-2.06,2.70,0.35,-0.23,0.71,2.06,
4.045,-2.06,2.70,0.35,-0.25,0.70,2.09,
4.048,-2.25,2.76,0.14,-0.25,0.70,2.09,
4.048,-2.25,2.76,0.14,-0.28,0.69,2.12,
4.049,-2.44,3.02,-0.28,-0.28,0.69,2.12,
4.049,-2.44,3.02,-0.28,-0.32,0.69,2.15,
4.052,-2.44,3.02,-0.28,-0.35,0.68,2.19,
4.054,-2.44,3.02,-0.28,-0.38,0.67,2.22,
4.054,-2.55,3.27,-0.33,-0.38,0.67,2.22,
4.056,-2.55,3.27,-0.33,-0.41,0.66,2.26,
4.059,-2.55,3.27,-0.33,-0.43,0.65,2.30,
4.059,-2.72,3.27,-0.18,-0.43,0.65,2.30,
4.062,-2.72,3.27,-0.18,-0.46,0.63,2.34,
4.064,-2.85,3.37,-0.32,-0.46,0.63,2.34,
4.064,-2.85,3.37,-0.32,-0.48,0.63,2.38,
4.066,-2.85,3.37,-0.32,-0.51,0.63,2.42,
4.068,-2.85,3.37,-0.32,-0.53,0.62,2.46,
4.07,-2.78,3.30,-0.36,-0.53,0.62,2.46,
4.071,-2.78,3.30,-0.36,-0.56,0.61,2.50,
4.074,-2.78,3.30,-0.36,-0.59,0.59,2.53,
4.074,-2.70,3.17,-0.65,-0.59,0.59,2.53,
4.076,-2.70,3.17,-0.65,-0.63,0.59,2.56,
4.08,-2.69,3.19,-1.36,-0.63,0.59,2.56,
4.08,-2.69,3.19,-1.36,-0.67,0.58,2.58,
4.081,-2.69,3.19,-1.36,-0.70,0.57,2.60,
4.086,-2.75,3.39,-1.53,-0.70,0.57,2.60,
4.086,-2.75,3.39,-1.53,-0.74,0.53,2.61,
4.086,-2.75,3.39,-1.53,-0.77,0.51,2.62,
4.091,-3.30,3.97,-1.61,-0.77,0.51,2.62,
4.092,-3.30,3.97,-1.61,-0.79,0.53,2.63,
4.101,-3.30,3.97,-1.61,-0.80,0.57,2.65,
4.102,-3.30,3.97,-1.61,-0.82,0.62,2.66,
4.102,-3.75,4.88,-2.13,-0.82,0.62,2.66,
4.102,-3.75,4.88,-2.13,-0.84,0.69,2.68,
4.102,-3.75,4.88,-2.13,-0.87,0.76,2.70,
4.102,-4.10,6.03,-2.80,-0.87,0.76,2.70,
4.102,-4.10,6.03,-2.80,-0.88,0.84,2.73,
4.103,-4.10,6.03,-2.80,-0.90,0.92,2.76,
4.104,-4.39,7.21,-2.89,-0.90,0.92,2.76,
4.106,-4.39,7.21,-2.89,-0.91,0.97,2.79,
4.11,-4.39,7.21,-2.89,-0.92,1.02,2.81,
4.11,-4.71,8.15,-2.69,-0.92,1.02,2.81,
4.113,-4.71,8.15,-2.69,-0.94,1.09,2.85,
4.116,-4.71,8.15,-2.69,-0.95,1.18,2.88,
4.116,-5.44,9.37,-2.43,-0.95,1.18,2.88,
4.116,-5.44,9.37,-2.43,-0.96,1.27,2.93,
4.118,-6.71,10.68,-1.84,-0.96,1.27,2.93,
4.119,-6.71,10.68,-1.84,-0.97,1.37,2.97,
4.122,-6.71,10.68,-1.84,-0.99,1.48,3.02,
4.124,-8.22,11.66,-1.58,-0.99,1.48,3.02,
4.127,-8.22,11.66,-1.58,-1.00,1.58,3.06,
4.127,-8.22,11.66,-1.58,-1.00,1.67,3.11,
4.132,-8.22,11.66,-1.58,-1.01,1.77,3.16,
4.132,-8.22,11.66,-1.58,-1.01,1.86,3.21,
4.132,-10.06,12.37,-1.67,-1.01,1.86,3.21,
4.133,-10.06,12.37,-1.67,-1.02,1.94,3.27,
4.136,-10.06,12.37,-1.67,-1.03,2.01,3.32,
4.136,-11.81,13.21,-1.53,-1.03,2.01,3.32,
4.138,-11.81,13.21,-1.53,-1.04,2.08,3.37,
4.139,-13.01,14.04,-1.35,-1.04,2.08,3.37,
4.14,-13.01,14.04,-1.35,-1.04,2.14,3.41,
4.151,-13.01,14.04,-1.35,-1.04,2.18,3.44,
4.152,-13.94,14.89,-1.34,-1.04,2.18,3.44,
4.152,-13.94,14.89,-1.34,-1.05,2.21,3.47,
4.152,-13.94,14.89,-1.34,-1.05,2.21,3.47,
4.153,-14.16,15.48,-1.80,-1.05,2.21,3.47,
4.154,-15.15,15.81,-1.47,-1.05,2.21,3.47,
4.155,-15.15,15.81,-1.47,-1.04,2.25,3.49,
4.156,-15.15,15.81,-1.47,-1.01,2.29,3.53,
4.157,-15.15,15.81,-1.47,-0.96,2.29,3.58,
4.158,-15.15,15.81,-1.47,-0.90,2.26,3.69,
4.158,-15.71,15.86,-1.68,-0.90,2.26,3.69,
4.16,-15.71,15.86,-1.68,-0.85,2.19,3.83,
4.165,-15.71,15.82,-2.73,-0.85,2.19,3.83,
4.166,-15.71,15.82,-2.73,-0.81,2.08,4.01,
4.166,-15.71,15.82,-2.73,-0.78,1.95,4.21,
4.168,-15.71,15.82,-2.73,-0.74,1.79,4.42,
4.168,-13.89,15.26,-3.60,-0.74,1.79,4.42,
4.17,-13.89,15.26,-3.60,-0.71,1.63,4.62,
4.173,-13.89,15.26,-3.60,-0.68,1.45,4.82,
4.173,-11.22,13.96,-4.18,-0.68,1.45,4.82,
4.176,-11.22,13.96,-4.18,-0.65,1.27,5.00,
4.182,-11.22,13.96,-4.18,-0.61,1.10,5.14,
4.183,-8.58,12.77,-4.71,-0.61,1.10,5.14,
4.183,-8.58,12.77,-4.71,-0.56,0.99,5.23,
4.185,-8.58,12.77,-4.71,-0.53,0.95,5.26,
4.185,-5.57,11.42,-5.60,-0.53,0.95,5.26,
4.187,-5.57,11.42,-5.60,-0.50,0.94,5.26,
4.188,-3.06,10.26,-4.99,-0.50,0.94,5.26,
4.188,-3.06,10.26,-4.99,-0.47,0.94,5.23,
4.19,-3.06,10.26,-4.99,-0.44,0.94,5.19,
4.193,-3.06,10.26,-4.99,-0.41,0.96,5.15,
4.193,-1.20,9.39,-4.02,-0.41,0.96,5.15,
4.197,-1.20,9.39,-4.02,-0.36,0.99,5.09,
4.198,-1.20,9.39,-4.02,-0.31,1.04,5.02,
4.198,-0.51,8.57,-3.37,-0.31,1.04,5.02,
4.2,-0.51,8.57,-3.37,-0.26,1.11,4.91,
4.202,0.04,7.76,-3.10,-0.26,1.11,4.91,
4.203,0.04,7.76,-3.10,-0.20,1.18,4.75,
4.206,0.04,7.76,-3.10,-0.14,1.27,4.54,
4.207,0.05,7.22,-2.96,-0.14,1.27,4.54,
4.208,0.05,7.22,-2.96,-0.08,1.36,4.30,
4.21,0.05,7.22,-2.96,-0.02,1.46,4.05,
4.213,-0.40,6.78,-2.96,-0.02,1.46,4.05,
4.213,-0.40,6.78,-2.96,0.03,1.55,3.78,
4.215,-0.40,6.78,-2.96,0.09,1.63,3.51,
4.217,-1.82,6.08,-3.02,0.09,1.63,3.51,
4.217,-1.82,6.08,-3.02,0.14,1.72,3.27,
4.22,-1.82,6.08,-3.02,0.20,1.81,3.07,
4.222,-3.92,5.02,-3.15,0.20,1.81,3.07,
4.222,-3.92,5.02,-3.15,0.26,1.91,2.91,
4.227,-3.92,5.02,-3.15,0.32,2.03,2.75,
4.227,-4.60,3.50,-3.07,0.32,2.03,2.75,
4.227,-4.60,3.50,-3.07,0.36,2.15,2.60,
4.23,-4.60,3.50,-3.07,0.37,2.27,2.44,
4.233,-4.60,3.50,-3.07,0.38,2.39,2.30,
4.233,-4.65,1.79,-2.22,0.38,2.39,2.30,
4.235,-4.65,1.79,-2.22,0.44,2.48,2.22,
4.237,-4.65,1.79,-2.22,0.57,2.55,2.20,
4.237,-4.46,-0.50,-1.19,0.57,2.55,2.20,
4.239,-4.46,-0.50,-1.19,0.67,2.59,2.25,
4.242,-2.89,-2.36,-1.76,0.67,2.59,2.25,
4.242,-2.89,-2.36,-1.76,0.71,2.62,2.33,
4.246,-2.89,-2.36,-1.76,0.70,2.63,2.42,
4.248,-2.89,-2.36,-1.76,0.69,2.63,2.47,
4.248,-0.52,-3.49,-2.58,0.69,2.63,2.47,
4.25,-0.52,-3.49,-2.58,0.68,2.63,2.42,
4.252,-0.52,-3.49,-2.58,0.65,2.62,2.26,
4.253,1.95,-3.86,-3.20,0.65,2.62,2.26,
4.255,1.95,-3.86,-3.20,0.59,2.60,1.98,
4.257,1.95,-3.86,-3.20,0.51,2.58,1.62,
4.257,3.12,-3.79,-2.89,0.51,2.58,1.62,
4.26,3.12,-3.79,-2.89,0.45,2.55,1.21,
4.263,3.12,-3.79,-2.89,0.42,2.55,0.82,
4.263,0.44,-2.95,-2.01,0.42,2.55,0.82,
4.264,0.44,-2.95,-2.01,0.40,2.61,0.47,
4.267,0.44,-2.95,-2.01,0.41,2.73,0.16,
4.267,-3.06,-2.28,-0.82,0.41,2.73,0.16,
4.269,-3.06,-2.28,-0.82,0.43,2.85,-0.10,
4.272,-3.06,-2.28,-0.82,0.46,2.94,-0.30,
4.272,-6.15,-2.01,0.88,0.46,2.94,-0.30,
4.282,-6.15,-2.01,0.88,0.51,2.99,-0.46,
4.283,-6.15,-2.01,0.88,0.55,3.01,-0.58,
4.283,-6.15,-2.01,0.88,0.59,2.99,-0.66,
4.283,-6.15,-2.01,0.88,0.61,2.94,-0.74,
4.292,-8.73,-2.01,1.73,0.61,2.94,-0.74,
4.292,-10.49,-2.37,1.78,0.61,2.94,-0.74,
4.293,-10.49,-2.37,1.78,0.63,2.87,-0.80,
4.293,-11.50,-2.89,1.65,0.63,2.87,-0.80,
4.293,-12.16,-3.63,1.77,0.63,2.87,-0.80,
4.293,-12.16,-3.63,1.77,0.65,2.78,-0.85,
4.294,-12.16,-3.63,1.77,0.66,2.65,-0.90,
4.294,-12.16,-3.63,1.77,0.67,2.48,-0.95,
4.294,-12.16,-3.63,1.77,0.67,2.27,-0.99,
4.297,-12.45,-4.41,2.01,0.67,2.27,-0.99,
4.298,-12.45,-4.41,2.01,0.68,2.01,-1.02,
4.299,-12.45,-4.41,2.01,0.69,1.73,-1.05,
4.302,-12.45,-4.41,2.01,0.70,1.44,-1.08,
4.302,-12.01,-5.18,2.12,0.70,1.44,-1.08,
4.304,-12.01,-5.18,2.12,0.71,1.14,-1.12,
4.307,-10.87,-5.67,1.88,0.71,1.14,-1.12,
4.318,-10.87,-5.67,1.88,0.73,0.86,-1.17,
4.318,-10.87,-5.67,1.88,0.76,0.59,-1.22,
4.319,-10.87,-5.67,1.88,0.79,0.36,-1.28,
4.319,-9.88,-5.86,1.52,0.79,0.36,-1.28,
4.319,-9.88,-5.86,1.52,0.82,0.15,-1.34,
4.319,-8.54,-5.81,0.83,0.82,0.15,-1.34,
4.319,-8.54,-5.81,0.83,0.85,-0.04,-1.41,
4.32,-8.54,-5.81,0.83,0.88,-0.21,-1.48,
4.322,-7.44,-5.59,0.12,0.88,-0.21,-1.48,
4.323,-7.44,-5.59,0.12,0.91,-0.37,-1.56,
4.324,-7.44,-5.59,0.12,0.94,-0.49,-1.65,
4.328,-6.56,-5.35,-0.27,0.94,-0.49,-1.65,
4.328,-6.56,-5.35,-0.27,0.96,-0.59,-1.74,
4.329,-6.56,-5.35,-0.27,0.99,-0.68,-1.84,
4.332,-6.56,-5.35,-0.27,1.01,-0.76,-1.95,
4.332,-5.64,-5.17,-0.44,1.01,-0.76,-1.95,
4.334,-5.64,-5.17,-0.44,1.03,-0.80,-2.06,
4.337,-5.11,-5.07,-0.48,1.03,-0.80,-2.06,
4.337,-5.11,-5.07,-0.48,1.05,-0.83,-2.17,
4.339,-5.11,-5.07,-0.48,1.07,-0.85,-2.28,
4.341,-5.06,-4.99,-0.35,1.07,-0.85,-2.28,
4.342,-5.06,-4.99,-0.35,1.09,-0.87,-2.39,
4.344,-5.06,-4.99,-0.35,1.10,-0.90,-2.49,
4.346,-5.06,-4.99,-0.35,1.12,-0.92,-2.59,
4.347,-5.25,-4.95,-0.21,1.12,-0.92,-2.59,
4.349,-5.25,-4.95,-0.21,1.13,-0.94,-2.69,
4.351,-5.25,-4.95,-0.21,1.15,-0.95,-2.80,
4.352,-5.52,-4.93,0.14,1.15,-0.95,-2.80,
4.354,-5.52,-4.93,0.14,1.17,-0.95,-2.89,
4.357,-5.52,-4.93,0.14,1.19,-0.97,-2.99,
4.357,-5.87,-4.92,0.37,1.19,-0.97,-2.99,
4.359,-5.87,-4.92,0.37,1.20,-1.00,-3.08,
4.362,-5.87,-4.92,0.37,1.22,-1.04,-3.18,
4.362,-5.96,-4.98,0.42,1.22,-1.04,-3.18,
4.366,-5.96,-4.98,0.42,1.23,-1.07,-3.28,
4.366,-5.96,-4.98,0.42,1.24,-1.10,-3.37,
4.367,-6.06,-5.10,0.43,1.24,-1.10,-3.37,
4.368,-6.06,-5.10,0.43,1.25,-1.14,-3.46,
4.371,-6.06,-5.10,0.43,1.27,-1.15,-3.56,
4.371,-6.05,-5.24,0.42,1.27,-1.15,-3.56,
4.373,-6.05,-5.24,0.42,1.28,-1.16,-3.65,
4.376,-6.05,-5.24,0.42,1.29,-1.18,-3.73,
4.376,-6.15,-5.27,0.42,1.29,-1.18,-3.73,
4.379,-6.15,-5.27,0.42,1.31,-1.22,-3.81,
4.383,-6.15,-5.27,0.42,1.32,-1.26,-3.89,
4.383,-6.13,-5.24,0.49,1.32,-1.26,-3.89,
4.383,-6.13,-5.24,0.49,1.34,-1.29,-3.97,
4.386,-6.13,-5.24,0.49,1.35,-1.31,-4.04,
4.386,-5.88,-5.21,0.53,1.35,-1.31,-4.04,
4.388,-5.88,-5.21,0.53,1.37,-1.31,-4.12,
4.391,-5.88,-5.21,0.53,1.38,-1.32,-4.20,
4.391,-5.53,-5.15,0.48,1.38,-1.32,-4.20,
4.393,-5.53,-5.15,0.48,1.40,-1.32,-4.28,
4.409,-5.53,-5.15,0.48,1.40,-1.33,-4.36,
4.409,-5.17,-4.99,0.43,1.40,-1.33,-4.36,
4.409,-5.17,-4.99,0.43,1.41,-1.34,-4.44,
4.41,-5.17,-4.99,0.43,1.42,-1.34,-4.52,
4.41,-4.95,-4.79,0.36,1.42,-1.34,-4.52,
4.41,-4.95,-4.79,0.36,1.42,-1.34,-4.60,
4.41,-4.95,-4.79,0.36,1.41,-1.34,-4.68,
4.41,-4.88,-4.56,0.47,1.41,-1.34,-4.68,
4.411,-4.88,-4.56,0.47,1.42,-1.32,-4.76,
4.411,-4.88,-4.56,0.47,1.42,-1.30,-4.84,
4.411,-4.95,-4.33,0.64,1.42,-1.30,-4.84,
4.414,-4.95,-4.33,0.64,1.42,-1.28,-4.91,
4.416,-4.95,-4.33,0.64,1.43,-1.25,-4.99,
4.417,-4.84,-4.15,0.81,1.43,-1.25,-4.99,
4.418,-4.84,-4.15,0.81,1.43,-1.22,-5.07,
4.421,-4.84,-4.15,0.81,1.44,-1.20,-5.15,
4.421,-4.89,-4.00,1.03,1.44,-1.20,-5.15,
4.423,-4.89,-4.00,1.03,1.45,-1.18,-5.23,
4.426,-4.89,-4.00,1.03,1.45,-1.16,-5.31,
4.426,-4.86,-3.87,1.07,1.45,-1.16,-5.31,
4.43,-4.86,-3.87,1.07,1.46,-1.14,-5.39,
4.432,-4.91,-3.71,1.04,1.46,-1.14,-5.39,
4.432,-4.91,-3.71,1.04,1.46,-1.13,-5.46,
4.433,-4.91,-3.71,1.04,1.46,-1.14,-5.53,
4.435,-4.91,-3.71,1.04,1.46,-1.15,-5.60,
4.436,-5.07,-3.52,1.02,1.46,-1.15,-5.60,
4.438,-5.07,-3.52,1.02,1.46,-1.17,-5.67,
4.44,-5.06,-3.24,1.20,1.46,-1.17,-5.67,
4.441,-5.06,-3.24,1.20,1.45,-1.20,-5.74,
4.443,-5.06,-3.24,1.20,1.45,-1.20,-5.80,
4.447,-5.06,-3.24,1.20,1.45,-1.18,-5.88,
4.448,-4.43,-3.12,0.83,1.45,-1.18,-5.88,
4.448,-4.43,-3.12,0.83,1.44,-1.16,-5.95,
4.45,-4.43,-3.12,0.83,1.43,-1.16,-6.02,
4.451,-3.63,-2.85,1.00,1.43,-1.16,-6.02,
4.453,-3.63,-2.85,1.00,1.42,-1.19,-6.09,
4.455,-3.63,-2.85,1.00,1.42,-1.22,-6.17,
4.456,-3.00,-2.51,1.29,1.42,-1.22,-6.17,
4.458,-3.00,-2.51,1.29,1.41,-1.25,-6.24,
4.46,-3.00,-2.51,1.29,1.40,-1.27,-6.32,
4.461,-2.48,-2.24,1.47,1.40,-1.27,-6.32,
4.465,-2.48,-2.24,1.47,1.40,-1.28,-6.40,
4.466,-1.95,-1.97,1.53,1.40,-1.28,-6.40,
4.466,-1.95,-1.97,1.53,1.39,-1.27,-6.48,
4.467,-1.95,-1.97,1.53,1.38,-1.26,-6.56,
4.47,-1.40,-1.66,1.49,1.38,-1.26,-6.56,
4.471,-1.40,-1.66,1.49,1.37,-1.24,-6.64,
4.481,-1.40,-1.66,1.49,1.36,-1.21,-6.72,
4.481,-0.91,-1.27,1.40,1.36,-1.21,-6.72,
4.481,-0.91,-1.27,1.40,1.34,-1.19,-6.80,
4.481,-0.91,-1.27,1.40,1.33,-1.16,-6.89,
4.481,-0.51,-0.80,1.45,1.33,-1.16,-6.89,
4.485,-0.51,-0.80,1.45,1.32,-1.14,-6.98,
4.494,-0.51,-0.80,1.45,1.30,-1.13,-7.07,
4.494,-0.51,-0.80,1.45,1.29,-1.12,-7.16,
4.494,-0.28,-0.22,1.72,1.29,-1.12,-7.16,
4.494,-0.28,-0.22,1.72,1.28,-1.13,-7.25,
4.495,-0.28,-0.22,1.72,1.27,-1.16,-7.35,
4.495,-0.18,0.39,2.04,1.27,-1.16,-7.35,
4.495,-0.18,0.39,2.04,1.26,-1.20,-7.44,
4.495,-0.18,0.39,2.04,1.25,-1.24,-7.53,
4.495,-0.23,1.07,2.23,1.25,-1.24,-7.53,
4.498,-0.23,1.07,2.23,1.24,-1.30,-7.61,
4.501,-0.23,1.07,2.23,1.22,-1.38,-7.69,
4.501,-0.23,1.89,2.32,1.22,-1.38,-7.69,
4.502,-0.23,1.89,2.32,1.20,-1.45,-7.77,
4.505,-0.23,1.89,2.32,1.18,-1.53,-7.84,
4.505,-0.18,2.99,2.34,1.18,-1.53,-7.84,
4.507,-0.18,2.99,2.34,1.16,-1.62,-7.91,
4.51,-0.18,2.99,2.34,1.13,-1.73,-7.96,
4.51,-0.32,3.94,2.35,1.13,-1.73,-7.96,
4.513,-0.32,3.94,2.35,1.11,-1.86,-7.98,
4.516,-0.32,3.94,2.35,1.08,-1.99,-7.98,
4.516,-0.53,4.75,2.45,1.08,-1.99,-7.98,
4.518,-0.53,4.75,2.45,1.06,-2.05,-7.99,
4.52,-0.53,4.75,2.45,1.05,-2.07,-7.99,
4.52,0.39,6.68,2.49,1.05,-2.07,-7.99,
4.522,0.39,6.68,2.49,1.04,-2.11,-8.02,
4.525,0.39,6.68,2.49,1.04,-2.17,-8.06,
4.525,1.94,9.98,2.37,1.04,-2.17,-8.06,
4.528,1.94,9.98,2.37,1.05,-2.30,-8.12,
4.533,1.94,9.98,2.37,1.05,-2.48,-8.20,
4.533,3.94,14.24,1.88,1.05,-2.48,-8.20,
4.534,3.94,14.24,1.88,1.06,-2.71,-8.26,
4.535,3.94,14.24,1.88,1.04,-2.96,-8.26,
4.535,4.64,17.28,0.25,1.04,-2.96,-8.26,
4.537,4.64,17.28,0.25,1.00,-3.19,-8.21,
4.539,4.64,17.28,0.25,0.96,-3.39,-8.12,
4.54,5.27,19.11,-1.29,0.96,-3.39,-8.12,
4.544,5.27,19.11,-1.29,0.91,-3.54,-8.00,
4.544,5.27,19.11,-1.29,0.87,-3.64,-7.88,
4.545,6.75,20.44,-1.77,0.87,-3.64,-7.88,
4.549,6.75,20.44,-1.77,0.83,-3.70,-7.75,
4.55,8.16,20.84,-2.67,0.83,-3.70,-7.75,
4.55,8.16,20.84,-2.67,0.78,-3.72,-7.59,
4.552,8.16,20.84,-2.67,0.72,-3.69,-7.39,
4.555,8.16,20.84,-2.67,0.66,-3.61,-7.15,
4.555,9.17,21.94,-3.94,0.66,-3.61,-7.15,
4.557,9.17,21.94,-3.94,0.60,-3.48,-6.88,
4.559,9.17,21.94,-3.94,0.56,-3.37,-6.58,
4.56,10.94,23.67,-3.31,0.56,-3.37,-6.58,
4.562,10.94,23.67,-3.31,0.58,-3.34,-6.25,
4.566,10.94,23.67,-3.31,0.65,-3.34,-5.89,
4.566,12.15,24.23,-0.11,0.65,-3.34,-5.89,
4.567,12.15,24.23,-0.11,0.75,-3.34,-5.52,
4.57,14.30,21.16,-0.37,0.75,-3.34,-5.52,
4.57,14.30,21.16,-0.37,0.83,-3.32,-5.16,
4.572,14.30,21.16,-0.37,0.90,-3.25,-4.81,
4.575,14.30,21.16,-0.37,0.93,-3.08,-4.44,
4.575,14.39,16.15,-4.07,0.93,-3.08,-4.44,
4.577,14.39,16.15,-4.07,0.94,-2.82,-4.06,
4.583,15.89,12.54,-7.49,0.94,-2.82,-4.06,
4.593,15.89,12.54,-7.49,0.92,-2.51,-3.69,
4.593,15.89,12.54,-7.49,0.85,-2.30,-3.29,
4.593,15.89,12.54,-7.49,0.72,-2.21,-2.84,
4.593,18.86,9.96,-6.95,0.72,-2.21,-2.84,
4.594,18.86,9.96,-6.95,0.64,-2.08,-2.37,
4.594,18.86,9.96,-6.95,0.59,-1.84,-1.85,
4.594,19.64,7.45,-7.17,0.59,-1.84,-1.85,
4.594,19.64,7.45,-7.17,0.53,-1.60,-1.31,
4.594,19.64,7.45,-7.17,0.52,-1.43,-0.77,
4.595,21.40,4.18,-4.86,0.52,-1.43,-0.77,
4.601,21.40,4.18,-4.86,0.51,-1.30,-0.19,
4.602,21.40,4.18,-4.86,0.52,-1.17,0.42,
4.602,21.21,1.57,-4.57,0.52,-1.17,0.42,
4.602,21.21,1.57,-4.57,0.55,-1.08,1.08,
4.605,21.35,-0.45,-3.92,0.55,-1.08,1.08,
4.605,21.35,-0.45,-3.92,0.54,-1.04,1.79,
4.606,21.35,-0.45,-3.92,0.53,-1.06,2.49,
4.609,22.04,-2.31,-3.70,0.53,-1.06,2.49,
4.609,22.04,-2.31,-3.70,0.58,-1.08,3.15,
4.611,22.04,-2.31,-3.70,0.50,-1.17,3.78,
4.616,23.01,-1.59,-4.24,0.50,-1.17,3.78,
4.617,23.01,-1.59,-4.24,0.40,-1.26,4.23,
4.617,23.01,-1.59,-4.24,0.36,-1.30,4.51,
4.619,23.01,-1.59,-4.24,0.25,-1.39,4.64,
4.619,24.41,-0.76,-3.23,0.25,-1.39,4.64,
4.622,24.41,-0.76,-3.23,0.08,-1.52,4.65,
4.625,24.41,-0.76,-3.23,-0.02,-1.64,4.54,
4.625,25.45,-0.02,-0.16,-0.02,-1.64,4.54,
4.627,25.45,-0.02,-0.16,-0.05,-1.73,4.32,
4.629,25.45,-0.02,-0.16,-0.07,-1.73,4.05,
4.629,21.19,1.58,0.84,-0.07,-1.73,4.05,
4.632,21.19,1.58,0.84,-0.14,-1.59,3.74,
4.634,21.19,1.58,0.84,-0.29,-1.27,3.35,
4.634,12.85,3.78,0.10,-0.29,-1.27,3.35,
4.636,12.85,3.78,0.10,-0.45,-0.77,2.87,
4.65,12.85,3.78,0.10,-0.51,-0.11,2.36,
4.65,1.63,6.69,5.80,-0.51,-0.11,2.36,
4.651,1.63,6.69,5.80,-0.45,0.64,1.82,
4.651,1.63,6.69,5.80,-0.30,1.30,1.23,
4.651,-4.41,8.68,11.10,-0.30,1.30,1.23,
4.652,-4.41,8.68,11.10,-0.15,1.77,0.68,
4.652,-4.41,8.68,11.10,-0.04,1.95,0.35,
4.652,-8.12,9.09,10.71,-0.04,1.95,0.35,
4.652,-8.12,9.09,10.71,0.01,1.74,0.35,
4.655,-8.12,9.09,10.71,0.03,1.20,0.68,
4.656,-12.37,9.70,10.33,0.03,1.20,0.68,
4.656,-12.37,9.70,10.33,0.03,0.46,1.27,
4.659,-12.37,9.70,10.33,0.05,-0.33,2.03,
4.659,-14.47,10.37,7.96,0.05,-0.33,2.03,
4.661,-14.47,10.37,7.96,0.09,-1.02,2.86,
4.665,-12.68,10.86,1.70,0.09,-1.02,2.86,
4.665,-12.68,10.86,1.70,0.08,-1.52,3.63,
4.666,-12.68,10.86,1.70,0.01,-1.82,4.25,
4.669,-12.68,10.86,1.70,-0.04,-1.96,4.58,
4.669,-4.05,10.60,-2.81,-0.04,-1.96,4.58,
4.671,-4.05,10.60,-2.81,-0.01,-1.96,4.69,
4.674,2.07,9.28,-1.87,-0.01,-1.96,4.69,
4.675,2.07,9.28,-1.87,0.14,-1.86,4.66,
4.676,2.07,9.28,-1.87,0.37,-1.74,4.53,
4.678,2.07,9.28,-1.87,0.60,-1.70,4.32,
4.679,6.07,5.77,-2.17,0.60,-1.70,4.32,
4.689,6.07,5.77,-2.17,0.80,-1.82,4.07,
4.69,6.07,5.77,-2.17,0.91,-2.09,3.85,
4.69,7.75,1.37,-3.24,0.91,-2.09,3.85,
4.69,7.75,1.37,-3.24,0.93,-2.52,3.68,
4.69,7.75,1.37,-3.24,0.91,-3.02,3.58,
4.69,6.95,-1.24,-2.96,0.91,-3.02,3.58,
4.69,6.95,-1.24,-2.96,0.89,-3.48,3.55,
4.696,6.95,-1.24,-2.96,0.89,-3.78,3.55,
4.696,5.38,-2.23,-4.50,0.89,-3.78,3.55,
4.696,5.38,-2.23,-4.50,0.88,-3.89,3.57,
4.7,5.38,-2.23,-4.50,0.81,-3.79,3.58,
4.7,5.16,-2.91,-6.90,0.81,-3.79,3.58,
4.7,5.16,-2.91,-6.90,0.68,-3.54,3.58,
4.703,5.16,-2.91,-6.90,0.51,-3.21,3.56,
4.704,7.21,-3.40,-8.37,0.51,-3.21,3.56,
4.706,7.21,-3.40,-8.37,0.32,-2.87,3.53,
4.708,7.21,-3.40,-8.37,0.14,-2.60,3.52,
4.709,10.44,-2.13,-6.40,0.14,-2.60,3.52,
4.71,10.44,-2.13,-6.40,0.01,-2.36,3.56,
4.716,14.49,2.35,-1.52,0.01,-2.36,3.56,
4.717,14.49,2.35,-1.52,-0.03,-2.11,3.65,
4.717,14.49,2.35,-1.52,0.03,-1.85,3.73,
4.718,14.49,2.35,-1.52,0.14,-1.52,3.69,
4.718,19.26,6.02,1.11,0.14,-1.52,3.69,
4.721,19.26,6.02,1.11,0.25,-1.11,3.45,
4.723,20.67,4.29,0.06,0.25,-1.11,3.45,
4.724,20.67,4.29,0.06,0.35,-0.62,3.10,
4.728,17.68,-1.80,-0.74,0.35,-0.62,3.10,
4.728,17.68,-1.80,-0.74,0.39,-0.05,2.74,
4.729,17.68,-1.80,-0.74,0.39,0.53,2.43,
4.732,17.68,-1.80,-0.74,0.38,1.02,2.15,
4.735,14.05,-6.59,1.06,0.38,1.02,2.15,
4.735,14.05,-6.59,1.06,0.38,1.31,1.86,
4.735,14.05,-6.59,1.06,0.38,1.41,1.58,
4.738,14.05,-6.59,1.06,0.38,1.38,1.34,
4.738,9.56,-5.86,1.80,0.38,1.38,1.34,
4.74,9.56,-5.86,1.80,0.37,1.39,1.20,
4.743,9.56,-5.86,1.80,0.35,1.45,1.13,
4.743,5.59,-1.34,0.67,0.35,1.45,1.13,
4.745,5.59,-1.34,0.67,0.32,1.53,1.08,
4.749,3.70,0.17,0.45,0.32,1.53,1.08,
4.75,3.70,0.17,0.45,0.30,1.61,1.04,
4.751,3.70,0.17,0.45,0.30,1.69,0.99,
4.753,3.70,0.17,0.45,0.32,1.75,0.95,
4.753,2.06,-0.01,1.21,0.32,1.75,0.95,
4.755,2.06,-0.01,1.21,0.35,1.77,0.92,
4.758,2.06,-0.01,1.21,0.39,1.76,0.91,
4.758,0.44,-0.46,2.55,0.39,1.76,0.91,
4.76,0.44,-0.46,2.55,0.44,1.70,0.91,
4.763,0.44,-0.46,2.55,0.49,1.61,0.92,
4.763,-0.91,-0.66,3.57,0.49,1.61,0.92,
4.767,-0.91,-0.66,3.57,0.55,1.46,0.93,
4.768,-0.91,-0.66,3.57,0.61,1.26,0.95,
4.768,-1.82,-0.48,4.07,0.61,1.26,0.95,
4.77,-1.82,-0.48,4.07,0.66,1.02,0.97,
4.773,-2.03,0.01,3.97,0.66,1.02,0.97,
4.773,-2.03,0.01,3.97,0.71,0.77,0.98,
4.775,-2.03,0.01,3.97,0.75,0.52,1.00,
4.777,-2.03,0.01,3.97,0.79,0.27,1.01,
4.778,-2.15,0.41,3.46,0.79,0.27,1.01,
4.783,-2.15,0.41,3.46,0.82,0.05,1.04,
4.784,-2.15,0.41,3.46,0.84,-0.15,1.08,
4.784,-2.33,0.44,2.32,0.84,-0.15,1.08,
4.785,-2.33,0.44,2.32,0.85,-0.30,1.12,
4.787,-2.33,0.44,2.32,0.84,-0.41,1.16,
4.788,-2.08,0.16,0.42,0.84,-0.41,1.16,
4.791,-2.08,0.16,0.42,0.82,-0.48,1.20,
4.793,-2.08,0.16,0.42,0.78,-0.53,1.23,
4.793,-1.51,-0.16,-1.35,0.78,-0.53,1.23,
4.8,-1.51,-0.16,-1.35,0.73,-0.58,1.25,
4.801,-1.51,-0.16,-1.35,0.67,-0.61,1.27,
4.801,-0.81,-0.35,-2.29,0.67,-0.61,1.27,
4.801,-0.81,-0.35,-2.29,0.62,-0.62,1.28,
4.811,-0.81,-0.35,-2.29,0.57,-0.62,1.28,
4.827,-0.08,-0.40,-2.09,0.57,-0.62,1.28,
4.827,-0.08,-0.40,-2.09,0.54,-0.62,1.27,
4.828,-0.08,-0.40,-2.09,0.52,-0.61,1.26,
4.828,0.76,-0.48,-1.15,0.52,-0.61,1.26,
4.828,0.76,-0.48,-1.15,0.51,-0.54,1.23,
4.829,0.76,-0.48,-1.15,0.50,-0.44,1.19,
4.829,1.51,-0.63,-1.28,0.50,-0.44,1.19,
4.829,1.51,-0.63,-1.28,0.49,-0.35,1.16,
4.829,2.17,-0.57,-1.44,0.49,-0.35,1.16,
4.829,2.64,-0.60,-1.82,0.49,-0.35,1.16,
4.83,2.64,-0.60,-1.82,0.48,-0.26,1.11,
4.83,2.64,-0.60,-1.82,0.47,-0.17,1.06,
4.83,2.64,-0.60,-1.82,0.45,-0.08,1.00,
4.83,2.64,-0.60,-1.82,0.42,0.02,0.94,
4.831,2.64,-0.60,-1.82,0.40,0.12,0.88,
4.831,2.77,-0.68,-2.00,0.40,0.12,0.88,
4.831,2.77,-0.68,-2.00,0.38,0.21,0.82,
4.833,2.72,-0.80,-1.88,0.38,0.21,0.82,
4.833,2.72,-0.80,-1.88,0.35,0.30,0.76,
4.835,2.72,-0.80,-1.88,0.34,0.40,0.69,
4.837,2.72,-0.80,-1.88,0.32,0.50,0.64,
4.838,2.46,-0.72,-1.54,0.32,0.50,0.64,
4.839,2.46,-0.72,-1.54,0.31,0.58,0.59,
4.842,2.46,-0.72,-1.54,0.30,0.65,0.55,
4.842,1.94,-0.56,-1.03,0.30,0.65,0.55,
4.845,1.94,-0.56,-1.03,0.30,0.71,0.51,
4.848,1.94,-0.56,-1.03,0.30,0.75,0.49,
4.849,1.19,-0.41,-0.50,0.30,0.75,0.49,
4.849,1.19,-0.41,-0.50,0.30,0.79,0.47,
4.852,1.19,-0.41,-0.50,0.30,0.80,0.46,
4.852,0.32,-0.19,-0.13,0.30,0.80,0.46,
4.854,0.32,-0.19,-0.13,0.30,0.81,0.46,
4.857,0.32,-0.19,-0.13,0.30,0.80,0.46,
4.857,-0.50,0.07,0.16,0.30,0.80,0.46,
4.859,-0.50,0.07,0.16,0.30,0.77,0.48,
4.862,-0.50,0.07,0.16,0.30,0.74,0.50,
4.862,-1.20,0.22,0.38,0.30,0.74,0.50,
4.866,-1.20,0.22,0.38,0.30,0.70,0.52,
4.867,-1.73,0.29,0.57,0.30,0.70,0.52,
4.867,-1.73,0.29,0.57,0.30,0.65,0.55,
4.869,-1.73,0.29,0.57,0.30,0.60,0.59,
4.872,-1.73,0.29,0.57,0.30,0.54,0.63,
4.872,-1.97,0.37,0.79,0.30,0.54,0.63,
4.874,-1.97,0.37,0.79,0.31,0.49,0.66,
4.877,-1.97,0.37,0.79,0.31,0.43,0.70,
4.877,-1.93,0.40,0.97,0.31,0.43,0.70,
4.879,-1.93,0.40,0.97,0.32,0.38,0.73,
4.883,-1.93,0.40,0.97,0.33,0.35,0.76,
4.884,-1.93,0.40,0.97,0.34,0.31,0.79,
4.884,-1.69,0.36,1.02,0.34,0.31,0.79,
4.888,-1.69,0.36,1.02,0.35,0.28,0.82,
4.888,-1.34,0.29,0.86,0.35,0.28,0.82,
4.89,-1.34,0.29,0.86,0.35,0.27,0.85,
4.891,-1.34,0.29,0.86,0.35,0.25,0.86,
4.892,-0.78,0.22,0.59,0.35,0.25,0.86,
4.894,-0.78,0.22,0.59,0.36,0.24,0.87,
4.897,-0.78,0.22,0.59,0.36,0.23,0.88,
4.897,-0.33,0.12,0.33,0.36,0.23,0.88,
4.9,-0.33,0.12,0.33,0.36,0.23,0.88,
4.902,-0.33,0.12,0.33,0.36,0.24,0.87,
4.902,0.04,-0.03,0.04,0.36,0.24,0.87,
4.913,0.32,-0.14,-0.39,0.36,0.24,0.87,
4.914,0.54,-0.09,-0.87,0.36,0.24,0.87,
4.915,0.54,-0.09,-0.87,0.36,0.25,0.87,
4.915,0.54,-0.09,-0.87,0.36,0.27,0.86,
4.915,0.54,-0.09,-0.87,0.36,0.31,0.85,
4.915,0.54,-0.09,-0.87,0.35,0.36,0.83,
4.924,0.57,-0.17,-0.91,0.35,0.36,0.83,
4.925,0.57,-0.17,-0.91,0.34,0.41,0.81,
4.925,0.57,-0.17,-0.91,0.33,0.45,0.80,
4.925,0.57,-0.17,-0.91,0.33,0.49,0.78,
4.925,0.57,-0.17,-0.91,0.32,0.53,0.76,
4.925,0.55,-0.25,-0.75,0.32,0.53,0.76,
4.926,0.55,-0.25,-0.75,0.32,0.56,0.75,
4.926,0.55,-0.25,-0.75,0.31,0.59,0.74,
4.927,0.41,-0.22,-0.48,0.31,0.59,0.74,
4.929,0.41,-0.22,-0.48,0.31,0.62,0.73,
4.933,0.41,-0.22,-0.48,0.31,0.65,0.72,
4.934,0.06,-0.11,-0.16,0.31,0.65,0.72,
4.934,0.06,-0.11,-0.16,0.31,0.68,0.72,
4.937,0.06,-0.11,-0.16,0.32,0.69,0.72,
4.937,-0.44,0.23,0.07,0.32,0.69,0.72,
4.938,-0.44,0.23,0.07,0.32,0.69,0.73,
4.941,-0.44,0.23,0.07,0.32,0.67,0.74,
4.941,-0.90,0.52,0.31,0.32,0.67,0.74,
4.944,-0.90,0.52,0.31,0.32,0.64,0.76,
4.946,-0.90,0.52,0.31,0.31,0.58,0.78,
4.947,-1.39,0.64,0.26,0.31,0.58,0.78,
4.949,-1.39,0.64,0.26,0.30,0.52,0.80,
4.951,-1.39,0.64,0.26,0.30,0.47,0.83,
4.951,-1.98,0.76,0.27,0.30,0.47,0.83,
4.954,-1.98,0.76,0.27,0.29,0.42,0.87,
4.956,-1.98,0.76,0.27,0.29,0.38,0.91,
4.956,-2.59,0.85,0.45,0.29,0.38,0.91,
4.958,-2.59,0.85,0.45,0.29,0.35,0.97,
4.961,-2.59,0.85,0.45,0.28,0.32,1.03,
4.961,-2.79,0.94,0.39,0.28,0.32,1.03,
4.964,-2.79,0.94,0.39,0.28,0.30,1.08,
4.966,-2.79,0.94,0.39,0.28,0.27,1.13,
4.967,-2.58,0.71,0.35,0.28,0.27,1.13,
4.978,-2.58,0.71,0.35,0.28,0.24,1.18,
4.979,-2.58,0.71,0.35,0.28,0.21,1.21,
4.979,-1.78,0.40,0.22,0.28,0.21,1.21,
4.979,-1.78,0.40,0.22,0.27,0.18,1.24,
4.979,-1.78,0.40,0.22,0.27,0.18,1.25,
4.98,-0.92,0.18,-0.17,0.27,0.18,1.25,
4.98,-0.92,0.18,-0.17,0.27,0.21,1.26,
4.982,-0.92,0.18,-0.17,0.26,0.26,1.26,
4.982,-0.43,0.15,-0.47,0.26,0.26,1.26,
4.985,-0.43,0.15,-0.47,0.26,0.31,1.27,
4.986,-0.43,0.15,-0.47,0.25,0.35,1.26,
