
time,ax,ay,az,wx,wy,wz,
0.003,-0.44,-0.28,0.14,-0.00,0.00,-0.02,
0.004,-0.49,-0.16,0.09,-0.00,0.00,-0.02,
0.004,-0.49,-0.16,0.09,-0.01,-0.01,-0.02,
0.004,-0.49,-0.16,0.09,-0.01,-0.01,-0.01,
0.004,-0.43,0.03,0.00,-0.01,-0.01,-0.01,
0.004,-0.43,0.03,0.00,-0.01,-0.01,0.00,
0.004,-0.43,0.03,0.00,-0.01,-0.01,0.01,
0.004,-0.27,0.24,-0.05,-0.01,-0.01,0.01,
0.004,-0.27,0.24,-0.05,-0.01,-0.00,0.01,
0.005,-0.27,0.24,-0.05,-0.00,0.00,0.02,
0.005,-0.12,0.38,-0.02,-0.00,0.00,0.02,
0.005,-0.12,0.38,-0.02,-0.00,0.00,0.02,
0.005,-0.12,0.38,-0.02,0.00,0.01,0.02,
0.005,-0.12,0.38,-0.02,0.00,0.00,0.02,
0.007,-0.12,0.38,-0.02,0.01,0.00,0.02,
0.008,-0.11,0.12,0.09,0.01,0.00,0.02,
0.008,-0.19,-0.15,0.15,0.01,0.00,0.02,
0.009,-0.19,-0.15,0.15,0.00,-0.00,0.02,
0.011,-0.19,-0.15,0.15,0.00,-0.01,0.02,
0.012,-0.19,-0.34,0.19,0.00,-0.01,0.02,
0.014,-0.19,-0.34,0.19,0.00,-0.01,0.02,
0.018,-0.19,-0.34,0.19,-0.00,-0.02,0.02,
0.018,-0.11,-0.39,0.25,-0.00,-0.02,0.02,
0.019,-0.11,-0.39,0.25,0.00,-0.03,0.02,
0.021,-0.04,-0.30,0.25,0.00,-0.03,0.02,
0.022,-0.04,-0.30,0.25,0.00,-0.03,0.02,
0.023,-0.04,-0.30,0.25,0.00,-0.03,0.02,
0.026,-0.04,-0.30,0.25,0.01,-0.03,0.02,
0.026,-0.02,-0.13,0.10,0.01,-0.03,0.02,
0.029,-0.02,-0.13,0.10,0.01,-0.03,0.02,
0.031,-0.02,-0.13,0.10,0.00,-0.02,0.02,
0.032,-0.00,0.03,-0.01,0.00,-0.02,0.02,
0.034,-0.00,0.03,-0.01,0.00,-0.02,0.02,
0.036,-0.00,0.03,-0.01,0.00,-0.01,0.02,
0.036,-0.01,0.08,-0.04,0.00,-0.01,0.02,
0.04,-0.01,0.08,-0.04,-0.00,-0.01,0.02,
0.042,-0.01,0.08,-0.04,-0.00,-0.01,0.02,
0.042,-0.02,0.01,-0.03,-0.00,-0.01,0.02,
0.043,-0.02,0.01,-0.03,-0.00,-0.01,0.02,
0.047,-0.02,0.01,-0.03,-0.01,-0.00,0.02,
0.047,0.01,-0.10,0.03,-0.01,-0.00,0.02,
0.052,0.01,-0.10,0.03,-0.01,-0.01,0.02,
0.052,0.01,-0.10,0.03,-0.01,-0.01,0.02,
0.052,0.04,-0.16,0.11,-0.01,-0.01,0.02,
0.053,0.04,-0.16,0.11,-0.01,-0.01,0.02,
0.056,0.04,-0.16,0.11,-0.00,-0.02,0.01,
0.056,0.10,-0.20,0.11,-0.00,-0.02,0.01,
0.058,0.10,-0.20,0.11,-0.01,-0.02,0.01,
0.061,0.10,-0.20,0.11,-0.01,-0.02,0.00,
0.061,0.13,-0.16,0.09,-0.01,-0.02,0.00,
0.063,0.13,-0.16,0.09,-0.01,-0.02,0.00,
0.066,0.12,-0.09,0.08,-0.01,-0.02,0.00,
0.066,0.12,-0.09,0.08,-0.01,-0.02,0.00,
0.068,0.12,-0.09,0.08,-0.01,-0.02,-0.00,
0.071,0.12,-0.09,0.08,-0.01,-0.02,-0.00,
0.071,0.13,-0.05,0.07,-0.01,-0.02,-0.00,
0.073,0.13,-0.05,0.07,-0.01,-0.01,-0.01,
0.076,0.13,-0.05,0.07,-0.01,-0.01,-0.01,
0.076,0.15,-0.04,0.08,-0.01,-0.01,-0.01,
0.078,0.15,-0.04,0.08,-0.00,-0.01,-0.01,
0.081,0.15,-0.04,0.08,-0.00,-0.01,-0.01,
0.081,0.12,-0.04,0.07,-0.00,-0.01,-0.01,
0.083,0.12,-0.04,0.07,-0.00,-0.01,-0.01,
0.086,0.12,-0.04,0.07,-0.00,-0.01,-0.02,
0.086,0.07,-0.04,0.05,-0.00,-0.01,-0.02,
0.089,0.07,-0.04,0.05,-0.00,-0.01,-0.02,
0.092,0.07,-0.04,0.05,0.00,-0.01,-0.02,
0.092,0.01,-0.02,0.04,0.00,-0.01,-0.02,
0.094,0.01,-0.02,0.04,0.00,-0.01,-0.02,
0.095,0.01,-0.02,0.04,0.00,-0.01,-0.02,
0.096,-0.02,-0.04,0.10,0.00,-0.01,-0.02,
0.099,-0.02,-0.04,0.10,-0.00,-0.01,-0.02,
0.102,-0.02,-0.04,0.10,0.00,-0.00,-0.02,
0.103,-0.07,-0.07,0.13,0.00,-0.00,-0.02,
0.103,-0.07,-0.07,0.13,0.00,-0.00,-0.02,
0.105,-0.07,-0.07,0.13,0.01,-0.00,-0.02,
0.106,-0.06,-0.09,0.21,0.01,-0.00,-0.02,
0.108,-0.06,-0.09,0.21,0.01,0.00,-0.02,
0.111,-0.06,-0.09,0.21,0.02,-0.00,-0.02,
0.111,-0.04,-0.10,0.24,0.02,-0.00,-0.02,
0.113,-0.04,-0.10,0.24,0.02,-0.00,-0.02,
0.117,-0.03,-0.10,0.24,0.02,-0.00,-0.02,
0.117,-0.03,-0.10,0.24,0.02,0.00,-0.02,
0.118,-0.03,-0.10,0.24,0.02,-0.00,-0.02,
0.121,-0.03,-0.10,0.24,0.02,-0.00,-0.02,
0.121,-0.00,-0.08,0.22,0.02,-0.00,-0.02,
0.123,-0.00,-0.08,0.22,0.03,-0.00,-0.02,
0.125,-0.00,-0.08,0.22,0.03,-0.00,-0.02,
0.126,0.03,-0.11,0.18,0.03,-0.00,-0.02,
0.128,0.03,-0.11,0.18,0.03,0.00,-0.03,
0.13,0.03,-0.11,0.18,0.03,0.00,-0.03,
0.131,0.01,-0.14,0.20,0.03,0.00,-0.03,
0.133,0.01,-0.14,0.20,0.03,-0.00,-0.03,
0.135,0.01,-0.14,0.20,0.03,0.00,-0.03,
0.136,0.10,-0.09,0.09,0.03,0.00,-0.03,
0.138,0.10,-0.09,0.09,0.03,-0.00,-0.04,
0.14,0.10,-0.09,0.09,0.03,-0.00,-0.04,
0.141,0.39,0.08,0.08,0.03,-0.00,-0.04,
0.143,0.39,0.08,0.08,0.04,0.00,-0.05,
0.145,0.39,0.08,0.08,0.04,0.00,-0.06,
0.163,0.55,0.28,0.12,0.04,0.00,-0.06,
0.164,0.55,0.28,0.12,0.04,0.01,-0.07,
0.164,0.55,0.28,0.12,0.05,0.01,-0.07,
0.164,0.38,0.37,0.06,0.05,0.01,-0.07,
0.164,0.38,0.37,0.06,0.05,0.03,-0.07,
0.164,0.38,0.37,0.06,0.05,0.04,-0.07,
0.164,0.12,0.23,-0.10,0.05,0.04,-0.07,
0.165,0.12,0.23,-0.10,0.05,0.05,-0.07,
0.165,0.12,0.23,-0.10,0.05,0.05,-0.07,
0.165,-0.19,-0.04,-0.15,0.05,0.05,-0.07,
0.165,-0.19,-0.04,-0.15,0.05,0.05,-0.06,
0.165,-0.19,-0.04,-0.15,0.05,0.04,-0.05,
0.165,-0.30,-0.17,0.21,0.05,0.04,-0.05,
0.175,-0.30,-0.17,0.21,0.05,0.02,-0.06,
0.176,-0.30,-0.17,0.21,0.05,-0.01,-0.06,
0.176,-0.33,-0.01,0.25,0.05,-0.01,-0.06,
0.176,-0.33,-0.01,0.25,0.05,-0.01,-0.05,
0.176,-0.33,-0.01,0.25,0.04,0.01,-0.03,
0.176,-1.11,-0.03,-0.60,0.04,0.01,-0.03,
0.177,-1.11,-0.03,-0.60,0.03,0.04,-0.01,
0.18,-0.64,-0.26,-0.74,0.03,0.04,-0.01,
0.18,-0.64,-0.26,-0.74,0.01,0.04,0.00,
0.183,-0.64,-0.26,-0.74,-0.01,0.01,0.01,
0.185,-0.64,-0.26,-0.74,-0.02,-0.05,0.01,
0.185,0.01,-0.65,0.68,-0.02,-0.05,0.01,
0.187,0.01,-0.65,0.68,-0.02,-0.11,0.00,
0.19,0.01,-0.65,0.68,-0.00,-0.14,-0.01,
0.19,-0.04,-0.74,1.41,-0.00,-0.14,-0.01,
0.192,-0.04,-0.74,1.41,0.02,-0.15,-0.02,
0.195,-0.04,-0.74,1.41,0.03,-0.14,-0.01,
0.195,-0.49,-0.42,0.66,0.03,-0.14,-0.01,
0.197,-0.49,-0.42,0.66,0.03,-0.12,-0.01,
0.2,-0.49,-0.42,0.66,0.03,-0.10,0.00,
0.2,-0.26,0.09,-0.06,0.03,-0.10,0.00,
0.202,-0.26,0.09,-0.06,0.02,-0.10,0.02,
0.205,-0.26,0.09,-0.06,0.01,-0.11,0.02,
0.205,0.32,0.22,-0.30,0.01,-0.11,0.02,
0.207,0.32,0.22,-0.30,0.01,-0.09,0.00,
0.21,0.32,0.22,-0.30,0.01,-0.09,-0.02,
0.21,0.87,0.35,0.05,0.01,-0.09,-0.02,
0.213,0.87,0.35,0.05,0.02,-0.10,-0.03,
0.215,0.87,0.35,0.05,0.03,-0.11,-0.03,
0.216,0.55,0.44,0.37,0.03,-0.11,-0.03,
0.217,0.55,0.44,0.37,0.04,-0.10,-0.04,
0.22,0.55,0.44,0.37,0.05,-0.09,-0.05,
0.22,0.04,0.50,0.21,0.05,-0.09,-0.05,
0.222,0.04,0.50,0.21,0.05,-0.08,-0.04,
0.225,-0.49,0.41,-0.14,0.05,-0.08,-0.04,
0.225,-0.49,0.41,-0.14,0.05,-0.08,-0.03,
0.227,-0.49,0.41,-0.14,0.05,-0.08,-0.02,
0.23,-0.49,0.41,-0.14,0.04,-0.08,-0.01,
0.23,-0.54,0.01,-0.36,0.04,-0.08,-0.01,
0.236,-0.54,0.01,-0.36,0.03,-0.09,-0.01,
0.236,-0.54,0.01,-0.36,0.03,-0.10,-0.00,
0.237,-0.49,-0.22,-0.09,0.03,-0.10,-0.00,
0.238,-0.49,-0.22,-0.09,0.02,-0.12,0.00,
0.241,-0.49,-0.22,-0.09,0.03,-0.13,0.00,
0.241,-0.17,-0.25,0.26,0.03,-0.13,0.00,
0.242,-0.17,-0.25,0.26,0.03,-0.15,0.00,
0.244,-0.17,-0.25,0.26,0.03,-0.17,0.01,
0.245,-0.08,-0.08,0.17,0.03,-0.17,0.01,
0.247,-0.08,-0.08,0.17,0.03,-0.17,0.01,
0.25,-0.08,-0.08,0.17,0.03,-0.17,0.01,
0.251,-0.02,0.16,0.11,0.03,-0.17,0.01,
0.252,-0.02,0.16,0.11,0.04,-0.14,0.01,
0.254,-0.02,0.16,0.11,0.04,-0.10,0.01,
0.255,-0.02,-0.02,-0.20,0.04,-0.10,0.01,
0.257,-0.02,-0.02,-0.20,0.04,-0.06,0.01,
0.26,-0.02,-0.02,-0.20,0.03,-0.04,0.02,
0.261,-0.09,-0.17,-0.35,0.03,-0.04,0.02,
0.262,-0.09,-0.17,-0.35,0.03,-0.02,0.02,
0.264,-0.09,-0.17,-0.35,0.03,-0.03,0.02,
0.264,-0.17,-0.06,0.34,0.03,-0.03,0.02,
0.267,-0.17,-0.06,0.34,0.04,-0.07,0.04,
0.269,-0.17,-0.06,0.34,0.04,-0.11,0.06,
0.269,-0.67,-0.16,0.46,0.04,-0.11,0.06,
0.272,-0.67,-0.16,0.46,0.03,-0.12,0.05,
0.274,-0.67,-0.16,0.46,0.03,-0.12,0.03,
0.274,-0.22,-0.01,0.09,0.03,-0.12,0.03,
0.277,-0.22,-0.01,0.09,0.03,-0.13,0.04,
0.28,-0.22,-0.01,0.09,0.03,-0.15,0.07,
0.28,-0.63,-0.09,0.07,0.03,-0.15,0.07,
0.281,-0.63,-0.09,0.07,0.02,-0.14,0.07,
0.284,-0.63,-0.09,0.07,0.02,-0.14,0.07,
0.285,-0.01,-0.05,-0.09,0.02,-0.14,0.07,
0.287,-0.01,-0.05,-0.09,0.02,-0.16,0.07,
0.293,-0.01,-0.05,-0.09,0.02,-0.18,0.07,
0.293,0.37,-0.29,0.47,0.02,-0.18,0.07,
0.293,0.37,-0.29,0.47,0.03,-0.19,0.06,
0.294,0.37,-0.29,0.47,0.03,-0.19,0.05,
0.294,0.33,-0.40,0.53,0.03,-0.19,0.05,
0.296,0.33,-0.40,0.53,0.04,-0.19,0.04,
0.299,0.33,-0.40,0.53,0.04,-0.17,0.05,
0.299,-0.25,-0.35,0.42,0.04,-0.17,0.05,
0.302,-0.25,-0.35,0.42,0.05,-0.16,0.06,
0.304,-0.25,-0.35,0.42,0.04,-0.15,0.06,
0.304,-0.40,-0.33,-0.08,0.04,-0.15,0.06,
0.306,-0.40,-0.33,-0.08,0.04,-0.14,0.07,
0.309,-0.40,-0.33,-0.08,0.03,-0.15,0.08,
0.309,-0.43,-0.23,-0.05,0.03,-0.15,0.08,
0.333,-0.43,-0.23,-0.05,0.03,-0.17,0.08,
0.334,-0.43,-0.23,-0.05,0.02,-0.19,0.08,
0.334,-0.23,-0.23,-0.03,0.02,-0.19,0.08,
0.335,-0.23,-0.23,-0.03,0.02,-0.21,0.08,
0.335,-0.23,-0.23,-0.03,0.01,-0.22,0.08,
0.335,0.04,-0.31,0.00,0.01,-0.22,0.08,
0.337,0.04,-0.31,0.00,0.01,-0.21,0.07,
0.338,0.04,-0.31,0.00,0.01,-0.21,0.06,
0.339,0.35,-0.21,0.11,0.01,-0.21,0.06,
0.339,0.35,-0.21,0.11,0.01,-0.18,0.06,
0.34,0.35,-0.21,0.11,0.02,-0.15,0.05,
0.34,0.48,-0.22,0.03,0.02,-0.15,0.05,
0.34,0.48,-0.22,0.03,0.02,-0.11,0.05,
0.341,0.48,-0.22,0.03,0.03,-0.08,0.05,
0.341,0.42,-0.22,0.03,0.03,-0.08,0.05,
0.341,0.42,-0.22,0.03,0.03,-0.06,0.04,
0.341,0.42,-0.22,0.03,0.03,-0.04,0.04,
0.342,0.29,-0.16,-0.01,0.03,-0.04,0.04,
0.342,0.29,-0.16,-0.01,0.03,-0.03,0.03,
0.343,0.29,-0.16,-0.01,0.03,-0.02,0.03,
0.344,0.17,-0.25,-0.19,0.03,-0.02,0.03,
0.346,0.17,-0.25,-0.19,0.03,-0.01,0.03,
0.348,0.17,-0.25,-0.19,0.02,0.00,0.02,
0.349,0.12,-0.40,-0.19,0.02,0.00,0.02,
0.353,0.12,-0.40,-0.19,0.01,0.01,0.03,
0.353,0.12,-0.40,-0.19,0.01,0.02,0.03,
0.354,0.05,-0.59,-0.13,0.01,0.02,0.03,
0.357,0.05,-0.59,-0.13,0.01,0.04,0.03,
0.359,0.05,-0.59,-0.13,0.00,0.05,0.04,
0.359,-0.13,-0.75,-0.09,0.00,0.05,0.04,
0.361,-0.13,-0.75,-0.09,-0.00,0.06,0.04,
0.363,-0.13,-0.75,-0.09,-0.01,0.06,0.05,
0.364,-0.37,-0.81,-0.11,-0.01,0.06,0.05,
0.366,-0.37,-0.81,-0.11,-0.02,0.06,0.05,
0.368,-0.37,-0.81,-0.11,-0.02,0.05,0.05,
0.369,-0.48,-0.70,-0.04,-0.02,0.05,0.05,
0.371,-0.48,-0.70,-0.04,-0.03,0.04,0.05,
0.373,-0.48,-0.70,-0.04,-0.03,0.02,0.06,
0.373,-0.48,-0.37,0.07,-0.03,0.02,0.06,
0.375,-0.48,-0.37,0.07,-0.03,0.01,0.06,
0.378,-0.48,-0.37,0.07,-0.04,0.00,0.07,
0.378,-0.36,0.08,0.12,-0.04,0.00,0.07,
0.382,-0.36,0.08,0.12,-0.03,-0.01,0.07,
0.386,-0.36,0.08,0.12,-0.03,-0.01,0.08,
0.386,-0.18,0.49,0.09,-0.03,-0.01,0.08,
0.386,-0.18,0.49,0.09,-0.03,-0.01,0.08,
0.388,-0.18,0.49,0.09,-0.02,-0.01,0.08,
0.388,-0.06,0.74,0.05,-0.02,-0.01,0.08,
0.39,-0.06,0.74,0.05,-0.02,-0.01,0.08,
0.393,-0.06,0.74,0.05,-0.01,-0.02,0.08,
0.393,-0.00,0.81,0.08,-0.01,-0.02,0.08,
0.396,-0.00,0.81,0.08,-0.01,-0.03,0.08,
0.399,-0.00,0.81,0.08,-0.00,-0.04,0.08,
0.399,0.09,0.71,0.12,-0.00,-0.04,0.08,
0.401,0.09,0.71,0.12,-0.00,-0.05,0.08,
0.403,0.09,0.71,0.12,0.00,-0.06,0.07,
0.403,0.28,0.52,0.16,0.00,-0.06,0.07,
0.405,0.28,0.52,0.16,0.01,-0.06,0.06,
0.408,0.28,0.52,0.16,0.01,-0.06,0.05,
0.408,0.48,0.28,0.14,0.01,-0.06,0.05,
0.41,0.48,0.28,0.14,0.01,-0.06,0.05,
0.413,0.48,0.28,0.14,0.01,-0.05,0.04,
0.413,0.57,0.09,0.12,0.01,-0.05,0.04,
0.415,0.57,0.09,0.12,0.02,-0.04,0.03,
0.418,0.57,0.09,0.12,0.03,-0.02,0.02,
0.418,0.37,-0.03,0.16,0.03,-0.02,0.02,
0.42,0.37,-0.03,0.16,0.03,-0.01,0.02,
0.423,0.37,-0.03,0.16,0.03,0.00,0.02,
0.423,-0.04,-0.17,0.12,0.03,0.00,0.02,
0.425,-0.04,-0.17,0.12,0.04,0.02,0.03,
0.431,-0.27,-0.33,0.03,0.04,0.02,0.03,
0.431,-0.27,-0.33,0.03,0.03,0.03,0.03,
0.431,-0.27,-0.33,0.03,0.03,0.03,0.04,
0.433,-0.27,-0.33,0.03,0.03,0.03,0.04,
0.433,-0.15,-0.42,-0.04,0.03,0.03,0.04,
0.437,-0.15,-0.42,-0.04,0.02,0.04,0.04,
0.438,-0.15,-0.42,-0.04,0.02,0.04,0.04,
0.438,0.16,-0.41,0.07,0.02,0.04,0.04,
0.441,0.16,-0.41,0.07,0.02,0.04,0.04,
0.443,0.43,-0.24,0.22,0.02,0.04,0.04,
0.443,0.43,-0.24,0.22,0.02,0.05,0.03,
0.445,0.43,-0.24,0.22,0.03,0.05,0.02,
0.448,0.43,-0.24,0.22,0.03,0.06,0.01,
0.448,0.47,-0.08,0.21,0.03,0.06,0.01,
0.451,0.47,-0.08,0.21,0.03,0.07,0.00,
0.453,0.47,-0.08,0.21,0.04,0.08,0.00,
0.454,0.16,0.04,0.14,0.04,0.08,0.00,
0.455,0.16,0.04,0.14,0.04,0.08,0.00,
0.458,-0.26,0.07,0.18,0.04,0.08,0.00,
0.458,-0.26,0.07,0.18,0.04,0.08,0.01,
0.46,-0.26,0.07,0.18,0.04,0.07,0.01,
0.462,-0.26,0.07,0.18,0.04,0.04,0.01,
0.463,-0.57,0.05,0.17,0.04,0.04,0.01,
0.465,-0.57,0.05,0.17,0.04,0.00,0.02,
0.469,-0.66,0.04,0.13,0.04,0.00,0.02,
0.469,-0.66,0.04,0.13,0.03,-0.04,0.03,
0.47,-0.66,0.04,0.13,0.03,-0.08,0.03,
0.473,-0.51,0.07,0.09,0.03,-0.08,0.03,
0.473,-0.51,0.07,0.09,0.02,-0.12,0.04,
0.475,-0.51,0.07,0.09,0.02,-0.15,0.04,
0.486,-0.05,0.10,-0.01,0.02,-0.15,0.04,
0.487,-0.05,0.10,-0.01,0.01,-0.17,0.04,
0.487,-0.05,0.10,-0.01,0.01,-0.18,0.03,
0.487,0.30,-0.00,-0.24,0.01,-0.18,0.03,
0.487,0.30,-0.00,-0.24,0.01,-0.17,0.03,
0.488,0.30,-0.00,-0.24,0.01,-0.14,0.02,
0.489,0.30,-0.00,-0.24,0.01,-0.09,0.02,
0.489,0.44,-0.16,-0.40,0.01,-0.09,0.02,
0.491,0.44,-0.16,-0.40,0.01,-0.04,0.01,
0.493,0.44,-0.16,-0.40,0.01,0.02,0.01,
0.493,0.59,-0.32,-0.37,0.01,0.02,0.01,
0.495,0.59,-0.32,-0.37,0.02,0.06,0.00,
0.498,0.59,-0.32,-0.37,0.02,0.09,-0.01,
0.498,0.85,-0.42,-0.37,0.02,0.09,-0.01,
0.501,0.85,-0.42,-0.37,0.01,0.11,-0.01,
0.507,0.85,-0.42,-0.37,0.01,0.12,0.02,
0.507,0.85,-0.42,-0.37,0.01,0.15,0.03,
0.507,-0.25,-1.29,-0.32,0.01,0.15,0.03,
0.508,-0.25,-1.29,-0.32,0.01,0.18,0.03,
0.509,0.07,-1.24,0.08,0.01,0.18,0.03,
0.511,0.07,-1.24,0.08,0.01,0.17,0.01,
0.515,0.35,-0.74,0.35,0.01,0.17,0.01,
0.515,0.35,-0.74,0.35,0.01,0.15,-0.01,
0.515,0.35,-0.74,0.35,0.00,0.11,-0.02,
0.52,0.35,-0.74,0.35,-0.00,0.07,-0.03,
0.52,0.28,-0.15,0.60,-0.00,0.07,-0.03,
0.521,0.28,-0.15,0.60,0.01,0.04,-0.04,
0.523,0.28,-0.15,0.60,0.01,0.03,-0.04,
0.523,-0.09,0.25,0.68,0.01,0.03,-0.04,
0.524,-0.09,0.25,0.68,0.02,0.04,-0.03,
0.528,-0.09,0.25,0.68,0.04,0.04,-0.02,
0.528,-0.35,0.47,0.72,0.04,0.04,-0.02,
0.53,-0.35,0.47,0.72,0.04,0.05,-0.01,
0.532,-0.35,0.47,0.72,0.05,0.04,-0.01,
0.532,-0.36,0.60,0.68,0.05,0.04,-0.01,
0.536,-0.36,0.60,0.68,0.05,0.01,-0.01,
0.538,0.05,0.77,0.29,0.05,0.01,-0.01,
0.539,0.05,0.77,0.29,0.05,-0.04,-0.03,
0.552,0.05,0.77,0.29,0.04,-0.09,-0.04,
0.552,-0.04,0.70,0.11,0.04,-0.09,-0.04,
0.552,-0.04,0.70,0.11,0.03,-0.15,-0.05,
0.553,-0.04,0.70,0.11,0.03,-0.19,-0.04,
0.553,-0.04,0.70,0.11,0.03,-0.19,-0.03,
0.553,-0.39,0.29,0.19,0.03,-0.19,-0.03,
0.554,-0.39,0.29,0.19,0.04,-0.16,-0.02,
0.554,-0.13,-0.08,-0.09,0.04,-0.16,-0.02,
0.554,-0.13,-0.08,-0.09,0.05,-0.11,-0.02,
0.554,-0.13,-0.08,-0.09,0.05,-0.06,-0.01,
0.562,-0.13,-0.08,-0.09,0.05,-0.03,-0.02,
0.563,0.44,-0.26,-0.30,0.05,-0.03,-0.02,
0.563,0.44,-0.26,-0.30,0.05,0.01,-0.03,
0.564,1.02,-0.33,-0.50,0.05,0.01,-0.03,
0.564,1.02,-0.33,-0.50,0.05,0.05,-0.04,
0.564,1.02,-0.33,-0.50,0.05,0.07,-0.06,
0.568,1.14,-0.33,-0.35,0.05,0.07,-0.06,
0.568,1.14,-0.33,-0.35,0.04,0.10,-0.08,
0.57,1.14,-0.33,-0.35,0.05,0.12,-0.09,
0.573,0.76,-0.35,-0.12,0.05,0.12,-0.09,
0.573,0.76,-0.35,-0.12,0.05,0.14,-0.10,
0.574,0.76,-0.35,-0.12,0.05,0.16,-0.11,
0.577,0.76,-0.35,-0.12,0.05,0.20,-0.11,
0.578,0.22,-0.38,-0.08,0.05,0.20,-0.11,
0.58,0.22,-0.38,-0.08,0.06,0.24,-0.11,
0.581,0.22,-0.38,-0.08,0.06,0.27,-0.10,
0.582,-0.27,-0.38,-0.13,0.06,0.27,-0.10,
0.585,-0.27,-0.38,-0.13,0.06,0.29,-0.09,
0.587,-0.52,-0.44,0.03,0.06,0.29,-0.09,
0.587,-0.52,-0.44,0.03,0.07,0.31,-0.08,
0.589,-0.52,-0.44,0.03,0.07,0.32,-0.07,
0.592,-0.53,-0.45,0.32,0.07,0.32,-0.07,
0.593,-0.53,-0.45,0.32,0.07,0.33,-0.06,
0.594,-0.53,-0.45,0.32,0.08,0.32,-0.06,
0.596,-0.53,-0.45,0.32,0.08,0.31,-0.05,
0.597,-0.43,-0.39,0.46,0.08,0.31,-0.05,
0.599,-0.43,-0.39,0.46,0.07,0.29,-0.05,
0.603,-0.43,-0.39,0.46,0.07,0.28,-0.06,
0.604,-0.15,-0.24,0.30,0.07,0.28,-0.06,
0.604,-0.15,-0.24,0.30,0.07,0.26,-0.06,
0.607,-0.15,-0.24,0.30,0.07,0.23,-0.07,
0.607,0.18,0.10,0.06,0.07,0.23,-0.07,
0.609,0.18,0.10,0.06,0.06,0.20,-0.08,
0.612,0.55,0.72,-0.18,0.06,0.20,-0.08,
0.613,0.55,0.72,-0.18,0.05,0.15,-0.10,
0.615,0.55,0.72,-0.18,0.04,0.09,-0.13,
0.616,0.55,0.72,-0.18,0.03,0.02,-0.16,
0.616,0.63,1.48,-0.45,0.03,0.02,-0.16,
0.619,0.63,1.48,-0.45,0.00,-0.05,-0.17,
0.622,0.63,1.48,-0.45,0.00,-0.10,-0.18,
0.623,-0.03,1.57,-0.40,0.00,-0.10,-0.18,
0.624,-0.03,1.57,-0.40,-0.01,-0.11,-0.15,
0.626,-0.03,1.57,-0.40,-0.00,-0.09,-0.12,
0.627,-1.06,0.56,0.03,-0.00,-0.09,-0.12,
0.629,-1.06,0.56,0.03,0.03,-0.03,-0.09,
0.632,-1.06,0.56,0.03,0.05,0.06,-0.06,
0.632,-1.27,-0.39,0.66,0.05,0.06,-0.06,
0.634,-1.27,-0.39,0.66,0.08,0.11,-0.03,
0.639,-1.27,-0.39,0.66,0.08,0.11,-0.01,
0.641,-0.70,-1.00,0.39,0.08,0.11,-0.01,
0.641,-0.70,-1.00,0.39,0.06,0.08,-0.01,
0.645,-0.70,-1.00,0.39,0.05,0.03,-0.02,
0.659,-0.22,-1.08,-0.03,0.05,0.03,-0.02,
0.659,-0.22,-1.08,-0.03,0.03,-0.01,-0.03,
0.659,-0.22,-1.08,-0.03,0.01,-0.03,-0.03,
0.659,-0.17,-0.75,-0.04,0.01,-0.03,-0.03,
0.66,-0.17,-0.75,-0.04,0.00,-0.05,-0.03,
0.66,-0.17,-0.75,-0.04,-0.00,-0.06,-0.03,
0.66,-0.07,-0.21,-0.11,-0.00,-0.06,-0.03,
0.66,-0.07,-0.21,-0.11,0.00,-0.07,-0.03,
0.66,-0.07,-0.21,-0.11,0.00,-0.09,-0.02,
0.66,-0.22,0.22,0.09,0.00,-0.09,-0.02,
0.661,-0.22,0.22,0.09,-0.01,-0.09,-0.01,
0.667,-0.22,0.22,0.09,-0.00,-0.08,-0.01,
0.667,-0.14,0.33,-0.09,-0.00,-0.08,-0.01,
0.668,-0.14,0.33,-0.09,0.00,-0.06,-0.01,
0.668,-0.14,0.33,-0.09,0.01,-0.07,-0.02,
0.668,0.29,-0.43,0.33,0.01,-0.07,-0.02,
0.67,0.29,-0.43,0.33,0.00,-0.10,-0.03,
0.671,0.17,-1.20,0.43,0.00,-0.10,-0.03,
0.674,0.17,-1.20,0.43,-0.00,-0.14,-0.04,
0.674,0.17,-1.20,0.43,-0.01,-0.16,-0.05,
0.676,0.22,-1.35,0.16,-0.01,-0.16,-0.05,
0.676,0.22,-1.35,0.16,-0.01,-0.17,-0.07,
0.678,0.22,-1.35,0.16,-0.02,-0.16,-0.07,
0.681,0.22,-1.35,0.16,-0.02,-0.14,-0.08,
0.681,0.11,-1.08,-0.02,-0.02,-0.14,-0.08,
0.683,0.11,-1.08,-0.02,-0.01,-0.10,-0.08,
0.687,0.11,-1.08,-0.02,-0.01,-0.06,-0.08,
0.687,0.17,-0.51,-0.26,-0.01,-0.06,-0.08,
0.689,0.17,-0.51,-0.26,-0.01,-0.01,-0.08,
0.691,0.25,0.10,-0.37,-0.01,-0.01,-0.08,
0.691,0.25,0.10,-0.37,0.00,0.04,-0.07,
0.693,0.25,0.10,-0.37,0.01,0.09,-0.07,
0.696,0.25,0.10,-0.37,0.02,0.13,-0.07,
0.696,0.37,0.49,-0.21,0.02,0.13,-0.07,
0.698,0.37,0.49,-0.21,0.03,0.16,-0.07,
0.701,0.37,0.49,-0.21,0.04,0.19,-0.07,
0.701,0.37,0.57,0.04,0.04,0.19,-0.07,
0.705,0.37,0.57,0.04,0.04,0.19,-0.07,
0.705,0.37,0.57,0.04,0.05,0.19,-0.07,
0.706,0.12,0.49,0.22,0.05,0.19,-0.07,
0.709,0.12,0.49,0.22,0.05,0.18,-0.07,
0.711,0.12,0.49,0.22,0.05,0.16,-0.07,
0.711,-0.04,0.27,0.19,0.05,0.16,-0.07,
0.714,-0.04,0.27,0.19,0.05,0.15,-0.07,
0.715,-0.04,0.27,0.19,0.05,0.13,-0.07,
0.715,-0.17,0.12,0.18,0.05,0.13,-0.07,
0.718,-0.17,0.12,0.18,0.05,0.12,-0.08,
0.722,-0.17,0.12,0.18,0.05,0.12,-0.07,
0.723,-0.16,0.01,0.12,0.05,0.12,-0.07,
0.725,-0.21,-0.01,-0.04,0.05,0.12,-0.07,
0.727,-0.21,-0.01,-0.04,0.05,0.12,-0.07,
0.728,-0.21,-0.01,-0.04,0.04,0.11,-0.06,
0.728,-0.21,-0.01,-0.04,0.04,0.11,-0.06,
0.73,-0.21,-0.01,-0.04,0.03,0.11,-0.06,
0.731,-0.02,0.07,0.02,0.03,0.11,-0.06,
0.733,-0.02,0.07,0.02,0.03,0.11,-0.06,
0.741,-0.02,0.07,0.02,0.04,0.11,-0.05,
0.741,0.06,0.30,0.24,0.04,0.11,-0.05,
0.742,0.06,0.30,0.24,0.04,0.10,-0.05,
0.742,0.06,0.30,0.24,0.04,0.08,-0.05,
0.742,0.04,0.58,0.31,0.04,0.08,-0.05,
0.743,0.04,0.58,0.31,0.04,0.07,-0.05,
0.745,0.04,0.58,0.31,0.05,0.05,-0.04,
0.746,-0.13,0.74,0.40,0.05,0.05,-0.04,
0.758,-0.13,0.74,0.40,0.05,-0.01,-0.03,
0.758,-0.56,1.52,0.73,0.05,-0.01,-0.03,
0.759,-0.56,1.52,0.73,0.06,-0.08,0.00,
0.759,-0.56,1.52,0.73,0.06,-0.08,0.00,
0.759,-0.56,1.52,0.73,0.06,-0.02,-0.03,
0.759,0.05,-0.39,-0.43,0.06,-0.02,-0.03,
0.759,0.05,-0.39,-0.43,0.04,-0.03,-0.05,
0.766,0.05,-0.39,-0.43,0.03,-0.13,-0.04,
0.767,0.09,-0.77,0.50,0.03,-0.13,-0.04,
0.767,0.09,-0.77,0.50,0.02,-0.22,-0.03,
0.767,0.09,-0.77,0.50,0.00,-0.28,-0.04,
0.768,-0.30,-0.60,-0.03,0.00,-0.28,-0.04,
0.768,-0.30,-0.60,-0.03,-0.01,-0.32,-0.04,
0.774,-0.94,-0.31,0.59,-0.01,-0.32,-0.04,
0.775,-0.94,-0.31,0.59,-0.01,-0.40,-0.03,
0.775,-0.94,-0.31,0.59,-0.02,-0.51,-0.00,
0.776,-0.94,-0.31,0.59,-0.05,-0.60,0.03,
0.776,-1.50,0.00,-0.04,-0.05,-0.60,0.03,
0.778,-1.50,0.00,-0.04,-0.08,-0.63,0.05,
0.78,-1.50,0.00,-0.04,-0.10,-0.61,0.03,
0.781,-0.48,-0.30,-1.16,-0.10,-0.61,0.03,
0.782,-0.48,-0.30,-1.16,-0.11,-0.58,0.03,
0.786,-0.48,-0.30,-1.16,-0.11,-0.56,0.04,
0.786,-0.49,0.11,-0.08,-0.11,-0.56,0.04,
0.788,-0.49,0.11,-0.08,-0.10,-0.59,0.05,
0.79,-0.14,0.12,0.83,-0.10,-0.59,0.05,
0.79,-0.14,0.12,0.83,-0.09,-0.64,0.06,
0.792,-0.14,0.12,0.83,-0.08,-0.68,0.06,
0.795,-0.14,0.12,0.83,-0.07,-0.72,0.06,
0.795,-0.07,-0.15,0.81,-0.07,-0.72,0.06,
0.797,-0.07,-0.15,0.81,-0.07,-0.76,0.05,
0.8,-0.45,-0.29,0.99,-0.07,-0.76,0.05,
0.8,-0.45,-0.29,0.99,-0.06,-0.82,0.05,
0.803,-0.45,-0.29,0.99,-0.06,-0.87,0.04,
0.806,-0.59,-0.02,0.73,-0.06,-0.87,0.04,
0.806,-0.59,-0.02,0.73,-0.05,-0.91,0.04,
0.82,-0.59,-0.02,0.73,-0.05,-0.94,0.04,
0.82,-0.59,-0.02,0.73,-0.06,-0.96,0.05,
0.82,-0.66,0.27,0.20,-0.06,-0.96,0.05,
0.821,-0.66,0.27,0.20,-0.06,-0.98,0.06,
0.821,-0.66,0.27,0.20,-0.06,-0.99,0.07,
0.821,-0.34,0.40,-0.18,-0.06,-0.99,0.07,
0.822,-0.34,0.40,-0.18,-0.06,-0.98,0.07,
0.822,0.34,0.66,-0.23,-0.06,-0.98,0.07,
0.822,0.34,0.66,-0.23,-0.06,-0.96,0.07,
0.825,0.34,0.66,-0.23,-0.06,-0.92,0.05,
0.825,0.34,0.66,-0.23,-0.05,-0.88,0.04,
0.826,1.02,0.74,-0.21,-0.05,-0.88,0.04,
0.827,1.02,0.74,-0.21,-0.03,-0.82,0.02,
0.83,1.02,0.74,-0.21,-0.01,-0.76,-0.01,
0.83,1.24,0.62,-0.06,-0.01,-0.76,-0.01,
0.833,1.24,0.62,-0.06,0.00,-0.69,-0.02,
0.834,1.24,0.62,-0.06,0.02,-0.61,-0.04,
0.835,1.38,0.41,0.05,0.02,-0.61,-0.04,
0.838,1.38,0.41,0.05,0.04,-0.53,-0.07,
0.84,1.38,0.41,0.05,0.06,-0.44,-0.09,
0.84,1.20,0.07,0.17,0.06,-0.44,-0.09,
0.842,1.20,0.07,0.17,0.08,-0.35,-0.09,
0.845,1.20,0.07,0.17,0.10,-0.29,-0.09,
0.845,0.48,0.04,0.07,0.10,-0.29,-0.09,
0.847,0.48,0.04,0.07,0.10,-0.24,-0.08,
0.849,0.48,0.04,0.07,0.10,-0.23,-0.07,
0.85,-0.38,0.34,-0.07,0.10,-0.23,-0.07,
0.859,-0.38,0.34,-0.07,0.10,-0.23,-0.06,
0.862,-0.38,0.34,-0.07,0.12,-0.23,-0.07,
0.863,-0.64,0.55,0.25,0.12,-0.23,-0.07,
0.863,-0.64,0.55,0.25,0.13,-0.22,-0.06,
0.863,-0.64,0.55,0.25,0.14,-0.22,-0.05,
0.864,-1.30,0.41,0.84,0.14,-0.22,-0.05,
0.864,-1.30,0.41,0.84,0.16,-0.21,-0.02,
0.865,-1.30,0.41,0.84,0.17,-0.21,0.02,
0.865,-1.84,0.44,0.87,0.17,-0.21,0.02,
0.867,-1.84,0.44,0.87,0.20,-0.20,0.05,
0.878,-2.06,0.67,0.89,0.20,-0.20,0.05,
0.878,-2.06,0.67,0.89,0.22,-0.19,0.09,
0.878,-2.06,0.67,0.89,0.22,-0.21,0.12,
0.879,-2.21,0.87,0.98,0.22,-0.21,0.12,
0.882,-2.21,0.87,0.98,0.25,-0.28,0.15,
0.882,-2.21,0.87,0.98,0.24,-0.34,0.19,
0.882,-2.21,0.87,0.98,0.29,-0.30,0.20,
0.882,-1.70,1.18,1.29,0.29,-0.30,0.20,
0.883,-1.70,1.18,1.29,0.33,-0.17,0.22,
0.884,-3.83,2.31,1.21,0.33,-0.17,0.22,
0.884,-3.83,2.31,1.21,0.41,0.09,0.30,
0.887,-3.83,2.31,1.21,0.48,0.41,0.44,
0.891,-3.83,2.31,1.21,0.55,0.69,0.64,
0.891,-6.61,2.94,-1.03,0.55,0.69,0.64,
0.892,-6.61,2.94,-1.03,0.37,0.19,0.80,
0.895,-6.61,2.94,-1.03,0.10,-0.66,0.79,
0.895,-0.78,1.44,-3.73,0.10,-0.66,0.79,
0.897,-0.78,1.44,-3.73,-0.00,-1.07,0.67,
0.9,-0.78,1.44,-3.73,0.01,-1.18,0.55,
0.9,0.45,0.53,1.26,0.01,-1.18,0.55,
0.902,0.45,0.53,1.26,0.08,-1.09,0.50,
0.905,0.45,0.53,1.26,0.19,-0.79,0.57,
0.906,-3.09,-0.12,1.67,0.19,-0.79,0.57,
0.907,-3.09,-0.12,1.67,0.30,-0.41,0.74,
0.909,-3.09,-0.12,1.67,0.38,-0.09,0.94,
0.909,-4.87,-0.40,0.30,0.38,-0.09,0.94,
0.912,-4.87,-0.40,0.30,0.41,0.14,1.13,
0.914,-4.87,-0.40,0.30,0.41,0.30,1.29,
0.914,-4.49,-0.96,-0.58,0.41,0.30,1.29,
0.916,-4.49,-0.96,-0.58,0.40,0.41,1.40,
0.919,-4.49,-0.96,-0.58,0.38,0.47,1.47,
0.919,-2.64,-1.66,-0.47,0.38,0.47,1.47,
0.921,-2.64,-1.66,-0.47,0.35,0.46,1.47,
0.924,2.13,-2.53,-0.09,0.35,0.46,1.47,
0.924,2.13,-2.53,-0.09,0.32,0.39,1.39,
0.926,2.13,-2.53,-0.09,0.28,0.24,1.27,
0.929,2.13,-2.53,-0.09,0.24,0.04,1.11,
0.929,6.18,-2.67,0.04,0.24,0.04,1.11,
0.931,6.18,-2.67,0.04,0.21,-0.14,0.94,
0.934,6.18,-2.67,0.04,0.18,-0.26,0.79,
0.934,7.63,-2.32,-0.75,0.18,-0.26,0.79,
0.937,7.63,-2.32,-0.75,0.16,-0.30,0.66,
0.939,7.99,-1.85,-0.91,0.16,-0.30,0.66,
0.94,7.99,-1.85,-0.91,0.14,-0.27,0.52,
0.941,7.99,-1.85,-0.91,0.14,-0.20,0.38,
0.944,7.99,-1.85,-0.91,0.16,-0.10,0.23,
0.944,8.54,-1.65,-0.37,0.16,-0.10,0.23,
0.946,8.54,-1.65,-0.37,0.18,0.02,0.07,
0.951,8.09,-1.62,-0.04,0.18,0.02,0.07,
0.952,8.09,-1.62,-0.04,0.20,0.13,-0.10,
0.952,8.09,-1.62,-0.04,0.22,0.24,-0.22,
0.96,8.09,-1.62,-0.04,0.24,0.37,-0.29,
0.961,4.65,-1.26,-0.33,0.24,0.37,-0.29,
0.962,4.65,-1.26,-0.33,0.27,0.50,-0.34,
0.962,4.65,-1.26,-0.33,0.29,0.61,-0.35,
0.962,1.65,-0.86,-0.13,0.29,0.61,-0.35,
0.963,1.65,-0.86,-0.13,0.31,0.69,-0.36,
0.964,0.16,-0.97,0.09,0.31,0.69,-0.36,
0.964,0.16,-0.97,0.09,0.32,0.75,-0.37,
0.967,0.16,-0.97,0.09,0.32,0.78,-0.37,
0.968,-0.90,-1.26,0.25,0.32,0.78,-0.37,
0.969,-0.90,-1.26,0.25,0.32,0.78,-0.37,
0.986,-0.90,-1.26,0.25,0.31,0.75,-0.38,
1.005,-1.15,-1.69,0.53,0.31,0.75,-0.38,
1.005,-1.15,-1.69,0.53,0.30,0.72,-0.39,
1.006,-1.15,-1.69,0.53,0.28,0.63,-0.38,
1.006,-2.19,-1.64,0.80,0.28,0.63,-0.38,
1.006,-2.19,-1.64,0.80,0.27,0.47,-0.36,
1.006,-2.19,-1.64,0.80,0.22,0.26,-0.32,
1.007,-2.19,-1.64,0.80,0.17,0.03,-0.30,
1.007,-2.25,-1.52,0.32,0.17,0.03,-0.30,
1.007,-2.25,-1.52,0.32,0.12,-0.12,-0.31,
1.007,-1.18,-1.39,0.49,0.12,-0.12,-0.31,
1.008,-1.18,-1.39,0.49,0.10,-0.17,-0.33,
1.008,-1.18,-1.39,0.49,0.10,-0.14,-0.34,
1.008,0.24,-0.98,0.67,0.10,-0.14,-0.34,
1.008,0.24,-0.98,0.67,0.12,-0.07,-0.35,
1.009,0.24,-0.98,0.67,0.13,-0.01,-0.34,
1.009,0.24,-0.98,0.67,0.13,0.02,-0.32,
1.009,0.89,-0.43,0.00,0.13,0.02,-0.32,
1.009,0.89,-0.43,0.00,0.13,0.02,-0.30,
1.01,0.89,-0.43,0.00,0.13,0.01,-0.30,
1.01,0.78,-0.02,-0.51,0.13,0.01,-0.30,
1.01,0.78,-0.02,-0.51,0.11,-0.03,-0.30,
1.01,-0.60,0.69,-0.53,0.11,-0.03,-0.30,
1.011,-0.60,0.69,-0.53,0.08,-0.10,-0.29,
1.011,-0.60,0.69,-0.53,0.05,-0.19,-0.27,
1.013,-0.60,0.69,-0.53,0.04,-0.26,-0.24,
1.013,-2.61,1.67,-0.20,0.04,-0.26,-0.24,
1.016,-2.61,1.67,-0.20,0.03,-0.30,-0.20,
1.019,-2.61,1.67,-0.20,0.03,-0.33,-0.15,
1.019,-3.26,2.42,-0.09,0.03,-0.33,-0.15,
1.024,-3.26,2.42,-0.09,0.04,-0.35,-0.10,
1.025,-3.26,2.42,-0.09,0.06,-0.33,-0.02,
1.025,-3.48,2.58,-0.15,0.06,-0.33,-0.02,
1.026,-3.48,2.58,-0.15,0.08,-0.28,0.05,
1.029,-3.48,2.58,-0.15,0.08,-0.25,0.08,
1.03,-0.01,1.13,-0.95,0.08,-0.25,0.08,
1.03,-0.01,1.13,-0.95,0.06,-0.23,0.04,
1.034,-0.01,1.13,-0.95,0.03,-0.21,-0.06,
1.034,4.99,-0.93,-1.54,0.03,-0.21,-0.06,
1.036,4.99,-0.93,-1.54,0.01,-0.16,-0.17,
1.039,5.25,-1.11,-0.80,0.01,-0.16,-0.17,
1.04,5.25,-1.11,-0.80,0.03,-0.03,-0.26,
1.04,5.25,-1.11,-0.80,0.07,0.17,-0.34,
1.043,5.25,-1.11,-0.80,0.12,0.36,-0.36,
1.044,2.51,-0.11,-0.15,0.12,0.36,-0.36,
1.045,2.51,-0.11,-0.15,0.16,0.49,-0.33,
1.048,-0.48,0.73,-0.31,0.16,0.49,-0.33,
1.049,-0.48,0.73,-0.31,0.18,0.57,-0.28,
1.05,-0.48,0.73,-0.31,0.18,0.60,-0.25,
1.053,-0.48,0.73,-0.31,0.18,0.60,-0.25,
1.053,-1.35,1.00,-0.61,0.18,0.60,-0.25,
1.062,-1.35,1.00,-0.61,0.18,0.58,-0.25,
1.063,-2.43,1.00,-0.43,0.18,0.58,-0.25,
1.063,-2.43,1.00,-0.43,0.16,0.53,-0.23,
1.064,-2.43,1.00,-0.43,0.13,0.45,-0.20,
1.064,-2.43,1.00,-0.43,0.11,0.35,-0.16,
1.065,-3.24,0.97,-0.03,0.11,0.35,-0.16,
1.065,-3.24,0.97,-0.03,0.10,0.26,-0.12,
1.068,-3.66,0.94,0.09,0.10,0.26,-0.12,
1.069,-3.66,0.94,0.09,0.09,0.17,-0.05,
1.07,-3.66,0.94,0.09,0.07,0.07,0.02,
1.08,-3.66,0.94,0.09,0.05,-0.02,0.07,
1.081,-2.98,0.90,-0.11,0.05,-0.02,0.07,
1.081,-2.98,0.90,-0.11,0.03,-0.11,0.10,
1.081,-1.51,0.78,-0.33,0.03,-0.11,0.10,
1.081,-1.51,0.78,-0.33,0.01,-0.19,0.12,
1.082,-1.51,0.78,-0.33,-0.01,-0.26,0.13,
1.083,-1.51,0.78,-0.33,-0.00,-0.27,0.13,
1.083,-0.79,1.07,0.02,-0.00,-0.27,0.13,
1.085,-0.79,1.07,0.02,0.02,-0.22,0.14,
1.088,-0.79,1.07,0.02,0.04,-0.19,0.15,
1.089,-0.39,1.11,0.36,0.04,-0.19,0.15,
1.09,-0.39,1.11,0.36,0.06,-0.16,0.17,
1.092,-0.39,1.11,0.36,0.08,-0.13,0.19,
1.093,-0.37,0.48,0.35,0.08,-0.13,0.19,
1.096,-0.37,0.48,0.35,0.10,-0.06,0.22,
1.098,-0.37,0.48,0.35,0.12,0.02,0.23,
1.098,0.03,-0.35,0.43,0.12,0.02,0.23,
1.101,0.03,-0.35,0.43,0.13,0.04,0.22,
1.103,0.03,-0.35,0.43,0.11,-0.03,0.20,
1.103,0.83,-0.84,-0.01,0.11,-0.03,0.20,
1.105,0.83,-0.84,-0.01,0.06,-0.17,0.17,
1.108,0.83,-0.84,-0.01,0.03,-0.28,0.14,
1.108,0.32,-1.16,0.16,0.03,-0.28,0.14,
1.11,0.32,-1.16,0.16,0.03,-0.29,0.13,
1.112,0.32,-1.16,0.16,0.05,-0.26,0.15,
1.112,-0.98,-1.46,0.86,0.05,-0.26,0.15,
1.115,-0.98,-1.46,0.86,0.06,-0.23,0.17,
1.117,-0.98,-1.46,0.86,0.07,-0.21,0.19,
1.118,-0.86,-1.45,0.78,0.07,-0.21,0.19,
1.119,-0.86,-1.45,0.78,0.08,-0.18,0.21,
1.122,-0.86,-1.45,0.78,0.08,-0.16,0.22,
1.124,-0.42,-1.09,0.49,0.08,-0.16,0.22,
1.125,-0.42,-1.09,0.49,0.08,-0.17,0.23,
1.127,0.21,-0.53,0.09,0.08,-0.17,0.23,
1.127,0.21,-0.53,0.09,0.07,-0.19,0.22,
1.129,0.21,-0.53,0.09,0.06,-0.20,0.21,
1.132,0.21,-0.53,0.09,0.06,-0.20,0.20,
1.132,0.50,-0.03,0.06,0.06,-0.20,0.20,
1.134,0.50,-0.03,0.06,0.06,-0.19,0.19,
1.139,0.50,-0.03,0.06,0.06,-0.15,0.20,
1.164,0.26,0.15,-0.18,0.06,-0.15,0.20,
1.164,0.26,0.15,-0.18,0.07,-0.11,0.21,
1.165,0.15,0.43,0.39,0.07,-0.11,0.21,
1.165,0.15,0.43,0.39,0.08,-0.08,0.21,
1.165,0.24,0.18,0.02,0.08,-0.08,0.21,
1.165,0.24,0.18,0.02,0.10,-0.04,0.22,
1.166,0.24,0.18,0.02,0.12,0.06,0.21,
1.166,0.24,0.18,0.02,0.12,0.11,0.21,
1.166,0.55,0.06,0.01,0.12,0.11,0.21,
1.166,0.55,0.06,0.01,0.12,0.10,0.20,
1.167,0.55,0.06,0.01,0.11,0.07,0.20,
1.167,0.55,0.06,0.01,0.11,0.01,0.21,
1.167,-0.45,0.27,1.11,0.11,0.01,0.21,
1.167,-0.45,0.27,1.11,0.13,-0.01,0.22,
1.168,-0.45,0.27,1.11,0.16,-0.02,0.24,
1.168,-1.15,0.03,1.35,0.16,-0.02,0.24,
1.168,-1.15,0.03,1.35,0.18,-0.04,0.26,
1.168,-1.15,0.03,1.35,0.18,-0.06,0.27,
1.169,-1.13,-0.22,0.45,0.18,-0.06,0.27,
1.169,-1.13,-0.22,0.45,0.17,-0.08,0.28,
1.177,-0.82,-0.28,-0.22,0.17,-0.08,0.28,
1.177,-0.82,-0.28,-0.22,0.16,-0.11,0.29,
1.178,-0.82,-0.28,-0.22,0.14,-0.13,0.29,
1.178,-0.54,-0.20,-0.12,0.14,-0.13,0.29,
1.178,-0.54,-0.20,-0.12,0.14,-0.15,0.29,
1.182,-0.54,-0.20,-0.12,0.13,-0.16,0.30,
1.182,-0.54,-0.20,-0.12,0.14,-0.17,0.31,
1.183,-0.33,-0.08,0.19,0.14,-0.17,0.31,
1.184,-0.33,-0.08,0.19,0.14,-0.17,0.32,
1.188,-0.33,-0.08,0.19,0.15,-0.16,0.32,
1.188,-0.18,0.06,0.37,0.15,-0.16,0.32,
1.197,-0.18,0.06,0.37,0.16,-0.16,0.33,
1.198,-0.08,0.21,0.47,0.16,-0.16,0.33,
1.198,-0.08,0.21,0.47,0.17,-0.15,0.33,
1.198,-0.08,0.21,0.47,0.17,-0.15,0.33,
1.198,-0.08,0.21,0.47,0.18,-0.16,0.33,
1.198,-0.02,0.22,0.50,0.18,-0.16,0.33,
1.199,-0.02,0.22,0.50,0.19,-0.17,0.33,
1.201,-0.02,0.22,0.50,0.20,-0.18,0.33,
1.201,0.01,0.05,0.42,0.20,-0.18,0.33,
1.204,0.01,0.05,0.42,0.20,-0.19,0.33,
1.207,0.01,0.05,0.42,0.21,-0.19,0.33,
1.207,0.00,-0.10,0.28,0.21,-0.19,0.33,
1.209,0.00,-0.10,0.28,0.21,-0.18,0.33,
1.212,0.00,-0.10,0.28,0.21,-0.18,0.33,
1.212,0.02,-0.16,0.17,0.21,-0.18,0.33,
1.214,0.02,-0.16,0.17,0.21,-0.17,0.33,
1.216,0.02,-0.16,0.17,0.22,-0.16,0.33,
1.217,0.03,-0.21,0.20,0.22,-0.16,0.33,
1.218,0.03,-0.21,0.20,0.22,-0.15,0.34,
1.221,0.03,-0.21,0.20,0.23,-0.15,0.34,
1.221,0.05,-0.20,0.28,0.23,-0.15,0.34,
1.223,0.05,-0.20,0.28,0.23,-0.14,0.33,
1.226,0.04,-0.18,0.30,0.23,-0.14,0.33,
1.229,0.04,-0.18,0.30,0.24,-0.14,0.33,
1.229,0.04,-0.18,0.30,0.24,-0.13,0.33,
1.231,0.03,-0.14,0.31,0.24,-0.13,0.33,
1.231,0.03,-0.14,0.31,0.25,-0.12,0.33,
1.233,0.03,-0.14,0.31,0.25,-0.12,0.33,
1.236,0.03,-0.14,0.31,0.26,-0.12,0.33,
1.236,-0.01,-0.20,0.33,0.26,-0.12,0.33,
1.239,-0.01,-0.20,0.33,0.27,-0.12,0.33,
1.241,-0.07,-0.17,0.36,0.27,-0.12,0.33,
1.242,-0.07,-0.17,0.36,0.27,-0.13,0.33,
1.244,-0.07,-0.17,0.36,0.27,-0.13,0.33,
1.246,-0.07,-0.15,0.33,0.27,-0.13,0.33,
1.246,-0.07,-0.15,0.33,0.28,-0.13,0.33,
1.248,-0.07,-0.15,0.33,0.28,-0.13,0.34,
1.251,-0.07,-0.15,0.33,0.29,-0.13,0.33,
1.251,-0.11,-0.15,0.34,0.29,-0.13,0.33,
1.253,-0.11,-0.15,0.34,0.30,-0.13,0.34,
1.257,-0.11,-0.15,0.34,0.30,-0.13,0.34,
1.257,-0.23,-0.08,0.33,0.30,-0.13,0.34,
1.259,-0.23,-0.08,0.33,0.31,-0.13,0.34,
1.268,-0.37,-0.06,0.37,0.31,-0.13,0.34,
1.268,-0.33,-0.06,0.50,0.31,-0.13,0.34,
1.269,-0.33,-0.06,0.50,0.31,-0.13,0.35,
1.269,-0.33,-0.06,0.50,0.31,-0.14,0.35,
1.269,-0.33,-0.06,0.50,0.31,-0.14,0.36,
1.27,-0.33,-0.06,0.50,0.32,-0.15,0.37,
1.272,-0.33,-0.06,0.50,0.32,-0.16,0.37,
1.272,-0.21,-0.09,0.63,0.32,-0.16,0.37,
1.278,-0.21,-0.09,0.63,0.33,-0.17,0.38,
1.279,-0.21,-0.09,0.63,0.34,-0.18,0.38,
1.279,-0.11,-0.10,0.76,0.34,-0.18,0.38,
1.28,-0.11,-0.10,0.76,0.35,-0.20,0.38,
1.281,-0.11,-0.10,0.76,0.36,-0.21,0.37,
1.283,0.02,-0.20,0.73,0.36,-0.21,0.37,
1.283,0.02,-0.20,0.73,0.37,-0.23,0.37,
1.286,0.02,-0.20,0.73,0.37,-0.24,0.36,
1.286,0.01,-0.26,0.66,0.37,-0.24,0.36,
1.288,0.01,-0.26,0.66,0.38,-0.24,0.36,
1.291,0.01,-0.26,0.66,0.39,-0.25,0.36,
1.291,-0.08,-0.25,0.59,0.39,-0.25,0.36,
1.296,-0.19,-0.19,0.53,0.39,-0.25,0.36,
1.296,-0.19,-0.19,0.53,0.39,-0.26,0.36,
1.296,-0.19,-0.19,0.53,0.40,-0.27,0.36,
1.298,-0.19,-0.19,0.53,0.40,-0.28,0.37,
1.3,-0.19,-0.19,0.53,0.41,-0.29,0.37,
1.301,-0.26,-0.14,0.53,0.41,-0.29,0.37,
1.314,-0.26,-0.14,0.53,0.41,-0.29,0.38,
1.314,-0.34,-0.07,0.54,0.41,-0.29,0.38,
1.314,-0.34,-0.07,0.54,0.42,-0.30,0.38,
1.314,-0.34,-0.07,0.54,0.42,-0.31,0.39,
1.314,-0.34,-0.07,0.54,0.43,-0.33,0.39,
1.314,-0.40,-0.03,0.57,0.43,-0.33,0.39,
1.315,-0.40,-0.03,0.57,0.43,-0.34,0.40,
1.316,-0.40,-0.03,0.57,0.44,-0.36,0.41,
1.316,-0.42,-0.08,0.57,0.44,-0.36,0.41,
1.319,-0.42,-0.08,0.57,0.44,-0.38,0.41,
1.322,-0.46,-0.13,0.59,0.44,-0.38,0.41,
1.323,-0.46,-0.13,0.59,0.45,-0.39,0.42,
1.323,-0.46,-0.13,0.59,0.45,-0.40,0.43,
1.326,-0.46,-0.13,0.59,0.46,-0.41,0.44,
1.326,-0.49,-0.08,0.59,0.46,-0.41,0.44,
1.328,-0.49,-0.08,0.59,0.46,-0.42,0.45,
1.331,-0.49,-0.08,0.59,0.46,-0.43,0.46,
1.331,-0.46,-0.08,0.67,0.46,-0.43,0.46,
1.333,-0.46,-0.08,0.67,0.47,-0.44,0.46,
1.335,-0.46,-0.08,0.67,0.47,-0.45,0.47,
1.336,-0.41,-0.02,0.60,0.47,-0.45,0.47,
1.338,-0.41,-0.02,0.60,0.48,-0.45,0.48,
1.341,-0.41,-0.02,0.60,0.48,-0.45,0.48,
1.341,-0.33,-0.02,0.43,0.48,-0.45,0.48,
1.343,-0.33,-0.02,0.43,0.49,-0.45,0.48,
1.345,-0.33,-0.02,0.43,0.50,-0.46,0.48,
1.346,-0.32,-0.11,0.12,0.50,-0.46,0.48,
1.348,-0.32,-0.11,0.12,0.51,-0.46,0.48,
1.35,-0.32,-0.11,0.12,0.50,-0.47,0.48,
1.351,-0.33,-0.19,-0.26,0.50,-0.47,0.48,
1.352,-0.33,-0.19,-0.26,0.49,-0.48,0.48,
1.356,-0.42,-0.12,-0.49,0.49,-0.48,0.48,
1.356,-0.42,-0.12,-0.49,0.48,-0.49,0.49,
1.36,-0.42,-0.12,-0.49,0.47,-0.49,0.49,
1.36,-0.42,-0.12,-0.49,0.46,-0.50,0.50,
1.361,-0.40,-0.07,-0.59,0.46,-0.50,0.50,
1.363,-0.40,-0.07,-0.59,0.45,-0.50,0.50,
1.365,-0.40,-0.07,-0.59,0.44,-0.50,0.51,
1.366,-0.30,-0.00,-0.53,0.44,-0.50,0.51,
1.368,-0.30,-0.00,-0.53,0.43,-0.50,0.51,
1.37,-0.30,-0.00,-0.53,0.43,-0.50,0.51,
1.371,-0.20,0.01,-0.39,0.43,-0.50,0.51,
1.385,-0.20,0.01,-0.39,0.43,-0.50,0.52,
1.397,-0.20,0.01,-0.39,0.43,-0.49,0.51,
1.398,-0.15,0.06,-0.43,0.43,-0.49,0.51,
1.398,-0.15,0.06,-0.43,0.43,-0.48,0.51,
1.398,-0.15,0.06,-0.43,0.43,-0.47,0.51,
1.4,-0.21,-0.02,-0.58,0.43,-0.47,0.51,
1.4,-0.21,-0.02,-0.58,0.42,-0.46,0.51,
1.401,-0.21,-0.02,-0.58,0.41,-0.45,0.51,
1.401,-0.41,0.01,-0.67,0.41,-0.45,0.51,
1.401,-0.41,0.01,-0.67,0.40,-0.45,0.52,
1.402,-0.41,0.01,-0.67,0.40,-0.46,0.53,
1.402,-0.56,0.02,-0.57,0.40,-0.46,0.53,
1.403,-0.56,0.02,-0.57,0.39,-0.48,0.54,
1.403,-0.56,0.02,-0.57,0.38,-0.51,0.54,
1.404,-0.53,0.01,-0.51,0.38,-0.51,0.54,
1.404,-0.53,0.01,-0.51,0.37,-0.54,0.55,
1.405,-0.53,0.01,-0.51,0.36,-0.57,0.56,
1.405,-0.43,0.03,-0.51,0.36,-0.57,0.56,
1.405,-0.43,0.03,-0.51,0.35,-0.59,0.56,
1.411,-0.30,-0.03,-0.68,0.35,-0.59,0.56,
1.411,-0.30,-0.03,-0.68,0.33,-0.61,0.56,
1.411,-0.30,-0.03,-0.68,0.32,-0.63,0.56,
1.412,-0.30,-0.03,-0.68,0.30,-0.66,0.57,
1.412,-0.37,-0.13,-0.46,0.30,-0.66,0.57,
1.413,-0.37,-0.13,-0.46,0.29,-0.69,0.58,
1.416,-0.40,-0.19,-0.21,0.29,-0.69,0.58,
1.417,-0.40,-0.19,-0.21,0.28,-0.72,0.59,
1.418,-0.40,-0.19,-0.21,0.27,-0.72,0.59,
1.42,-0.40,-0.19,-0.21,0.27,-0.70,0.59,
1.42,-0.56,-0.19,-0.20,0.27,-0.70,0.59,
1.423,-0.56,-0.19,-0.20,0.27,-0.68,0.60,
1.425,-0.56,-0.19,-0.20,0.26,-0.67,0.61,
1.425,-0.56,-0.06,0.06,0.26,-0.67,0.61,
1.427,-0.56,-0.06,0.06,0.26,-0.67,0.63,
1.429,-0.56,-0.06,0.06,0.26,-0.66,0.64,
1.429,-0.15,0.01,0.37,0.26,-0.66,0.64,
1.431,-0.15,0.01,0.37,0.27,-0.65,0.64,
1.434,-0.15,0.01,0.37,0.28,-0.64,0.64,
1.434,0.36,0.02,0.56,0.28,-0.64,0.64,
1.436,0.36,0.02,0.56,0.29,-0.62,0.64,
1.439,0.36,0.02,0.56,0.31,-0.59,0.63,
1.44,0.84,-0.05,0.66,0.31,-0.59,0.63,
1.441,0.84,-0.05,0.66,0.33,-0.56,0.62,
1.445,0.84,-0.05,0.66,0.35,-0.52,0.61,
1.445,1.21,-0.17,0.71,0.35,-0.52,0.61,
1.446,1.21,-0.17,0.71,0.37,-0.48,0.59,
1.449,1.21,-0.17,0.71,0.39,-0.42,0.58,
1.449,1.42,-0.31,0.84,0.39,-0.42,0.58,
1.453,1.42,-0.31,0.84,0.41,-0.37,0.56,
1.455,1.42,-0.31,0.84,0.43,-0.33,0.54,
1.456,1.32,-0.43,0.95,0.43,-0.33,0.54,
1.459,1.32,-0.43,0.95,0.45,-0.29,0.53,
1.462,1.06,-0.57,1.04,0.45,-0.29,0.53,
1.462,1.06,-0.57,1.04,0.47,-0.27,0.51,
1.462,1.06,-0.57,1.04,0.48,-0.27,0.50,
1.464,0.73,-0.55,0.71,0.48,-0.27,0.50,
1.465,0.73,-0.55,0.71,0.49,-0.26,0.49,
1.468,0.73,-0.55,0.71,0.50,-0.24,0.48,
1.482,0.35,-0.34,0.39,0.50,-0.24,0.48,
1.482,0.35,-0.34,0.39,0.50,-0.23,0.48,
1.482,0.35,-0.34,0.39,0.50,-0.24,0.48,
1.483,0.10,-0.19,0.14,0.50,-0.24,0.48,
1.484,0.10,-0.19,0.14,0.51,-0.25,0.48,
1.484,0.10,-0.19,0.14,0.50,-0.23,0.48,
1.484,0.10,-0.19,0.14,0.50,-0.22,0.48,
1.485,-0.04,-0.09,-0.19,0.50,-0.22,0.48,
1.485,-0.04,-0.09,-0.19,0.50,-0.21,0.48,
1.485,-0.04,-0.09,-0.19,0.50,-0.22,0.49,
1.486,-0.12,0.06,-0.18,0.50,-0.22,0.49,
1.49,-0.12,0.06,-0.18,0.49,-0.23,0.49,
1.491,-0.12,0.06,-0.18,0.49,-0.25,0.49,
1.491,-0.11,0.26,-0.36,0.49,-0.25,0.49,
1.492,-0.11,0.26,-0.36,0.48,-0.25,0.49,
1.494,-0.11,0.26,-0.36,0.48,-0.26,0.49,
1.494,-0.20,0.38,-0.53,0.48,-0.26,0.49,
1.497,-0.20,0.38,-0.53,0.47,-0.26,0.49,
1.5,-0.20,0.38,-0.53,0.47,-0.26,0.49,
1.5,-0.05,0.12,-0.52,0.47,-0.26,0.49,
1.501,-0.05,0.12,-0.52,0.47,-0.27,0.49,
1.504,-0.05,0.12,-0.52,0.46,-0.28,0.48,
1.504,0.07,-0.20,-0.39,0.46,-0.28,0.48,
1.508,0.07,-0.20,-0.39,0.45,-0.28,0.48,
1.51,0.18,-0.37,-0.25,0.45,-0.28,0.48,
1.511,0.18,-0.37,-0.25,0.45,-0.29,0.48,
1.511,0.18,-0.37,-0.25,0.45,-0.29,0.47,
1.514,0.26,-0.36,-0.11,0.45,-0.29,0.47,
1.514,0.26,-0.36,-0.11,0.44,-0.28,0.47,
1.516,0.26,-0.36,-0.11,0.45,-0.27,0.47,
1.519,0.33,-0.24,0.05,0.45,-0.27,0.47,
1.519,0.33,-0.24,0.05,0.45,-0.25,0.47,
1.522,0.33,-0.24,0.05,0.46,-0.23,0.47,
1.525,0.33,-0.24,0.05,0.46,-0.21,0.46,
1.526,0.31,-0.17,0.08,0.46,-0.21,0.46,
1.526,0.31,-0.17,0.08,0.47,-0.18,0.46,
1.529,0.18,-0.16,0.07,0.47,-0.18,0.46,
1.529,0.18,-0.16,0.07,0.48,-0.15,0.46,
1.531,0.18,-0.16,0.07,0.49,-0.12,0.45,
1.533,0.18,-0.16,0.07,0.49,-0.11,0.46,
1.534,-0.00,-0.15,0.06,0.49,-0.11,0.46,
1.536,-0.00,-0.15,0.06,0.49,-0.11,0.46,
1.54,-0.35,-0.05,-0.05,0.49,-0.11,0.46,
1.54,-0.35,-0.05,-0.05,0.49,-0.13,0.46,
1.542,-0.35,-0.05,-0.05,0.48,-0.15,0.47,
1.544,-0.73,-0.05,0.07,0.48,-0.15,0.47,
1.544,-0.73,-0.05,0.07,0.48,-0.16,0.47,
1.546,-0.73,-0.05,0.07,0.48,-0.17,0.48,
1.548,-0.73,-0.05,0.07,0.48,-0.18,0.48,
1.549,-0.72,-0.13,0.18,0.48,-0.18,0.48,
1.551,-0.72,-0.13,0.18,0.48,-0.19,0.49,
1.554,-0.72,-0.13,0.18,0.47,-0.20,0.50,
1.554,-0.65,-0.11,0.19,0.47,-0.20,0.50,
1.563,-0.65,-0.11,0.19,0.47,-0.21,0.50,
1.564,-0.65,-0.11,0.19,0.46,-0.22,0.51,
1.564,-0.56,-0.02,0.21,0.46,-0.22,0.51,
1.564,-0.56,-0.02,0.21,0.46,-0.23,0.52,
1.565,-0.56,-0.02,0.21,0.46,-0.24,0.53,
1.565,-0.41,0.04,0.18,0.46,-0.24,0.53,
1.566,-0.41,0.04,0.18,0.46,-0.24,0.54,
1.568,-0.41,0.04,0.18,0.46,-0.24,0.54,
1.569,-0.29,-0.03,0.22,0.46,-0.24,0.54,
1.571,-0.29,-0.03,0.22,0.46,-0.24,0.55,
1.582,-0.29,-0.03,0.22,0.47,-0.22,0.55,
1.582,-0.45,0.02,0.20,0.47,-0.22,0.55,
1.582,-0.45,0.02,0.20,0.47,-0.20,0.56,
1.583,-0.53,0.23,0.04,0.47,-0.20,0.56,
1.583,-0.53,0.23,0.04,0.47,-0.21,0.57,
1.583,-0.53,0.23,0.04,0.46,-0.24,0.58,
1.584,-0.53,0.23,0.04,0.45,-0.27,0.59,
1.584,-0.74,0.39,-0.20,0.45,-0.27,0.59,
1.585,-0.74,0.39,-0.20,0.43,-0.31,0.60,
1.589,-0.77,0.29,-0.32,0.43,-0.31,0.60,
1.591,-0.77,0.29,-0.32,0.42,-0.34,0.61,
1.591,-0.77,0.29,-0.32,0.41,-0.35,0.62,
1.593,-0.81,0.06,-0.34,0.41,-0.35,0.62,
1.593,-0.81,0.06,-0.34,0.41,-0.35,0.63,
1.595,-0.81,0.06,-0.34,0.40,-0.34,0.65,
1.599,-0.69,-0.03,-0.44,0.40,-0.34,0.65,
1.599,-0.69,-0.03,-0.44,0.40,-0.34,0.66,
1.6,-0.69,-0.03,-0.44,0.40,-0.33,0.67,
1.603,-0.69,-0.03,-0.44,0.39,-0.32,0.66,
1.603,-0.17,-0.40,-0.70,0.39,-0.32,0.66,
1.605,-0.17,-0.40,-0.70,0.38,-0.30,0.66,
1.608,-0.47,-0.30,-0.56,0.38,-0.30,0.66,
1.608,-0.47,-0.30,-0.56,0.37,-0.29,0.68,
1.61,-0.47,-0.30,-0.56,0.37,-0.28,0.70,
1.613,-0.47,-0.30,-0.56,0.37,-0.27,0.71,
1.613,-0.36,-0.10,-0.60,0.37,-0.27,0.71,
1.615,-0.36,-0.10,-0.60,0.37,-0.25,0.71,
1.618,-0.28,-0.09,-0.43,0.37,-0.25,0.71,
1.618,-0.28,-0.09,-0.43,0.37,-0.24,0.71,
1.62,-0.28,-0.09,-0.43,0.37,-0.22,0.71,
1.623,-0.25,-0.09,-0.48,0.37,-0.22,0.71,
1.623,-0.25,-0.09,-0.48,0.37,-0.19,0.71,
1.625,-0.25,-0.09,-0.48,0.37,-0.19,0.71,
1.628,-0.25,-0.09,-0.48,0.36,-0.19,0.72,
1.628,-0.31,-0.04,-0.46,0.36,-0.19,0.72,
1.63,-0.31,-0.04,-0.46,0.35,-0.19,0.73,
1.633,-0.31,-0.04,-0.46,0.35,-0.20,0.74,
1.656,-0.34,0.04,-0.21,0.35,-0.20,0.74,
1.656,-0.34,0.04,-0.21,0.35,-0.20,0.74,
1.657,-0.35,0.08,-0.13,0.35,-0.20,0.74,
1.657,-0.35,0.08,-0.13,0.34,-0.20,0.75,
1.657,-0.35,0.08,-0.13,0.34,-0.21,0.75,
1.658,-0.35,0.08,-0.13,0.35,-0.19,0.75,
1.658,-0.21,-0.07,0.02,0.35,-0.19,0.75,
1.658,-0.21,-0.07,0.02,0.35,-0.17,0.76,
1.658,-0.22,-0.12,0.09,0.35,-0.17,0.76,
1.659,-0.22,-0.12,0.09,0.35,-0.17,0.76,
1.659,-0.22,-0.12,0.09,0.35,-0.16,0.77,
1.659,-0.04,-0.13,0.20,0.35,-0.16,0.77,
1.659,-0.04,-0.13,0.20,0.35,-0.16,0.78,
1.66,-0.04,-0.13,0.20,0.35,-0.16,0.77,
1.66,0.17,-0.20,0.34,0.35,-0.16,0.77,
1.66,0.17,-0.20,0.34,0.35,-0.16,0.77,
1.66,0.17,-0.20,0.34,0.36,-0.16,0.77,
1.663,0.17,-0.20,0.34,0.37,-0.15,0.77,
1.664,0.02,-0.20,0.48,0.37,-0.15,0.77,
1.666,0.02,-0.20,0.48,0.37,-0.15,0.77,
1.668,0.02,-0.20,0.48,0.38,-0.14,0.77,
1.669,-0.41,-0.12,0.43,0.38,-0.14,0.77,
1.671,-0.41,-0.12,0.43,0.38,-0.13,0.78,
1.677,-0.63,-0.06,0.23,0.38,-0.13,0.78,
1.681,-0.63,-0.06,0.23,0.39,-0.12,0.78,
1.681,-0.63,-0.06,0.23,0.39,-0.11,0.79,
1.682,-0.61,0.02,0.01,0.39,-0.11,0.79,
1.682,-0.61,0.02,0.01,0.38,-0.11,0.80,
1.682,-0.61,0.02,0.01,0.38,-0.12,0.80,
1.683,-0.48,0.00,-0.15,0.38,-0.12,0.80,
1.683,-0.48,0.00,-0.15,0.37,-0.13,0.81,
1.685,-0.48,0.00,-0.15,0.37,-0.14,0.82,
1.689,-0.48,0.00,-0.15,0.37,-0.15,0.82,
1.689,-0.50,0.02,-0.17,0.37,-0.15,0.82,
1.699,-0.50,0.02,-0.17,0.36,-0.16,0.82,
1.7,-0.65,0.05,-0.25,0.36,-0.16,0.82,
1.7,-0.65,0.05,-0.25,0.36,-0.17,0.83,
1.701,-0.65,0.05,-0.25,0.35,-0.17,0.83,
1.701,-0.65,0.05,-0.25,0.35,-0.17,0.84,
1.701,-0.59,0.03,-0.42,0.35,-0.17,0.84,
1.702,-0.59,0.03,-0.42,0.34,-0.18,0.85,
1.702,-0.59,0.03,-0.42,0.33,-0.20,0.86,
1.702,-0.31,-0.01,-0.52,0.33,-0.20,0.86,
1.704,-0.31,-0.01,-0.52,0.33,-0.19,0.86,
1.708,-0.31,-0.01,-0.52,0.32,-0.18,0.85,
1.708,-0.17,-0.14,-0.67,0.32,-0.18,0.85,
1.709,-0.17,-0.14,-0.67,0.32,-0.17,0.85,
1.712,-0.33,-0.18,-0.88,0.32,-0.17,0.85,
1.712,-0.33,-0.18,-0.88,0.32,-0.15,0.85,
1.714,-0.33,-0.18,-0.88,0.32,-0.13,0.85,
1.718,-0.33,-0.18,-0.88,0.31,-0.11,0.85,
1.718,-0.36,-0.23,-1.00,0.31,-0.11,0.85,
1.72,-0.36,-0.23,-1.00,0.30,-0.10,0.86,
1.722,-0.36,-0.23,-1.00,0.29,-0.10,0.87,
1.723,-0.18,-0.19,-0.85,0.29,-0.10,0.87,
1.724,-0.18,-0.19,-0.85,0.29,-0.09,0.87,
1.727,0.02,-0.07,-0.39,0.29,-0.09,0.87,
1.727,0.02,-0.07,-0.39,0.28,-0.09,0.87,
1.729,0.02,-0.07,-0.39,0.28,-0.08,0.88,
1.732,0.02,-0.07,-0.39,0.29,-0.06,0.88,
1.732,0.06,0.02,-0.04,0.29,-0.06,0.88,
1.734,0.06,0.02,-0.04,0.30,-0.03,0.88,
1.737,0.06,0.02,-0.04,0.30,0.00,0.88,
1.737,-0.01,0.14,0.06,0.30,0.00,0.88,
1.74,-0.01,0.14,0.06,0.31,0.02,0.89,
1.742,-0.10,0.23,-0.04,0.31,0.02,0.89,
1.742,-0.10,0.23,-0.04,0.31,0.04,0.89,
1.744,-0.10,0.23,-0.04,0.31,0.05,0.90,
1.747,-0.10,0.23,-0.04,0.31,0.07,0.90,
1.747,-0.29,0.27,-0.23,0.31,0.07,0.90,
1.749,-0.29,0.27,-0.23,0.31,0.08,0.91,
1.752,-0.29,0.27,-0.23,0.31,0.09,0.92,
1.752,-0.78,0.30,-0.26,0.31,0.09,0.92,
1.754,-0.78,0.30,-0.26,0.31,0.11,0.94,
1.758,-0.78,0.30,-0.26,0.31,0.12,0.95,
1.759,-1.04,0.41,-0.21,0.31,0.12,0.95,
1.759,-1.04,0.41,-0.21,0.30,0.13,0.96,
1.762,-1.01,0.50,-0.09,0.30,0.13,0.96,
1.762,-1.01,0.50,-0.09,0.30,0.13,0.98,
1.765,-1.01,0.50,-0.09,0.30,0.11,1.00,
1.767,-0.83,0.44,0.01,0.30,0.11,1.00,
1.767,-0.83,0.44,0.01,0.29,0.09,1.01,
1.769,-0.83,0.44,0.01,0.28,0.06,1.02,
1.772,-0.83,0.44,0.01,0.28,0.04,1.02,
1.773,-0.47,0.46,-0.08,0.28,0.04,1.02,
1.782,-0.47,0.46,-0.08,0.27,0.02,1.03,
1.783,-0.35,0.32,-0.05,0.27,0.02,1.03,
1.783,-0.35,0.32,-0.05,0.27,0.00,1.04,
1.783,-0.35,0.32,-0.05,0.27,-0.01,1.05,
1.783,-0.19,0.25,-0.11,0.27,-0.01,1.05,
1.783,-0.19,0.25,-0.11,0.27,-0.01,1.05,
1.784,-0.19,0.25,-0.11,0.27,-0.01,1.06,
1.79,-0.19,0.25,-0.11,0.26,-0.01,1.06,
1.79,-0.19,0.25,-0.11,0.26,-0.00,1.07,
1.79,0.03,0.15,-0.26,0.26,-0.00,1.07,
1.791,0.14,0.11,-0.37,0.26,-0.00,1.07,
1.791,0.14,0.11,-0.37,0.27,0.03,1.07,
1.794,0.14,0.11,-0.37,0.27,0.05,1.06,
1.796,0.14,0.11,-0.37,0.27,0.07,1.06,
1.796,0.30,-0.11,-0.17,0.27,0.07,1.06,
1.81,0.30,-0.11,-0.17,0.27,0.09,1.06,
1.81,0.30,-0.11,-0.17,0.28,0.11,1.05,
1.81,0.46,-0.24,-0.01,0.28,0.11,1.05,
1.81,0.46,-0.24,-0.01,0.28,0.12,1.04,
1.81,0.46,-0.24,-0.01,0.28,0.14,1.03,
1.811,0.45,-0.11,0.01,0.28,0.14,1.03,
1.811,0.45,-0.11,0.01,0.28,0.16,1.03,
1.811,0.45,-0.11,0.01,0.29,0.18,1.03,
1.811,0.35,0.05,-0.02,0.29,0.18,1.03,
1.813,0.35,0.05,-0.02,0.29,0.19,1.02,
1.816,0.35,0.05,-0.02,0.29,0.20,1.01,
1.816,0.20,0.18,-0.19,0.29,0.20,1.01,
1.818,0.20,0.18,-0.19,0.29,0.21,1.01,
1.821,0.20,0.18,-0.19,0.28,0.22,1.01,
1.821,-0.07,0.33,-0.29,0.28,0.22,1.01,
1.824,-0.07,0.33,-0.29,0.28,0.23,1.01,
1.826,-0.07,0.33,-0.29,0.28,0.23,1.01,
1.826,-0.15,0.63,-0.25,0.28,0.23,1.01,
1.829,-0.15,0.63,-0.25,0.27,0.22,1.01,
1.831,-0.15,0.63,-0.25,0.27,0.18,1.01,
1.831,0.03,0.72,0.08,0.27,0.18,1.01,
1.833,0.03,0.72,0.08,0.26,0.15,1.01,
1.836,0.03,0.72,0.08,0.26,0.13,1.00,
1.836,0.13,0.56,0.11,0.26,0.13,1.00,
1.838,0.13,0.56,0.11,0.26,0.13,1.00,
1.841,0.18,0.55,0.11,0.26,0.13,1.00,
1.842,0.18,0.55,0.11,0.27,0.15,0.99,
1.843,0.18,0.55,0.11,0.26,0.17,0.99,
1.846,0.18,0.55,0.11,0.27,0.18,0.98,
1.848,0.35,0.65,0.28,0.27,0.18,0.98,
1.848,0.35,0.65,0.28,0.27,0.20,0.98,
1.851,0.35,0.65,0.28,0.28,0.22,0.97,
1.851,0.45,0.71,0.35,0.28,0.22,0.97,
1.853,0.45,0.71,0.35,0.29,0.25,0.96,
1.861,0.52,0.85,0.10,0.29,0.25,0.96,
1.861,0.52,0.85,0.10,0.29,0.26,0.95,
1.862,0.52,0.85,0.10,0.29,0.26,0.94,
1.862,0.52,0.85,0.10,0.30,0.28,0.94,
1.862,0.13,0.88,0.03,0.30,0.28,0.94,
1.863,0.13,0.88,0.03,0.30,0.29,0.94,
1.866,0.13,0.88,0.03,0.31,0.31,0.94,
1.866,-0.19,0.99,0.02,0.31,0.31,0.94,
1.878,-0.19,0.99,0.02,0.31,0.32,0.94,
1.878,-0.19,0.99,0.02,0.30,0.32,0.94,
1.879,-0.19,0.99,0.02,0.28,0.33,0.94,
1.879,-0.32,1.24,-0.26,0.28,0.33,0.94,
1.879,-0.32,1.24,-0.26,0.27,0.32,0.96,
1.879,-0.44,1.54,-0.06,0.27,0.32,0.96,
1.879,-0.44,1.54,-0.06,0.27,0.31,0.97,
1.881,-0.37,1.64,0.20,0.27,0.31,0.97,
1.881,-0.37,1.64,0.20,0.26,0.30,0.98,
1.883,-0.37,1.64,0.20,0.26,0.30,0.99,
1.886,-0.42,1.47,0.09,0.26,0.30,0.99,
1.887,-0.42,1.47,0.09,0.26,0.31,1.00,
1.889,-0.42,1.47,0.09,0.26,0.32,1.01,
1.89,-0.40,1.34,0.10,0.26,0.32,1.01,
1.891,-0.40,1.34,0.10,0.25,0.32,1.02,
1.893,-0.40,1.34,0.10,0.25,0.33,1.02,
1.895,-0.44,1.19,0.06,0.25,0.33,1.02,
1.896,-0.44,1.19,0.06,0.25,0.34,1.03,
1.898,-0.44,1.19,0.06,0.24,0.35,1.04,
1.901,-0.44,1.19,0.06,0.23,0.35,1.05,
1.901,-0.37,1.09,-0.14,0.23,0.35,1.05,
1.903,-0.37,1.09,-0.14,0.23,0.36,1.06,
1.905,-0.37,1.09,-0.14,0.22,0.37,1.07,
1.905,-0.27,0.91,-0.31,0.22,0.37,1.07,
1.908,-0.27,0.91,-0.31,0.21,0.38,1.08,
1.91,-0.23,0.85,-0.21,0.21,0.38,1.08,
1.91,-0.23,0.85,-0.21,0.21,0.39,1.08,
1.912,-0.23,0.85,-0.21,0.20,0.41,1.10,
1.915,-0.23,0.85,-0.21,0.20,0.44,1.11,
1.915,-0.16,1.12,-0.30,0.20,0.44,1.11,
1.918,-0.16,1.12,-0.30,0.19,0.46,1.12,
1.92,-0.16,1.12,-0.30,0.19,0.48,1.14,
1.92,-0.23,1.37,-0.52,0.19,0.48,1.14,
1.923,-0.23,1.37,-0.52,0.18,0.53,1.15,
1.925,-0.23,1.37,-0.52,0.18,0.60,1.17,
1.926,-0.35,1.87,-0.99,0.18,0.60,1.17,
1.928,-0.35,1.87,-0.99,0.18,0.64,1.18,
1.93,-0.03,1.91,-0.79,0.18,0.64,1.18,
1.931,-0.03,1.91,-0.79,0.18,0.65,1.19,
1.932,-0.03,1.91,-0.79,0.17,0.67,1.20,
1.935,-0.03,1.91,-0.79,0.17,0.72,1.22,
1.935,-0.24,1.78,-1.11,0.17,0.72,1.22,
1.937,-0.24,1.78,-1.11,0.16,0.77,1.23,
1.94,-0.24,1.78,-1.11,0.15,0.79,1.24,
1.942,-0.05,1.62,-0.77,0.15,0.79,1.24,
1.943,-0.05,1.62,-0.77,0.14,0.82,1.24,
1.945,-0.05,1.62,-0.77,0.13,0.84,1.24,
1.946,-0.26,1.78,-0.66,0.13,0.84,1.24,
1.948,-0.26,1.78,-0.66,0.12,0.85,1.25,
1.95,-0.26,1.78,-0.66,0.10,0.86,1.27,
1.951,-0.77,2.07,-0.61,0.10,0.86,1.27,
1.952,-0.77,2.07,-0.61,0.09,0.87,1.30,
1.955,-1.24,2.27,-0.50,0.09,0.87,1.30,
1.955,-1.24,2.27,-0.50,0.08,0.89,1.32,
1.962,-1.24,2.27,-0.50,0.07,0.89,1.34,
1.962,-1.24,2.27,-0.50,0.05,0.89,1.36,
1.963,-1.44,2.30,-0.54,0.05,0.89,1.36,
1.963,-1.44,2.30,-0.54,0.03,0.89,1.39,
1.991,-2.16,2.09,-0.15,0.03,0.89,1.39,
1.992,-2.16,2.09,-0.15,0.02,0.85,1.42,
1.992,-2.16,2.09,-0.15,-0.02,0.81,1.45,
1.992,-2.07,2.42,-0.57,-0.02,0.81,1.45,
1.992,-2.07,2.42,-0.57,-0.04,0.81,1.48,
1.993,-2.07,2.42,-0.57,-0.06,0.82,1.51,
1.993,-2.07,2.42,-0.57,-0.08,0.82,1.53,
1.993,-1.98,2.84,-0.21,-0.08,0.82,1.53,
1.993,-1.98,2.84,-0.21,-0.09,0.82,1.55,
1.994,-1.98,2.84,-0.21,-0.10,0.82,1.57,
1.994,-2.13,2.89,0.24,-0.10,0.82,1.57,
1.994,-2.13,2.89,0.24,-0.10,0.79,1.61,
1.994,-2.13,2.89,0.24,-0.12,0.77,1.65,
1.995,-2.49,2.56,-0.19,-0.12,0.77,1.65,
1.995,-2.49,2.56,-0.19,-0.14,0.77,1.67,
1.995,-2.49,2.56,-0.19,-0.16,0.76,1.70,
1.995,-2.57,2.63,-0.55,-0.16,0.76,1.70,
1.996,-2.57,2.63,-0.55,-0.19,0.74,1.72,
1.996,-2.57,2.63,-0.55,-0.21,0.70,1.75,
1.996,-2.73,2.91,-0.11,-0.21,0.70,1.75,
1.998,-2.73,2.91,-0.11,-0.22,0.67,1.78,
2.001,-2.73,2.91,-0.11,-0.24,0.66,1.80,
2.002,-2.45,3.21,-0.64,-0.24,0.66,1.80,
2.002,-2.45,3.21,-0.64,-0.26,0.66,1.83,
2.005,-2.45,3.21,-0.64,-0.27,0.66,1.87,
2.006,-2.51,3.40,-0.46,-0.27,0.66,1.87,
2.008,-2.51,3.40,-0.46,-0.29,0.64,1.91,
2.012,-2.51,3.40,-0.46,-0.30,0.63,1.93,
2.012,-1.95,3.59,-0.30,-0.30,0.63,1.93,
2.013,-1.95,3.59,-0.30,-0.31,0.63,1.95,
2.015,-1.95,3.59,-0.30,-0.33,0.63,1.97,
2.016,-1.97,3.70,-0.10,-0.33,0.63,1.97,
2.018,-1.97,3.70,-0.10,-0.34,0.64,1.99,
2.019,-1.97,3.70,-0.10,-0.35,0.65,2.01,
2.019,-2.16,3.96,0.21,-0.35,0.65,2.01,
2.021,-2.16,3.96,0.21,-0.35,0.69,2.04,
2.024,-2.16,3.96,0.21,-0.35,0.72,2.06,
2.025,-2.39,4.16,0.61,-0.35,0.72,2.06,
2.027,-2.39,4.16,0.61,-0.35,0.76,2.09,
2.03,-2.39,4.16,0.61,-0.35,0.80,2.12,
2.03,-2.60,4.14,0.56,-0.35,0.80,2.12,
2.032,-2.60,4.14,0.56,-0.35,0.85,2.16,
2.034,-2.60,4.14,0.56,-0.36,0.87,2.18,
2.035,-2.12,4.05,0.54,-0.36,0.87,2.18,
2.037,-2.12,4.05,0.54,-0.38,0.83,2.17,
2.04,-2.12,4.05,0.54,-0.40,0.81,2.17,
2.04,-2.47,4.28,0.32,-0.40,0.81,2.17,
2.043,-2.47,4.28,0.32,-0.42,0.81,2.19,
2.046,-3.07,4.66,0.08,-0.42,0.81,2.19,
2.046,-3.07,4.66,0.08,-0.43,0.80,2.20,
2.052,-3.07,4.66,0.08,-0.45,0.80,2.23,
2.052,-3.07,4.66,0.08,-0.46,0.83,2.26,
2.052,-3.89,5.13,-0.31,-0.46,0.83,2.26,
2.052,-3.89,5.13,-0.31,-0.47,0.86,2.29,
2.055,-3.89,5.13,-0.31,-0.48,0.89,2.33,
2.055,-4.48,5.57,-0.60,-0.48,0.89,2.33,
2.068,-4.48,5.57,-0.60,-0.49,0.94,2.38,
2.069,-4.48,5.57,-0.60,-0.51,0.99,2.42,
2.069,-4.63,6.21,-1.04,-0.51,0.99,2.42,
2.07,-4.63,6.21,-1.04,-0.53,1.02,2.45,
2.07,-4.77,6.89,-1.70,-0.53,1.02,2.45,
2.07,-4.77,6.89,-1.70,-0.57,1.07,2.49,
2.071,-4.77,6.89,-1.70,-0.61,1.14,2.51,
2.077,-4.95,8.03,-2.67,-0.61,1.14,2.51,
2.077,-4.95,8.03,-2.67,-0.65,1.22,2.54,
2.077,-4.95,8.03,-2.67,-0.68,1.27,2.56,
2.077,-5.29,9.46,-3.19,-0.68,1.27,2.56,
2.078,-5.29,9.46,-3.19,-0.71,1.32,2.57,
2.113,-5.29,9.46,-3.19,-0.71,1.37,2.58,
2.114,-5.29,9.46,-3.19,-0.69,1.46,2.61,
2.114,-6.16,11.12,-3.80,-0.69,1.46,2.61,
2.115,-6.16,11.12,-3.80,-0.66,1.59,2.66,
2.115,-6.16,11.12,-3.80,-0.63,1.76,2.74,
2.115,-7.55,12.76,-4.15,-0.63,1.76,2.74,
2.116,-7.55,12.76,-4.15,-0.60,1.96,2.82,
2.116,-7.55,12.76,-4.15,-0.57,2.15,2.91,
2.116,-8.65,14.28,-3.94,-0.57,2.15,2.91,
2.117,-8.65,14.28,-3.94,-0.55,2.35,2.99,
2.117,-8.65,14.28,-3.94,-0.54,2.55,3.06,
2.117,-8.92,15.03,-4.39,-0.54,2.55,3.06,
2.118,-8.92,15.03,-4.39,-0.54,2.71,3.10,
2.118,-8.92,15.03,-4.39,-0.56,2.82,3.12,
2.119,-9.09,15.36,-4.72,-0.56,2.82,3.12,
2.119,-9.09,15.36,-4.72,-0.58,2.86,3.17,
2.119,-9.09,15.36,-4.72,-0.62,2.85,3.23,
2.12,-10.20,16.17,-4.61,-0.62,2.85,3.23,
2.121,-10.20,16.17,-4.61,-0.66,2.80,3.32,
2.121,-10.20,16.17,-4.61,-0.69,2.71,3.44,
2.121,-11.35,16.86,-4.81,-0.69,2.71,3.44,
2.122,-11.35,16.86,-4.81,-0.71,2.60,3.58,
2.123,-11.35,16.86,-4.81,-0.74,2.50,3.72,
2.123,-11.74,17.37,-5.59,-0.74,2.50,3.72,
2.123,-11.74,17.37,-5.59,-0.77,2.38,3.87,
2.124,-11.74,17.37,-5.59,-0.80,2.24,4.02,
2.124,-11.62,17.98,-5.65,-0.80,2.24,4.02,
2.125,-11.62,17.98,-5.65,-0.82,2.05,4.19,
2.126,-10.59,18.16,-5.49,-0.82,2.05,4.19,
2.126,-10.59,18.16,-5.49,-0.85,1.83,4.36,
2.126,-10.59,18.16,-5.49,-0.86,1.59,4.50,
2.129,-8.44,17.19,-6.59,-0.86,1.59,4.50,
2.146,-8.44,17.19,-6.59,-0.90,1.36,4.62,
2.147,-8.44,17.19,-6.59,-0.93,1.15,4.71,
2.147,-8.44,17.19,-6.59,-0.98,0.98,4.80,
2.147,-6.81,15.66,-7.41,-0.98,0.98,4.80,
2.148,-6.81,15.66,-7.41,-1.04,0.83,4.87,
2.148,-6.81,15.66,-7.41,-1.09,0.70,4.94,
2.148,-5.43,14.08,-7.18,-1.09,0.70,4.94,
2.149,-5.43,14.08,-7.18,-1.15,0.61,5.01,
2.149,-3.94,12.62,-5.73,-1.15,0.61,5.01,
2.149,-3.94,12.62,-5.73,-1.19,0.54,5.05,
2.149,-3.94,12.62,-5.73,-1.20,0.51,5.07,
2.15,-3.94,12.62,-5.73,-1.16,0.51,5.05,
2.15,-1.81,11.34,-3.82,-1.16,0.51,5.05,
2.151,-1.81,11.34,-3.82,-1.09,0.54,4.96,
2.154,-1.81,11.34,-3.82,-1.00,0.60,4.82,
2.154,0.39,10.51,-2.70,-1.00,0.60,4.82,
2.155,0.39,10.51,-2.70,-0.90,0.72,4.63,
2.164,0.39,10.51,-2.70,-0.77,0.87,4.41,
2.164,1.66,10.44,-1.87,-0.77,0.87,4.41,
2.165,1.66,10.44,-1.87,-0.62,1.07,4.17,
2.165,1.66,10.44,-1.87,-0.46,1.31,3.92,
2.165,1.38,10.25,-1.56,-0.46,1.31,3.92,
2.166,1.38,10.25,-1.56,-0.30,1.60,3.67,
2.168,-0.82,9.37,-2.07,-0.30,1.60,3.67,
2.169,-0.82,9.37,-2.07,-0.16,1.90,3.45,
2.17,-0.82,9.37,-2.07,-0.03,2.17,3.26,
2.173,-0.82,9.37,-2.07,0.10,2.39,3.10,
2.173,-3.52,7.90,-2.07,0.10,2.39,3.10,
2.18,-3.52,7.90,-2.07,0.21,2.54,2.98,
2.181,-3.52,7.90,-2.07,0.32,2.64,2.87,
2.181,-5.35,6.16,-1.89,0.32,2.64,2.87,
2.181,-5.35,6.16,-1.89,0.40,2.71,2.79,
2.185,-5.35,6.16,-1.89,0.45,2.77,2.71,
2.187,-5.78,4.76,-1.45,0.45,2.77,2.71,
2.188,-5.78,4.76,-1.45,0.49,2.84,2.64,
2.188,-5.78,4.76,-1.45,0.52,2.92,2.59,
2.189,-5.41,3.18,-0.63,0.52,2.92,2.59,
2.198,-5.41,3.18,-0.63,0.58,3.00,2.58,
2.199,-5.41,3.18,-0.63,0.69,3.04,2.61,
2.199,-4.42,0.77,0.38,0.69,3.04,2.61,
2.199,-4.42,0.77,0.38,0.79,3.03,2.69,
2.202,-4.42,0.77,0.38,0.84,3.00,2.78,
2.202,-1.62,-1.04,-0.05,0.84,3.00,2.78,
2.202,-1.62,-1.04,-0.05,0.87,2.96,2.81,
2.202,2.12,-2.40,-1.61,0.87,2.96,2.81,
2.203,2.12,-2.40,-1.61,0.90,2.91,2.75,
2.205,2.12,-2.40,-1.61,0.89,2.88,2.56,
2.209,4.17,-2.83,-3.77,0.89,2.88,2.56,
2.21,4.17,-2.83,-3.77,0.84,2.90,2.26,
2.21,4.17,-2.83,-3.77,0.77,2.96,1.86,
2.214,4.17,-2.83,-3.77,0.69,3.07,1.38,
2.214,4.79,-3.25,-4.44,0.69,3.07,1.38,
2.216,4.79,-3.25,-4.44,0.60,3.21,0.86,
2.218,4.79,-3.25,-4.44,0.54,3.36,0.36,
2.218,1.96,-2.89,-3.56,0.54,3.36,0.36,
2.22,1.96,-2.89,-3.56,0.49,3.52,-0.06,
2.222,1.96,-2.89,-3.56,0.48,3.67,-0.40,
2.222,-2.97,-1.71,-1.61,0.48,3.67,-0.40,
2.225,-2.97,-1.71,-1.61,0.49,3.80,-0.64,
2.228,-2.97,-1.71,-1.61,0.53,3.87,-0.80,
2.228,-7.58,-1.16,0.51,0.53,3.87,-0.80,
2.23,-7.58,-1.16,0.51,0.59,3.93,-0.90,
2.232,-7.58,-1.16,0.51,0.65,3.98,-0.96,
2.232,-11.03,-1.07,1.55,0.65,3.98,-0.96,
2.235,-11.03,-1.07,1.55,0.70,4.01,-0.99,
2.237,-11.03,-1.07,1.55,0.75,4.02,-1.02,
2.238,-12.93,-1.28,1.42,0.75,4.02,-1.02,
2.24,-12.93,-1.28,1.42,0.79,3.99,-1.04,
2.243,-14.15,-1.70,1.06,0.79,3.99,-1.04,
2.243,-14.15,-1.70,1.06,0.80,3.90,-1.05,
2.245,-14.15,-1.70,1.06,0.81,3.73,-1.06,
2.248,-14.72,-2.19,1.12,0.81,3.73,-1.06,
2.248,-14.72,-2.19,1.12,0.81,3.51,-1.07,
2.249,-14.72,-2.19,1.12,0.81,3.24,-1.08,
2.252,-14.72,-2.19,1.12,0.80,2.92,-1.09,
2.252,-14.46,-2.79,1.23,0.80,2.92,-1.09,
2.255,-14.46,-2.79,1.23,0.78,2.56,-1.11,
2.262,-13.68,-3.34,1.32,0.78,2.56,-1.11,
2.262,-13.68,-3.34,1.32,0.76,2.16,-1.13,
2.262,-13.68,-3.34,1.32,0.74,1.74,-1.16,
2.262,-12.46,-3.77,1.11,0.74,1.74,-1.16,
2.268,-11.00,-4.07,0.61,0.74,1.74,-1.16,
2.268,-11.00,-4.07,0.61,0.73,1.31,-1.20,
2.268,-11.00,-4.07,0.61,0.71,0.89,-1.25,
2.269,-11.00,-4.07,0.61,0.70,0.53,-1.31,
2.286,-11.00,-4.07,0.61,0.70,0.23,-1.38,
2.286,-11.00,-4.07,0.61,0.72,-0.01,-1.46,
2.286,-11.00,-4.07,0.61,0.75,-0.20,-1.54,
2.287,-9.39,-4.09,0.28,0.75,-0.20,-1.54,
2.287,-8.01,-4.02,0.01,0.75,-0.20,-1.54,
2.287,-8.01,-4.02,0.01,0.77,-0.36,-1.63,
2.287,-8.01,-4.02,0.01,0.81,-0.50,-1.72,
2.288,-8.01,-4.02,0.01,0.84,-0.61,-1.81,
2.288,-6.93,-3.95,-0.14,0.84,-0.61,-1.81,
2.288,-6.93,-3.95,-0.14,0.88,-0.69,-1.91,
2.288,-6.93,-3.95,-0.14,0.91,-0.78,-2.01,
2.288,-6.02,-4.04,-0.36,0.91,-0.78,-2.01,
2.289,-6.02,-4.04,-0.36,0.94,-0.85,-2.12,
2.294,-6.02,-4.04,-0.36,0.98,-0.90,-2.22,
2.295,-5.63,-4.20,-0.34,0.98,-0.90,-2.22,
2.305,-5.63,-4.20,-0.34,1.02,-0.94,-2.32,
2.306,-5.52,-4.31,-0.29,1.02,-0.94,-2.32,
2.306,-5.52,-4.31,-0.29,1.05,-0.99,-2.42,
2.306,-5.52,-4.31,-0.29,1.08,-1.07,-2.51,
2.306,-5.52,-4.31,-0.29,1.10,-1.15,-2.61,
2.306,-5.34,-4.47,-0.19,1.10,-1.15,-2.61,
2.307,-5.34,-4.47,-0.19,1.14,-1.21,-2.71,
2.307,-5.34,-4.47,-0.19,1.17,-1.28,-2.81,
2.307,-5.50,-4.61,-0.17,1.17,-1.28,-2.81,
2.311,-5.50,-4.61,-0.17,1.20,-1.35,-2.91,
2.312,-5.50,-4.61,-0.17,1.23,-1.39,-3.01,
2.312,-5.10,-4.66,-0.26,1.23,-1.39,-3.01,
2.315,-5.10,-4.66,-0.26,1.26,-1.40,-3.12,
2.318,-5.06,-4.66,-0.29,1.26,-1.40,-3.12,
2.318,-5.06,-4.66,-0.29,1.30,-1.38,-3.22,
2.319,-5.06,-4.66,-0.29,1.34,-1.38,-3.31,
2.322,-5.05,-4.65,-0.32,1.34,-1.38,-3.31,
2.323,-5.05,-4.65,-0.32,1.38,-1.37,-3.40,
2.325,-5.05,-4.65,-0.32,1.42,-1.35,-3.49,
2.328,-5.17,-4.54,-0.33,1.42,-1.35,-3.49,
2.328,-5.17,-4.54,-0.33,1.46,-1.30,-3.57,
2.329,-5.17,-4.54,-0.33,1.51,-1.25,-3.65,
2.332,-5.17,-4.54,-0.33,1.55,-1.21,-3.73,
2.332,-5.26,-4.34,-0.39,1.55,-1.21,-3.73,
2.334,-5.26,-4.34,-0.39,1.59,-1.19,-3.81,
2.338,-5.26,-4.34,-0.39,1.63,-1.16,-3.88,
2.338,-5.48,-4.07,-0.40,1.63,-1.16,-3.88,
2.34,-5.48,-4.07,-0.40,1.66,-1.15,-3.95,
2.342,-5.48,-4.07,-0.40,1.69,-1.14,-4.02,
2.342,-5.63,-3.79,-0.59,1.69,-1.14,-4.02,
2.345,-5.63,-3.79,-0.59,1.71,-1.13,-4.08,
2.348,-5.63,-3.79,-0.59,1.74,-1.14,-4.14,
2.348,-5.95,-3.44,-0.63,1.74,-1.14,-4.14,
2.35,-5.95,-3.44,-0.63,1.76,-1.16,-4.20,
2.353,-5.95,-3.44,-0.63,1.78,-1.17,-4.25,
2.354,-6.06,-3.17,-0.56,1.78,-1.17,-4.25,
2.354,-6.06,-3.17,-0.56,1.80,-1.17,-4.30,
2.357,-6.06,-3.17,-0.56,1.82,-1.17,-4.35,
2.358,-5.82,-2.95,-0.49,1.82,-1.17,-4.35,
2.369,-5.82,-2.95,-0.49,1.85,-1.15,-4.41,
2.37,-5.82,-2.95,-0.49,1.87,-1.13,-4.46,
2.37,-5.44,-2.70,-0.44,1.87,-1.13,-4.46,
2.37,-5.44,-2.70,-0.44,1.90,-1.12,-4.51,
2.37,-5.01,-2.53,-0.51,1.90,-1.12,-4.51,
2.371,-5.01,-2.53,-0.51,1.92,-1.10,-4.56,
2.371,-5.01,-2.53,-0.51,1.94,-1.08,-4.61,
2.373,-4.46,-2.41,-0.68,1.94,-1.08,-4.61,
2.373,-4.46,-2.41,-0.68,1.96,-1.04,-4.66,
2.38,-4.46,-2.41,-0.68,1.99,-1.01,-4.71,
2.381,-4.46,-2.41,-0.68,2.01,-0.97,-4.76,
2.381,-4.02,-2.31,-0.72,2.01,-0.97,-4.76,
2.381,-4.02,-2.31,-0.72,2.03,-0.92,-4.81,
2.383,-3.79,-2.26,-0.72,2.03,-0.92,-4.81,
2.383,-3.79,-2.26,-0.72,2.05,-0.89,-4.87,
2.384,-3.79,-2.26,-0.72,2.06,-0.86,-4.93,
2.387,-3.79,-2.26,-0.72,2.08,-0.83,-4.99,
2.387,-3.70,-2.22,-0.79,2.08,-0.83,-4.99,
2.391,-3.70,-2.22,-0.79,2.09,-0.80,-5.05,
2.392,-3.70,-2.22,-0.79,2.10,-0.78,-5.11,
2.392,-3.68,-2.18,-0.68,2.10,-0.78,-5.11,
2.397,-3.68,-2.18,-0.68,2.11,-0.78,-5.17,
2.397,-3.64,-2.10,-0.50,2.11,-0.78,-5.17,
2.397,-3.64,-2.10,-0.50,2.12,-0.79,-5.24,
2.399,-3.64,-2.10,-0.50,2.12,-0.79,-5.30,
2.401,-3.64,-2.10,-0.50,2.13,-0.80,-5.36,
2.401,-3.54,-2.02,-0.23,2.13,-0.80,-5.36,
2.404,-3.54,-2.02,-0.23,2.14,-0.81,-5.42,
2.406,-3.54,-2.02,-0.23,2.14,-0.83,-5.48,
2.406,-3.38,-1.98,0.16,2.14,-0.83,-5.48,
2.409,-3.38,-1.98,0.16,2.15,-0.86,-5.53,
2.411,-3.38,-1.98,0.16,2.16,-0.88,-5.59,
2.411,-3.16,-2.01,0.51,2.16,-0.88,-5.59,
2.413,-3.16,-2.01,0.51,2.17,-0.91,-5.64,
2.418,-3.16,-2.01,0.51,2.18,-0.94,-5.69,
2.418,-2.85,-2.11,0.75,2.18,-0.94,-5.69,
2.418,-2.85,-2.11,0.75,2.19,-0.96,-5.75,
2.421,-2.85,-2.11,0.75,2.20,-0.99,-5.80,
2.421,-2.43,-2.16,0.81,2.20,-0.99,-5.80,
2.423,-2.43,-2.16,0.81,2.20,-1.01,-5.86,
2.426,-1.95,-2.15,0.72,2.20,-1.01,-5.86,
2.427,-1.95,-2.15,0.72,2.21,-1.04,-5.92,
2.428,-1.95,-2.15,0.72,2.21,-1.05,-5.98,
2.432,-1.95,-2.15,0.72,2.21,-1.07,-6.05,
2.432,-1.52,-2.01,0.60,2.21,-1.07,-6.05,
2.433,-1.52,-2.01,0.60,2.20,-1.09,-6.11,
2.436,-1.52,-2.01,0.60,2.20,-1.12,-6.18,
2.436,-1.16,-1.71,0.54,2.20,-1.12,-6.18,
2.438,-1.16,-1.71,0.54,2.20,-1.15,-6.24,
2.441,-1.16,-1.71,0.54,2.20,-1.18,-6.31,
2.443,-0.81,-1.30,0.57,2.20,-1.18,-6.31,
2.443,-0.81,-1.30,0.57,2.20,-1.20,-6.37,
2.446,-0.81,-1.30,0.57,2.21,-1.21,-6.43,
2.446,-0.44,-0.80,0.67,2.21,-1.21,-6.43,
2.448,-0.44,-0.80,0.67,2.21,-1.22,-6.49,
2.451,-0.44,-0.80,0.67,2.21,-1.23,-6.55,
2.451,-0.08,-0.25,0.81,2.21,-1.23,-6.55,
2.453,-0.08,-0.25,0.81,2.22,-1.24,-6.60,
2.456,-0.08,-0.25,0.81,2.23,-1.24,-6.65,
2.458,0.32,0.34,0.98,2.23,-1.24,-6.65,
2.458,0.32,0.34,0.98,2.24,-1.25,-6.70,
2.472,0.72,0.98,1.09,2.24,-1.25,-6.70,
2.472,0.72,0.98,1.09,2.24,-1.27,-6.74,
2.472,0.72,0.98,1.09,2.25,-1.29,-6.77,
2.472,0.72,0.98,1.09,2.25,-1.32,-6.81,
2.472,1.12,1.66,1.14,2.25,-1.32,-6.81,
2.473,1.12,1.66,1.14,2.25,-1.37,-6.83,
2.473,1.12,1.66,1.14,2.24,-1.43,-6.86,
2.473,1.74,2.48,0.97,2.24,-1.43,-6.86,
2.473,1.74,2.48,0.97,2.23,-1.52,-6.89,
2.478,1.95,3.26,0.86,2.23,-1.52,-6.89,
2.479,1.95,3.26,0.86,2.21,-1.63,-6.90,
2.479,1.95,3.26,0.86,2.20,-1.73,-6.91,
2.481,1.95,3.26,0.86,2.18,-1.81,-6.92,
2.481,1.99,4.15,0.88,2.18,-1.81,-6.92,
2.483,1.99,4.15,0.88,2.17,-1.85,-6.93,
2.486,2.48,5.49,0.90,2.17,-1.85,-6.93,
2.486,2.48,5.49,0.90,2.16,-1.89,-6.95,
2.488,2.48,5.49,0.90,2.15,-1.93,-6.97,
2.49,2.48,5.49,0.90,2.15,-1.98,-6.98,
2.491,3.15,7.08,0.85,2.15,-1.98,-6.98,
2.493,3.15,7.08,0.85,2.14,-2.03,-6.98,
2.496,3.65,8.68,0.84,2.14,-2.03,-6.98,
2.496,3.65,8.68,0.84,2.13,-2.10,-6.98,
2.498,3.65,8.68,0.84,2.11,-2.16,-6.97,
2.5,3.65,8.68,0.84,2.09,-2.22,-6.94,
2.501,3.97,9.88,0.93,2.09,-2.22,-6.94,
2.502,3.97,9.88,0.93,2.07,-2.30,-6.91,
2.505,3.97,9.88,0.93,2.04,-2.38,-6.88,
2.505,4.45,10.75,1.08,2.04,-2.38,-6.88,
2.507,4.45,10.75,1.08,2.02,-2.45,-6.84,
2.51,4.45,10.75,1.08,1.99,-2.52,-6.79,
2.511,4.91,11.28,1.32,1.99,-2.52,-6.79,
2.514,4.91,11.28,1.32,1.95,-2.59,-6.73,
2.515,4.91,11.28,1.32,1.92,-2.65,-6.66,
2.516,5.40,11.25,1.63,1.92,-2.65,-6.66,
2.518,5.40,11.25,1.63,1.88,-2.73,-6.58,
2.52,5.40,11.25,1.63,1.83,-2.80,-6.49,
2.52,6.23,10.95,1.86,1.83,-2.80,-6.49,
2.524,6.23,10.95,1.86,1.78,-2.86,-6.41,
2.528,6.23,10.95,1.86,1.72,-2.93,-6.32,
2.528,7.32,11.05,1.89,1.72,-2.93,-6.32,
2.528,7.32,11.05,1.89,1.65,-3.02,-6.22,
2.53,7.32,11.05,1.89,1.57,-3.09,-6.12,
2.53,8.33,11.69,1.28,1.57,-3.09,-6.12,
2.532,8.33,11.69,1.28,1.47,-3.17,-6.02,
2.535,8.33,11.69,1.28,1.35,-3.26,-5.91,
2.535,9.22,12.94,0.19,1.35,-3.26,-5.91,
2.538,9.22,12.94,0.19,1.24,-3.30,-5.77,
2.54,8.72,13.63,-0.67,1.24,-3.30,-5.77,
2.54,8.72,13.63,-0.67,1.14,-3.22,-5.59,
2.544,8.72,13.63,-0.67,1.06,-3.02,-5.37,
2.545,8.72,13.63,-0.67,1.00,-2.84,-5.14,
2.546,8.91,13.63,-0.31,1.00,-2.84,-5.14,
2.552,8.91,13.63,-0.31,0.94,-2.77,-4.89,
2.553,8.91,13.63,-0.31,0.88,-2.76,-4.65,
2.553,9.65,11.99,0.89,0.88,-2.76,-4.65,
2.553,9.65,11.99,0.89,0.85,-2.73,-4.40,
2.555,10.32,8.91,3.10,0.85,-2.73,-4.40,
2.555,10.32,8.91,3.10,0.84,-2.68,-4.16,
2.558,10.32,8.91,3.10,0.86,-2.66,-3.93,
2.561,11.40,5.49,5.53,0.86,-2.66,-3.93,
2.563,11.40,5.49,5.53,0.89,-2.68,-3.71,
2.564,11.40,5.49,5.53,0.88,-2.69,-3.46,
2.567,13.82,3.16,5.11,0.88,-2.69,-3.46,
2.567,13.82,3.16,5.11,0.87,-2.71,-3.20,
2.568,13.82,3.16,5.11,0.89,-2.70,-3.01,
2.57,13.82,3.16,5.11,0.74,-2.61,-2.81,
2.57,16.84,2.04,1.57,0.74,-2.61,-2.81,
2.573,16.84,2.04,1.57,0.64,-2.55,-2.59,
2.575,17.77,1.13,-0.58,0.64,-2.55,-2.59,
2.58,17.77,1.13,-0.58,0.50,-2.46,-2.32,
2.58,17.77,1.13,-0.58,0.34,-2.37,-2.00,
2.58,17.00,0.39,-0.62,0.34,-2.37,-2.00,
2.581,17.00,0.39,-0.62,0.21,-2.31,-1.63,
2.582,17.00,0.39,-0.62,0.09,-2.26,-1.19,
2.584,15.42,0.12,0.67,0.09,-2.26,-1.19,
2.585,15.42,0.12,0.67,-0.02,-2.21,-0.70,
2.587,15.42,0.12,0.67,-0.14,-2.14,-0.12,
2.59,14.68,0.22,1.71,-0.14,-2.14,-0.12,
2.59,14.68,0.22,1.71,-0.24,-2.08,0.51,
2.595,14.68,0.22,1.71,-0.30,-2.00,1.16,
2.596,14.68,0.22,1.71,-0.37,-1.89,1.77,
2.596,15.68,0.22,0.57,-0.37,-1.89,1.77,
2.597,15.68,0.22,0.57,-0.41,-1.75,2.26,
2.6,17.74,0.15,-0.92,-0.41,-1.75,2.26,
2.6,17.74,0.15,-0.92,-0.44,-1.53,2.55,
2.602,17.74,0.15,-0.92,-0.48,-1.27,2.68,
2.605,17.71,0.75,-0.86,-0.48,-1.27,2.68,
2.605,17.71,0.75,-0.86,-0.51,-1.03,2.70,
2.611,17.71,0.75,-0.86,-0.54,-0.86,2.69,
2.611,17.71,0.75,-0.86,-0.55,-0.79,2.72,
2.611,15.65,1.50,-0.13,-0.55,-0.79,2.72,
2.613,15.65,1.50,-0.13,-0.56,-0.79,2.81,
2.614,15.65,1.50,-0.13,-0.55,-0.81,2.96,
2.615,13.86,1.31,0.18,-0.55,-0.81,2.96,
2.617,13.86,1.31,0.18,-0.53,-0.81,3.13,
2.619,13.49,0.17,-0.09,-0.53,-0.81,3.13,
2.62,13.49,0.17,-0.09,-0.50,-0.74,3.29,
2.622,13.49,0.17,-0.09,-0.45,-0.63,3.43,
2.624,13.49,0.17,-0.09,-0.41,-0.50,3.53,
2.634,13.65,-1.04,-0.23,-0.41,-0.50,3.53,
2.634,13.65,-1.04,-0.23,-0.37,-0.37,3.62,
2.634,13.83,-1.73,-0.28,-0.37,-0.37,3.62,
2.635,13.83,-1.73,-0.28,-0.33,-0.24,3.70,
2.635,13.83,-1.73,-0.28,-0.30,-0.12,3.76,
2.635,13.83,-1.73,-0.28,-0.27,0.01,3.81,
2.635,13.94,-1.88,-0.56,-0.27,0.01,3.81,
2.636,13.94,-1.88,-0.56,-0.25,0.14,3.84,
2.639,13.94,-1.88,-0.56,-0.22,0.28,3.86,
2.639,14.02,-1.71,-0.76,-0.22,0.28,3.86,
2.641,14.02,-1.71,-0.76,-0.17,0.42,3.83,
2.65,14.02,-1.71,-0.76,0.03,0.56,3.69,
2.651,13.70,-1.47,-1.50,0.03,0.56,3.69,
2.651,13.70,-1.47,-1.50,0.12,0.80,3.46,
2.652,13.70,-1.47,-1.50,0.03,1.14,3.15,
2.652,11.59,0.70,-5.93,0.03,1.14,3.15,
2.653,11.59,0.70,-5.93,-0.06,1.51,2.81,
2.654,11.59,0.70,-5.93,-0.16,1.88,2.43,
2.654,7.42,2.90,-7.17,-0.16,1.88,2.43,
2.657,7.42,2.90,-7.17,-0.16,2.22,2.03,
2.669,0.92,5.60,-6.72,-0.16,2.22,2.03,
2.67,0.92,5.60,-6.72,-0.10,2.56,1.61,
2.67,0.92,5.60,-6.72,-0.09,2.98,1.17,
2.67,-1.47,9.48,-8.63,-0.09,2.98,1.17,
2.67,-1.47,9.48,-8.63,-0.16,3.44,0.64,
2.67,-1.47,9.48,-8.63,-0.22,3.85,0.06,
2.67,-1.47,9.48,-8.63,-0.28,4.19,-0.45,
2.671,-3.43,13.84,-10.24,-0.28,4.19,-0.45,
2.672,-3.43,13.84,-10.24,-0.40,4.41,-0.77,
2.674,-3.43,13.84,-10.24,-0.29,4.22,-0.81,
2.674,-8.87,18.47,-5.23,-0.29,4.22,-0.81,
2.676,-8.87,18.47,-5.23,0.06,3.59,-0.60,
2.681,-12.88,22.00,-0.29,0.06,3.59,-0.60,
2.682,-12.88,22.00,-0.29,0.48,2.61,-0.24,
2.682,-12.88,22.00,-0.29,1.02,1.23,0.26,
2.684,-12.88,22.00,-0.29,1.36,-0.38,0.90,
2.684,-15.53,24.28,-2.62,1.36,-0.38,0.90,
2.686,-15.53,24.28,-2.62,1.12,-2.00,1.66,
2.689,-15.53,24.28,-2.62,0.23,-3.52,2.63,
2.689,-19.52,26.26,-9.65,0.23,-3.52,2.63,
2.691,-19.52,26.26,-9.65,-0.96,-4.95,3.89,
2.694,-19.52,26.26,-9.65,-1.97,-6.12,5.40,
2.694,-23.61,27.65,-5.17,-1.97,-6.12,5.40,
2.696,-23.61,27.65,-5.17,-2.61,-6.73,6.89,
2.699,-23.61,27.65,-5.17,-2.83,-6.52,7.95,
2.7,-11.67,22.55,6.42,-2.83,-6.52,7.95,
2.701,-11.67,22.55,6.42,-2.71,-5.51,8.39,
2.704,-11.67,22.55,6.42,-2.26,-4.15,8.32,
2.704,7.27,8.91,19.57,-2.26,-4.15,8.32,
2.706,7.27,8.91,19.57,-1.46,-2.95,7.86,
2.709,7.27,8.91,19.57,-0.57,-2.20,7.16,
2.709,20.75,-4.23,22.70,-0.57,-2.20,7.16,
2.713,20.75,-4.23,22.70,0.22,-1.88,6.40,
2.714,20.75,-4.23,22.70,0.79,-1.87,5.78,
2.716,20.83,-10.58,14.77,0.79,-1.87,5.78,
2.717,20.83,-10.58,14.77,1.14,-2.03,5.33,
2.719,16.62,-13.54,3.10,1.14,-2.03,5.33,
2.72,16.62,-13.54,3.10,1.22,-2.13,5.03,
2.721,16.62,-13.54,3.10,1.10,-2.06,4.87,
2.724,16.62,-13.54,3.10,0.75,-1.74,4.80,
2.724,13.06,-15.84,-10.13,0.75,-1.74,4.80,
2.726,13.06,-15.84,-10.13,0.37,-1.21,4.78,
2.73,13.06,-15.84,-10.13,0.08,-0.60,4.77,
2.73,12.39,-17.33,-12.20,0.08,-0.60,4.77,
2.732,12.39,-17.33,-12.20,-0.13,0.01,4.72,
2.734,12.39,-17.33,-12.20,-0.24,0.51,4.60,
2.734,15.54,-17.10,-5.20,-0.24,0.51,4.60,
2.736,15.54,-17.10,-5.20,-0.26,0.77,4.35,
2.739,19.88,-14.41,1.73,-0.26,0.77,4.35,
2.741,19.88,-14.41,1.73,-0.21,0.96,3.95,
2.741,19.88,-14.41,1.73,-0.11,1.16,3.45,
2.744,22.04,-9.57,6.18,-0.11,1.16,3.45,
2.746,22.04,-9.57,6.18,-0.00,1.34,2.91,
2.746,22.04,-9.57,6.18,0.10,1.46,2.42,
2.749,22.04,-9.57,6.18,0.17,1.54,2.07,
2.749,15.85,-2.84,5.91,0.17,1.54,2.07,
2.751,15.85,-2.84,5.91,0.22,1.57,1.86,
2.754,15.85,-2.84,5.91,0.25,1.58,1.74,
2.754,9.09,1.98,3.20,0.25,1.58,1.74,
2.756,9.09,1.98,3.20,0.29,1.61,1.64,
2.762,5.25,4.41,1.54,0.29,1.61,1.64,
2.762,5.25,4.41,1.54,0.32,1.62,1.56,
2.763,5.25,4.41,1.54,0.36,1.60,1.48,
2.764,5.25,4.41,1.54,0.41,1.56,1.42,
2.764,2.79,4.68,1.58,0.41,1.56,1.42,
2.777,2.79,4.68,1.58,0.47,1.50,1.37,
2.778,2.79,4.68,1.58,0.53,1.43,1.34,
2.778,0.93,3.42,1.30,0.53,1.43,1.34,
2.778,0.93,3.42,1.30,0.55,1.35,1.35,
2.778,0.93,3.42,1.30,0.55,1.27,1.38,
2.778,-1.46,1.66,-0.44,0.55,1.27,1.38,
2.778,-1.46,1.66,-0.44,0.51,1.16,1.44,
2.782,-3.55,0.20,-1.23,0.51,1.16,1.44,
2.784,-3.55,0.20,-1.23,0.45,1.02,1.50,
2.784,-3.55,0.20,-1.23,0.37,0.84,1.57,
2.784,-3.55,0.20,-1.23,0.29,0.62,1.63,
2.785,-4.81,-0.53,-0.86,0.29,0.62,1.63,
2.785,-4.81,-0.53,-0.86,0.21,0.39,1.69,
2.788,-4.67,-0.81,0.00,0.21,0.39,1.69,
2.789,-4.67,-0.81,0.00,0.16,0.20,1.74,
2.8,-4.67,-0.81,0.00,0.13,0.05,1.79,
2.8,-4.67,-0.81,0.00,0.12,-0.07,1.83,
2.8,-2.60,-1.16,0.96,0.12,-0.07,1.83,
2.8,-2.60,-1.16,0.96,0.12,-0.16,1.84,
2.801,-2.60,-1.16,0.96,0.13,-0.21,1.84,
2.801,0.22,-1.31,1.29,0.13,-0.21,1.84,
2.801,0.22,-1.31,1.29,0.14,-0.24,1.82,
2.804,0.22,-1.31,1.29,0.15,-0.24,1.77,
2.805,2.83,-1.21,0.73,0.15,-0.24,1.77,
2.806,2.83,-1.21,0.73,0.16,-0.22,1.70,
2.808,2.83,-1.21,0.73,0.17,-0.19,1.61,
2.808,4.82,-0.95,0.19,0.17,-0.19,1.61,
2.81,4.82,-0.95,0.19,0.18,-0.15,1.51,
2.813,4.82,-0.95,0.19,0.20,-0.10,1.40,
2.813,6.09,-0.79,0.09,0.20,-0.10,1.40,
2.815,6.09,-0.79,0.09,0.21,-0.05,1.28,
2.818,6.09,-0.79,0.09,0.23,0.00,1.16,
2.818,6.45,-0.82,0.32,0.23,0.00,1.16,
2.82,6.45,-0.82,0.32,0.25,0.07,1.03,
2.823,6.45,-0.82,0.32,0.28,0.14,0.92,
2.823,5.88,-0.97,0.51,0.28,0.14,0.92,
2.825,5.88,-0.97,0.51,0.30,0.21,0.81,
2.829,4.52,-1.07,0.67,0.30,0.21,0.81,
2.831,4.52,-1.07,0.67,0.32,0.28,0.72,
2.832,4.52,-1.07,0.67,0.34,0.34,0.64,
2.833,4.52,-1.07,0.67,0.35,0.39,0.57,
2.833,2.95,-0.93,0.70,0.35,0.39,0.57,
2.835,2.95,-0.93,0.70,0.36,0.42,0.53,
2.837,1.58,-0.57,0.32,0.36,0.42,0.53,
2.837,1.58,-0.57,0.32,0.37,0.44,0.49,
2.841,1.58,-0.57,0.32,0.37,0.44,0.47,
2.843,0.62,-0.26,-0.05,0.37,0.44,0.47,
2.843,0.62,-0.26,-0.05,0.36,0.43,0.46,
2.849,0.62,-0.26,-0.05,0.35,0.40,0.46,
2.85,0.62,-0.26,-0.05,0.34,0.36,0.46,
2.85,0.03,-0.09,-0.09,0.34,0.36,0.46,
2.851,0.03,-0.09,-0.09,0.33,0.33,0.46,
2.852,-0.15,-0.09,0.13,0.33,0.33,0.46,
2.853,-0.15,-0.09,0.13,0.33,0.30,0.46,
2.855,-0.15,-0.09,0.13,0.33,0.28,0.46,
2.858,-0.15,-0.09,0.13,0.33,0.26,0.46,
2.858,0.15,-0.27,0.51,0.33,0.26,0.46,
2.863,0.15,-0.27,0.51,0.33,0.24,0.45,
2.864,0.15,-0.27,0.51,0.34,0.22,0.42,
2.864,0.95,-0.56,0.89,0.34,0.22,0.42,
2.874,0.95,-0.56,0.89,0.35,0.19,0.39,
2.874,0.95,-0.56,0.89,0.36,0.17,0.36,
2.874,1.35,-0.70,1.05,0.36,0.17,0.36,
2.875,1.35,-0.70,1.05,0.36,0.15,0.34,
2.875,1.35,-0.70,1.05,0.37,0.14,0.31,
2.875,1.51,-0.59,0.86,0.37,0.14,0.31,
2.875,1.51,-0.59,0.86,0.39,0.16,0.28,
2.878,1.51,-0.59,0.86,0.40,0.20,0.26,
2.879,1.55,-0.32,0.51,0.40,0.20,0.26,
2.882,1.55,-0.32,0.51,0.42,0.26,0.23,
2.882,1.55,-0.32,0.51,0.43,0.28,0.21,
2.883,1.46,-0.27,0.39,0.43,0.28,0.21,
2.884,1.46,-0.27,0.39,0.43,0.29,0.19,
2.887,0.83,-0.23,-0.03,0.43,0.29,0.19,
2.888,0.83,-0.23,-0.03,0.44,0.31,0.17,
2.889,0.83,-0.23,-0.03,0.45,0.32,0.17,
2.892,0.83,-0.23,-0.03,0.45,0.32,0.17,
2.892,-0.22,-0.30,-0.50,0.45,0.32,0.17,
2.894,-0.22,-0.30,-0.50,0.45,0.33,0.19,
2.899,-0.84,-0.27,-0.80,0.45,0.33,0.19,
2.899,-0.84,-0.27,-0.80,0.44,0.34,0.21,
2.899,-0.84,-0.27,-0.80,0.43,0.34,0.23,
2.902,-0.84,-0.27,-0.80,0.42,0.32,0.24,
2.902,-0.72,-0.09,-0.69,0.42,0.32,0.24,
2.904,-0.72,-0.09,-0.69,0.41,0.31,0.24,
2.908,-0.72,-0.09,-0.69,0.40,0.29,0.25,
2.908,-0.64,0.20,-0.47,0.40,0.29,0.25,
2.909,-0.64,0.20,-0.47,0.39,0.28,0.26,
2.912,-0.64,0.20,-0.47,0.39,0.29,0.27,
2.913,-0.70,0.48,-0.56,0.39,0.29,0.27,
2.914,-0.70,0.48,-0.56,0.38,0.30,0.28,
2.917,-0.70,0.48,-0.56,0.37,0.32,0.30,
2.917,-0.61,0.59,-0.71,0.37,0.32,0.30,
2.919,-0.61,0.59,-0.71,0.37,0.34,0.32,
2.922,-0.61,0.59,-0.71,0.36,0.36,0.32,
2.922,-0.44,0.66,-0.61,0.36,0.36,0.32,
2.924,-0.44,0.66,-0.61,0.36,0.37,0.32,
2.929,-0.44,0.66,-0.61,0.36,0.38,0.32,
2.929,-0.55,0.62,-0.47,0.36,0.38,0.32,
2.93,-0.55,0.62,-0.47,0.36,0.40,0.32,
2.931,-0.55,0.62,-0.47,0.36,0.42,0.33,
2.932,-0.83,0.60,-0.56,0.36,0.42,0.33,
2.934,-0.83,0.60,-0.56,0.35,0.44,0.33,
2.936,-0.83,0.60,-0.56,0.34,0.46,0.35,
2.937,-1.25,0.70,-0.50,0.34,0.46,0.35,
2.939,-1.25,0.70,-0.50,0.33,0.46,0.37,
2.942,-1.25,0.70,-0.50,0.32,0.47,0.40,
2.942,-1.69,0.81,-0.41,0.32,0.47,0.40,
2.948,-1.69,0.81,-0.41,0.32,0.48,0.43,
2.948,-1.69,0.81,-0.41,0.31,0.50,0.46,
2.949,-1.96,1.00,-0.43,0.31,0.50,0.46,
2.95,-1.96,1.00,-0.43,0.30,0.51,0.49,
2.953,-1.96,1.00,-0.43,0.29,0.51,0.52,
2.954,-2.13,0.95,-0.23,0.29,0.51,0.52,
2.955,-2.13,0.95,-0.23,0.29,0.50,0.56,
2.981,-2.13,0.95,-0.23,0.28,0.49,0.59,
2.981,-2.13,0.88,-0.39,0.28,0.49,0.59,
2.982,-2.13,0.88,-0.39,0.26,0.47,0.62,
2.982,-2.13,0.88,-0.39,0.25,0.46,0.65,
2.982,-2.07,0.85,-0.64,0.25,0.46,0.65,
2.982,-2.07,0.85,-0.64,0.23,0.45,0.68,
2.983,-2.07,0.85,-0.64,0.21,0.45,0.72,
2.983,-1.98,0.95,-0.74,0.21,0.45,0.72,
2.983,-1.98,0.95,-0.74,0.20,0.43,0.75,
2.983,-1.82,0.97,-0.70,0.20,0.43,0.75,
2.984,-1.82,0.97,-0.70,0.19,0.42,0.78,
2.984,-1.82,0.97,-0.70,0.17,0.41,0.81,
2.984,-1.82,0.97,-0.70,0.16,0.42,0.83,
2.984,-1.61,1.17,-0.93,0.16,0.42,0.83,
2.985,-1.61,1.17,-0.93,0.15,0.42,0.86,
2.985,-1.61,1.17,-0.93,0.13,0.40,0.89,
2.985,-1.65,1.04,-0.97,0.13,0.40,0.89,
2.992,-1.65,1.04,-0.97,0.11,0.37,0.92,
2.993,-1.65,1.04,-0.97,0.08,0.34,0.95,
2.994,-1.97,0.81,-0.98,0.08,0.34,0.95,
2.994,-1.97,0.81,-0.98,0.06,0.33,0.99,
2.994,-2.65,0.74,-1.24,0.06,0.33,0.99,
2.995,-2.65,0.74,-1.24,0.05,0.37,1.03,
2.995,-2.65,0.74,-1.24,0.04,0.42,1.08,
3.007,-3.02,0.86,-1.46,0.04,0.42,1.08,
3.007,-3.02,0.86,-1.46,0.05,0.50,1.14,
3.007,-3.02,0.86,-1.46,0.06,0.60,1.20,
3.008,-2.32,0.94,-1.52,0.06,0.60,1.20,
3.008,-2.32,0.94,-1.52,0.05,0.64,1.25,
3.008,-2.32,0.94,-1.52,0.03,0.63,1.29,
3.008,-1.35,0.54,-0.90,0.03,0.63,1.29,
3.008,-1.35,0.54,-0.90,0.00,0.58,1.31,
3.008,-1.35,0.54,-0.90,-0.02,0.51,1.32,
3.011,-0.97,0.17,-0.35,-0.02,0.51,1.32,
3.012,-0.97,0.17,-0.35,-0.03,0.46,1.32,
3.016,-0.97,0.17,-0.35,-0.05,0.45,1.33,
3.016,-0.97,0.17,-0.35,-0.06,0.47,1.35,
3.016,-1.26,0.10,-0.29,-0.06,0.47,1.35,
3.018,-1.26,0.10,-0.29,-0.07,0.50,1.37,
3.02,-1.26,0.10,-0.29,-0.09,0.53,1.40,
3.021,-1.56,0.35,-0.16,-0.09,0.53,1.40,
3.023,-1.56,0.35,-0.16,-0.10,0.54,1.43,
3.025,-1.56,0.35,-0.16,-0.11,0.54,1.46,
3.026,-1.46,0.69,0.33,-0.11,0.54,1.46,
3.028,-1.46,0.69,0.33,-0.12,0.53,1.48,
3.031,-1.46,0.69,0.33,-0.12,0.51,1.50,
3.031,-1.20,0.90,0.32,-0.12,0.51,1.50,
3.033,-1.20,0.90,0.32,-0.13,0.48,1.51,
3.036,-1.20,0.90,0.32,-0.14,0.47,1.53,
3.036,-0.99,1.00,0.10,-0.14,0.47,1.53,
3.039,-0.99,1.00,0.10,-0.15,0.46,1.54,
3.041,-0.99,1.00,0.10,-0.15,0.47,1.55,
3.041,-0.83,1.16,0.14,-0.15,0.47,1.55,
3.043,-0.83,1.16,0.14,-0.16,0.48,1.56,
3.046,-0.71,1.30,0.25,-0.16,0.48,1.56,
3.046,-0.71,1.30,0.25,-0.16,0.49,1.57,
3.049,-0.71,1.30,0.25,-0.16,0.50,1.58,
3.051,-0.66,1.36,0.10,-0.16,0.50,1.58,
3.051,-0.66,1.36,0.10,-0.16,0.52,1.60,
3.053,-0.66,1.36,0.10,-0.17,0.54,1.61,
3.055,-0.66,1.36,0.10,-0.17,0.56,1.62,
3.056,-0.46,1.45,0.21,-0.17,0.56,1.62,
3.058,-0.46,1.45,0.21,-0.18,0.57,1.62,
3.064,-0.46,1.45,0.21,-0.18,0.60,1.63,
3.068,-0.43,1.65,0.18,-0.18,0.60,1.63,
3.068,-0.43,1.65,0.18,-0.18,0.62,1.64,
3.072,-0.43,1.65,0.18,-0.18,0.62,1.64,
3.073,-0.58,1.94,0.51,-0.18,0.62,1.64,
3.073,-0.69,2.18,0.42,-0.18,0.62,1.64,
3.073,-0.69,2.18,0.42,-0.19,0.62,1.65,
3.073,-0.69,2.18,0.42,-0.20,0.63,1.66,
3.074,-0.69,2.18,0.42,-0.21,0.65,1.66,
3.076,-0.69,2.18,0.42,-0.22,0.66,1.68,
3.077,-0.89,2.37,0.60,-0.22,0.66,1.68,
3.084,-0.89,2.37,0.60,-0.23,0.67,1.69,
3.085,-0.89,2.37,0.60,-0.24,0.68,1.71,
3.085,-1.00,2.50,0.87,-0.24,0.68,1.71,
3.085,-1.00,2.50,0.87,-0.25,0.69,1.73,
3.085,-1.09,2.63,1.06,-0.25,0.69,1.73,
3.091,-1.20,2.77,0.84,-0.25,0.69,1.73,
3.091,-1.20,2.77,0.84,-0.26,0.69,1.76,
3.091,-1.20,2.77,0.84,-0.27,0.69,1.78,
3.091,-1.20,2.77,0.84,-0.28,0.71,1.80,
3.092,-1.20,2.77,0.84,-0.30,0.72,1.82,
3.097,-1.45,2.82,0.66,-0.30,0.72,1.82,
3.097,-1.45,2.82,0.66,-0.32,0.72,1.84,
3.1,-1.45,2.82,0.66,-0.34,0.73,1.87,
3.101,-1.85,2.92,0.48,-0.34,0.73,1.87,
3.101,-1.85,2.92,0.48,-0.37,0.72,1.90,
3.102,-1.85,2.92,0.48,-0.40,0.72,1.93,
3.105,-1.85,2.92,0.48,-0.44,0.71,1.96,
3.105,-2.08,2.98,0.33,-0.44,0.71,1.96,
3.108,-2.08,2.98,0.33,-0.48,0.70,1.98,
3.11,-2.08,2.98,0.33,-0.52,0.69,2.00,
3.11,-2.43,3.32,0.21,-0.52,0.69,2.00,
3.112,-2.43,3.32,0.21,-0.55,0.67,2.03,
3.115,-2.43,3.32,0.21,-0.58,0.65,2.06,
3.115,-2.91,3.68,0.05,-0.58,0.65,2.06,
3.118,-2.91,3.68,0.05,-0.62,0.63,2.10,
3.12,-2.91,3.68,0.05,-0.66,0.61,2.14,
3.134,-3.16,3.97,-0.73,-0.66,0.61,2.14,
3.134,-3.16,3.97,-0.73,-0.69,0.61,2.19,
3.134,-3.16,3.97,-0.73,-0.71,0.63,2.24,
3.134,-3.43,4.38,-1.18,-0.71,0.63,2.24,
3.134,-3.43,4.38,-1.18,-0.72,0.66,2.30,
3.135,-3.41,4.70,-1.26,-0.72,0.66,2.30,
3.135,-3.41,4.70,-1.26,-0.73,0.70,2.35,
3.135,-3.41,4.70,-1.26,-0.74,0.75,2.40,
3.135,-3.41,4.70,-1.26,-0.75,0.80,2.45,
3.135,-3.30,4.82,-1.30,-0.75,0.80,2.45,
3.138,-3.30,4.82,-1.30,-0.78,0.84,2.49,
3.14,-3.30,4.82,-1.30,-0.81,0.88,2.54,
3.14,-3.40,4.87,-1.56,-0.81,0.88,2.54,
3.142,-3.40,4.87,-1.56,-0.85,0.93,2.58,
3.147,-3.69,5.05,-2.01,-0.85,0.93,2.58,
3.15,-3.69,5.05,-2.01,-0.90,0.98,2.62,
3.15,-3.69,5.05,-2.01,-0.95,1.03,2.66,
3.15,-4.06,5.22,-2.33,-0.95,1.03,2.66,
3.15,-4.06,5.22,-2.33,-1.00,1.06,2.69,
3.156,-4.61,5.40,-2.88,-1.00,1.06,2.69,
3.156,-4.61,5.40,-2.88,-1.03,1.10,2.73,
3.157,-4.61,5.40,-2.88,-1.06,1.14,2.78,
3.158,-4.61,5.40,-2.88,-1.10,1.18,2.83,
3.161,-4.61,5.40,-2.88,-1.14,1.22,2.89,
3.161,-4.94,6.22,-3.19,-1.14,1.22,2.89,
3.172,-4.94,6.22,-3.19,-1.17,1.25,2.95,
3.173,-4.94,6.22,-3.19,-1.21,1.30,3.00,
3.173,-4.79,7.49,-3.28,-1.21,1.30,3.00,
3.174,-4.79,7.49,-3.28,-1.25,1.34,3.03,
3.174,-4.57,9.13,-3.67,-1.25,1.34,3.03,
3.175,-4.57,9.13,-3.67,-1.30,1.38,3.05,
3.175,-4.57,9.13,-3.67,-1.34,1.41,3.08,
3.176,-4.77,11.05,-4.41,-1.34,1.41,3.08,
3.178,-4.77,11.05,-4.41,-1.39,1.44,3.11,
3.196,-5.47,12.86,-5.18,-1.39,1.44,3.11,
3.197,-5.47,12.86,-5.18,-1.42,1.47,3.14,
3.197,-5.47,12.86,-5.18,-1.45,1.53,3.18,
3.198,-5.47,12.86,-5.18,-1.46,1.64,3.22,
3.198,-5.47,12.86,-5.18,-1.46,1.78,3.26,
3.198,-6.81,14.35,-5.70,-1.46,1.78,3.26,
3.198,-6.81,14.35,-5.70,-1.46,1.95,3.29,
3.199,-6.81,14.35,-5.70,-1.46,2.10,3.32,
3.199,-8.20,15.59,-6.36,-1.46,2.10,3.32,
3.199,-8.20,15.59,-6.36,-1.45,2.24,3.34,
3.2,-9.19,16.63,-7.62,-1.45,2.24,3.34,
3.2,-9.19,16.63,-7.62,-1.45,2.34,3.34,
3.2,-10.29,18.24,-8.78,-1.45,2.34,3.34,
3.202,-10.29,18.24,-8.78,-1.47,2.39,3.33,
3.202,-10.29,18.24,-8.78,-1.50,2.40,3.31,
3.203,-10.29,18.24,-8.78,-1.52,2.38,3.31,
3.204,-10.29,18.24,-8.78,-1.53,2.32,3.34,
3.205,-11.60,20.36,-8.92,-1.53,2.32,3.34,
3.207,-11.60,20.36,-8.92,-1.53,2.24,3.39,
3.209,-11.60,20.36,-8.92,-1.52,2.17,3.47,
3.21,-12.80,22.49,-8.91,-1.52,2.17,3.47,
3.212,-12.80,22.49,-8.91,-1.49,2.12,3.58,
3.218,-13.67,23.59,-8.69,-1.49,2.12,3.58,
3.218,-13.67,23.59,-8.69,-1.44,2.09,3.69,
3.219,-13.67,23.59,-8.69,-1.41,2.06,3.82,
3.219,-13.67,23.59,-8.69,-1.38,2.03,3.99,
3.22,-15.02,23.41,-8.21,-1.38,2.03,3.99,
3.223,-15.02,23.41,-8.21,-1.37,2.02,4.20,
3.224,-15.02,23.41,-8.21,-1.36,2.02,4.42,
3.224,-14.60,21.10,-7.45,-1.36,2.02,4.42,
3.226,-14.60,21.10,-7.45,-1.37,2.02,4.60,
3.229,-14.60,21.10,-7.45,-1.38,1.98,4.73,
3.23,-11.92,17.62,-7.13,-1.38,1.98,4.73,
3.231,-11.92,17.62,-7.13,-1.38,1.92,4.81,
3.234,-11.92,17.62,-7.13,-1.38,1.83,4.85,
3.234,-10.08,14.67,-6.64,-1.38,1.83,4.85,
3.236,-10.08,14.67,-6.64,-1.38,1.75,4.87,
3.239,-8.14,12.44,-6.99,-1.38,1.75,4.87,
3.24,-8.14,12.44,-6.99,-1.40,1.65,4.87,
3.242,-8.14,12.44,-6.99,-1.42,1.54,4.87,
3.244,-5.98,10.78,-6.29,-1.42,1.54,4.87,
3.245,-5.98,10.78,-6.29,-1.44,1.41,4.88,
3.248,-5.98,10.78,-6.29,-1.44,1.28,4.90,
3.25,-3.56,9.48,-3.92,-1.44,1.28,4.90,
3.25,-3.56,9.48,-3.92,-1.40,1.15,4.91,
3.252,-3.56,9.48,-3.92,-1.33,1.04,4.88,
3.254,-1.32,8.48,-1.69,-1.33,1.04,4.88,
3.254,-1.32,8.48,-1.69,-1.24,0.94,4.83,
3.256,-1.32,8.48,-1.69,-1.12,0.85,4.73,
3.259,0.60,7.69,-0.15,-1.12,0.85,4.73,
3.26,0.60,7.69,-0.15,-0.99,0.80,4.61,
3.267,0.60,7.69,-0.15,-0.84,0.80,4.45,
3.268,0.60,7.69,-0.15,-0.68,0.87,4.28,
3.268,1.28,7.30,-0.15,-0.68,0.87,4.28,
3.269,1.28,7.30,-0.15,-0.52,1.02,4.09,
3.269,0.95,7.41,-1.76,-0.52,1.02,4.09,
3.27,0.95,7.41,-1.76,-0.38,1.23,3.89,
3.271,0.95,7.41,-1.76,-0.25,1.42,3.71,
3.275,-0.10,7.39,-3.77,-0.25,1.42,3.71,
3.276,-0.10,7.39,-3.77,-0.15,1.58,3.56,
3.277,-0.10,7.39,-3.77,-0.05,1.69,3.43,
3.293,-0.46,6.20,-4.47,-0.05,1.69,3.43,
3.293,-0.46,6.20,-4.47,0.03,1.81,3.30,
3.293,-0.46,6.20,-4.47,0.10,1.98,3.15,
3.294,0.55,4.11,-3.91,0.10,1.98,3.15,
3.294,0.55,4.11,-3.91,0.14,2.18,2.95,
3.315,0.55,4.11,-3.91,0.21,2.42,2.73,
3.315,0.41,2.01,-2.71,0.21,2.42,2.73,
3.316,0.41,2.01,-2.71,0.32,2.65,2.54,
3.316,0.41,2.01,-2.71,0.43,2.90,2.43,
3.317,-0.05,-0.02,-2.01,0.43,2.90,2.43,
3.317,-0.05,-0.02,-2.01,0.49,3.12,2.39,
3.317,-0.05,-0.02,-2.01,0.53,3.29,2.39,
3.317,1.05,-2.08,-1.49,0.53,3.29,2.39,
3.318,1.05,-2.08,-1.49,0.59,3.40,2.36,
3.318,1.05,-2.08,-1.49,0.65,3.49,2.26,
3.318,2.63,-3.40,-2.99,0.65,3.49,2.26,
3.318,2.63,-3.40,-2.99,0.68,3.56,2.07,
3.319,2.63,-3.40,-2.99,0.68,3.62,1.77,
3.319,2.63,-3.40,-2.99,0.64,3.66,1.38,
3.319,3.64,-4.15,-4.50,0.64,3.66,1.38,
3.319,3.64,-4.15,-4.50,0.58,3.69,0.93,
3.32,2.13,-4.20,-4.83,0.58,3.69,0.93,
3.32,2.13,-4.20,-4.83,0.52,3.70,0.47,
3.32,2.13,-4.20,-4.83,0.47,3.72,0.06,
3.32,-2.39,-2.84,-3.61,0.47,3.72,0.06,
3.321,-2.39,-2.84,-3.61,0.44,3.77,-0.29,
3.321,-2.39,-2.84,-3.61,0.43,3.83,-0.57,
3.325,-6.34,-2.03,-1.31,0.43,3.83,-0.57,
3.326,-6.34,-2.03,-1.31,0.46,3.90,-0.79,
3.327,-6.34,-2.03,-1.31,0.50,3.97,-0.95,
3.33,-10.39,-1.66,0.29,0.50,3.97,-0.95,
3.331,-10.39,-1.66,0.29,0.56,4.02,-1.05,
3.331,-10.39,-1.66,0.29,0.61,4.05,-1.09,
3.334,-13.74,-1.67,0.81,0.61,4.05,-1.09,
3.335,-13.74,-1.67,0.81,0.66,4.04,-1.09,
3.336,-13.74,-1.67,0.81,0.71,4.00,-1.05,
3.338,-13.74,-1.67,0.81,0.74,3.91,-0.98,
3.338,-15.85,-1.86,1.08,0.74,3.91,-0.98,
3.34,-15.85,-1.86,1.08,0.77,3.76,-0.91,
3.343,-15.85,-1.86,1.08,0.79,3.53,-0.84,
3.343,-16.47,-2.23,1.63,0.79,3.53,-0.84,
3.347,-16.47,-2.23,1.63,0.81,3.24,-0.79,
3.348,-15.85,-2.74,2.24,0.81,3.24,-0.79,
3.348,-15.85,-2.74,2.24,0.83,2.88,-0.76,
3.35,-15.85,-2.74,2.24,0.84,2.45,-0.75,
3.353,-15.85,-2.74,2.24,0.85,1.97,-0.77,
3.353,-14.18,-3.33,2.68,0.85,1.97,-0.77,
3.355,-14.18,-3.33,2.68,0.87,1.47,-0.81,
3.358,-14.18,-3.33,2.68,0.89,0.98,-0.87,
3.358,-12.47,-3.93,2.61,0.89,0.98,-0.87,
3.36,-12.47,-3.93,2.61,0.91,0.52,-0.94,
3.367,-12.47,-3.93,2.61,0.94,0.12,-1.02,
3.368,-10.89,-4.54,1.96,0.94,0.12,-1.02,
3.369,-10.89,-4.54,1.96,0.97,-0.21,-1.10,
3.374,-9.35,-4.84,1.17,0.97,-0.21,-1.10,
3.374,-9.35,-4.84,1.17,1.01,-0.47,-1.18,
3.375,-9.35,-4.84,1.17,1.06,-0.68,-1.26,
3.376,-9.35,-4.84,1.17,1.09,-0.84,-1.34,
3.376,-7.86,-4.92,0.52,1.09,-0.84,-1.34,
3.376,-7.86,-4.92,0.52,1.13,-0.98,-1.43,
3.378,-6.62,-5.02,0.11,1.13,-0.98,-1.43,
3.378,-6.62,-5.02,0.11,1.16,-1.10,-1.52,
3.388,-6.62,-5.02,0.11,1.19,-1.19,-1.63,
3.388,-6.62,-5.02,0.11,1.22,-1.27,-1.75,
3.389,-5.89,-5.14,-0.07,1.22,-1.27,-1.75,
3.389,-5.89,-5.14,-0.07,1.25,-1.34,-1.87,
3.389,-5.62,-5.14,0.10,1.25,-1.34,-1.87,
3.389,-5.62,-5.14,0.10,1.28,-1.40,-2.00,
3.39,-5.62,-5.14,0.10,1.32,-1.45,-2.13,
3.393,-5.88,-5.14,0.49,1.32,-1.45,-2.13,
3.393,-5.88,-5.14,0.49,1.35,-1.51,-2.25,
3.395,-5.88,-5.14,0.49,1.39,-1.57,-2.37,
3.403,-6.21,-4.94,0.81,1.39,-1.57,-2.37,
3.404,-6.21,-4.94,0.81,1.43,-1.63,-2.47,
3.404,-6.21,-4.94,0.81,1.47,-1.69,-2.58,
3.405,-6.24,-4.62,0.85,1.47,-1.69,-2.58,
3.405,-6.24,-4.62,0.85,1.51,-1.74,-2.68,
3.405,-6.24,-4.62,0.85,1.56,-1.78,-2.78,
3.408,-6.17,-4.57,0.75,1.56,-1.78,-2.78,
3.408,-6.17,-4.57,0.75,1.60,-1.83,-2.89,
3.41,-6.17,-4.57,0.75,1.64,-1.87,-3.00,
3.414,-6.10,-4.78,0.70,1.64,-1.87,-3.00,
3.414,-6.10,-4.78,0.70,1.67,-1.90,-3.10,
3.415,-6.10,-4.78,0.70,1.71,-1.93,-3.20,
3.417,-6.10,-4.78,0.70,1.75,-1.94,-3.30,
3.418,-6.04,-5.10,0.68,1.75,-1.94,-3.30,
3.42,-6.04,-5.10,0.68,1.78,-1.95,-3.40,
3.422,-5.98,-5.37,0.57,1.78,-1.95,-3.40,
3.423,-5.98,-5.37,0.57,1.81,-1.94,-3.49,
3.425,-5.98,-5.37,0.57,1.85,-1.93,-3.58,
3.427,-5.98,-5.37,0.57,1.88,-1.90,-3.66,
3.428,-5.92,-5.46,0.41,1.88,-1.90,-3.66,
3.43,-5.92,-5.46,0.41,1.92,-1.87,-3.74,
3.432,-5.92,-5.46,0.41,1.95,-1.83,-3.82,
3.434,-5.78,-5.35,0.32,1.95,-1.83,-3.82,
3.435,-5.78,-5.35,0.32,1.98,-1.80,-3.90,
3.438,-5.78,-5.35,0.32,2.01,-1.77,-3.97,
3.439,-5.73,-5.17,0.29,2.01,-1.77,-3.97,
3.44,-5.73,-5.17,0.29,2.03,-1.74,-4.04,
3.443,-5.72,-4.96,0.32,2.03,-1.74,-4.04,
3.443,-5.72,-4.96,0.32,2.06,-1.71,-4.12,
3.445,-5.72,-4.96,0.32,2.09,-1.68,-4.19,
3.45,-5.87,-4.74,0.29,2.09,-1.68,-4.19,
3.452,-5.87,-4.74,0.29,2.11,-1.66,-4.26,
3.453,-5.87,-4.74,0.29,2.14,-1.62,-4.33,
3.469,-5.87,-4.74,0.29,2.17,-1.59,-4.40,
3.469,-5.89,-4.54,0.28,2.17,-1.59,-4.40,
3.469,-5.89,-4.54,0.28,2.20,-1.55,-4.46,
3.469,-5.84,-4.37,0.27,2.20,-1.55,-4.46,
3.47,-5.84,-4.37,0.27,2.23,-1.52,-4.52,
3.47,-5.84,-4.37,0.27,2.25,-1.48,-4.58,
3.47,-5.72,-4.25,0.18,2.25,-1.48,-4.58,
3.47,-5.72,-4.25,0.18,2.28,-1.45,-4.64,
3.47,-5.72,-4.25,0.18,2.31,-1.42,-4.70,
3.47,-5.53,-4.14,0.07,2.31,-1.42,-4.70,
3.471,-5.53,-4.14,0.07,2.33,-1.38,-4.76,
3.471,-5.53,-4.14,0.07,2.35,-1.35,-4.82,
3.476,-5.53,-4.14,0.07,2.37,-1.31,-4.87,
3.477,-5.35,-4.08,0.02,2.37,-1.31,-4.87,
3.478,-5.35,-4.08,0.02,2.39,-1.28,-4.93,
3.478,-5.16,-4.03,0.02,2.39,-1.28,-4.93,
3.483,-5.16,-4.03,0.02,2.40,-1.24,-4.99,
3.483,-5.16,-4.03,0.02,2.42,-1.21,-5.05,
3.483,-4.88,-4.01,0.06,2.42,-1.21,-5.05,
3.484,-4.88,-4.01,0.06,2.43,-1.17,-5.11,
3.505,-4.88,-4.01,0.06,2.45,-1.12,-5.17,
3.507,-4.88,-4.01,0.06,2.45,-1.07,-5.23,
3.507,-4.42,-3.94,0.13,2.45,-1.07,-5.23,
3.508,-4.42,-3.94,0.13,2.47,-1.02,-5.30,
3.508,-4.42,-3.94,0.13,2.48,-0.97,-5.36,
3.508,-3.96,-3.87,0.26,2.48,-0.97,-5.36,
3.509,-3.96,-3.87,0.26,2.49,-0.91,-5.43,
3.509,-3.48,-3.78,0.53,2.49,-0.91,-5.43,
3.51,-3.48,-3.78,0.53,2.50,-0.86,-5.50,
3.51,-3.48,-3.78,0.53,2.51,-0.82,-5.57,
3.51,-3.48,-3.78,0.53,2.51,-0.78,-5.64,
3.511,-3.12,-3.72,0.96,2.51,-0.78,-5.64,
3.511,-3.12,-3.72,0.96,2.53,-0.76,-5.71,
3.512,-3.12,-3.72,0.96,2.54,-0.73,-5.78,
3.512,-2.86,-3.64,1.42,2.54,-0.73,-5.78,
3.514,-2.86,-3.64,1.42,2.55,-0.71,-5.85,
3.515,-2.70,-3.65,1.78,2.55,-0.71,-5.85,
3.515,-2.70,-3.65,1.78,2.57,-0.69,-5.92,
3.516,-2.70,-3.65,1.78,2.58,-0.68,-5.99,
3.519,-2.44,-3.64,2.11,2.58,-0.68,-5.99,
3.522,-2.44,-3.64,2.11,2.60,-0.67,-6.06,
3.522,-2.44,-3.64,2.11,2.61,-0.66,-6.14,
3.523,-2.20,-3.59,2.36,2.61,-0.66,-6.14,
3.523,-2.20,-3.59,2.36,2.62,-0.66,-6.21,
3.525,-2.20,-3.59,2.36,2.63,-0.66,-6.29,
3.527,-2.20,-3.59,2.36,2.64,-0.68,-6.36,
3.527,-1.96,-3.44,2.48,2.64,-0.68,-6.36,
3.529,-1.96,-3.44,2.48,2.64,-0.71,-6.43,
3.532,-1.72,-3.26,2.57,2.64,-0.71,-6.43,
3.533,-1.72,-3.26,2.57,2.64,-0.74,-6.51,
3.534,-1.72,-3.26,2.57,2.64,-0.78,-6.59,
3.537,-1.51,-2.86,2.74,2.64,-0.78,-6.59,
3.537,-1.51,-2.86,2.74,2.64,-0.81,-6.68,
3.539,-1.51,-2.86,2.74,2.64,-0.86,-6.76,
3.541,-1.51,-2.86,2.74,2.64,-0.90,-6.84,
3.541,-1.24,-2.24,2.92,2.64,-0.90,-6.84,
3.543,-1.24,-2.24,2.92,2.64,-0.95,-6.92,
3.548,-1.01,-1.48,3.09,2.64,-0.95,-6.92,
3.548,-1.01,-1.48,3.09,2.64,-1.00,-7.00,
3.55,-1.01,-1.48,3.09,2.63,-1.05,-7.07,
3.551,-1.01,-1.48,3.09,2.63,-1.11,-7.15,
3.551,-0.79,-0.60,3.26,2.63,-1.11,-7.15,
3.554,-0.79,-0.60,3.26,2.62,-1.19,-7.22,
3.556,-0.79,-0.60,3.26,2.61,-1.28,-7.29,
3.556,-0.60,0.28,3.30,2.61,-1.28,-7.29,
3.558,-0.60,0.28,3.30,2.59,-1.41,-7.35,
3.561,-0.60,0.28,3.30,2.56,-1.55,-7.42,
3.561,-0.24,1.26,3.33,2.56,-1.55,-7.42,
3.566,-0.24,1.26,3.33,2.54,-1.69,-7.47,
3.567,-0.24,1.26,3.33,2.53,-1.81,-7.53,
3.57,0.05,2.84,3.50,2.53,-1.81,-7.53,
3.57,0.05,2.84,3.50,2.52,-1.92,-7.58,
3.572,0.05,2.84,3.50,2.51,-2.02,-7.62,
3.572,0.56,4.81,3.59,2.51,-2.02,-7.62,
3.574,0.56,4.81,3.59,2.51,-2.11,-7.65,
3.576,0.56,4.81,3.59,2.51,-2.19,-7.66,
3.576,1.35,7.00,3.49,2.51,-2.19,-7.66,
3.579,1.35,7.00,3.49,2.50,-2.29,-7.67,
3.587,1.35,7.00,3.49,2.50,-2.39,-7.68,
3.588,2.28,9.47,3.09,2.50,-2.39,-7.68,
3.588,2.28,9.47,3.09,2.48,-2.49,-7.67,
3.588,2.28,9.47,3.09,2.45,-2.61,-7.66,
3.588,3.27,12.11,2.70,2.45,-2.61,-7.66,
3.588,3.27,12.11,2.70,2.42,-2.73,-7.64,
3.591,3.27,12.11,2.70,2.37,-2.88,-7.62,
3.594,3.27,12.11,2.70,2.30,-3.05,-7.58,
3.594,4.41,14.78,2.30,2.30,-3.05,-7.58,
3.596,4.41,14.78,2.30,2.21,-3.23,-7.54,
3.596,5.42,16.85,1.65,2.21,-3.23,-7.54,
3.598,5.42,16.85,1.65,2.11,-3.43,-7.48,
3.601,5.42,16.85,1.65,2.01,-3.63,-7.41,
3.601,6.62,17.80,2.11,2.01,-3.63,-7.41,
3.603,6.62,17.80,2.11,1.91,-3.84,-7.34,
3.606,6.62,17.80,2.11,1.80,-4.06,-7.25,
3.606,8.06,18.95,3.22,1.80,-4.06,-7.25,
3.608,8.06,18.95,3.22,1.70,-4.28,-7.10,
3.611,8.06,18.95,3.22,1.60,-4.47,-6.93,
3.611,8.89,20.89,3.67,1.60,-4.47,-6.93,
3.614,8.89,20.89,3.67,1.50,-4.61,-6.72,
3.616,8.89,20.89,3.67,1.42,-4.67,-6.50,
3.639,10.00,21.85,3.59,1.42,-4.67,-6.50,
3.639,10.00,21.85,3.59,1.33,-4.67,-6.26,
3.639,10.00,21.85,3.59,1.25,-4.63,-6.01,
3.639,11.67,21.55,3.04,1.25,-4.63,-6.01,
3.64,11.67,21.55,3.04,1.17,-4.57,-5.75,
3.64,11.67,21.55,3.04,1.07,-4.51,-5.46,
3.64,12.42,20.47,0.43,1.07,-4.51,-5.46,
3.64,12.42,20.47,0.43,0.97,-4.42,-5.13,
3.64,12.64,17.64,-1.85,0.97,-4.42,-5.13,
3.641,12.64,17.64,-1.85,0.86,-4.37,-4.76,
3.641,12.64,17.64,-1.85,0.76,-4.38,-4.36,
3.641,12.64,17.64,-1.85,0.68,-4.40,-3.96,
3.641,13.51,14.25,-2.53,0.68,-4.40,-3.96,
3.642,13.51,14.25,-2.53,0.64,-4.28,-3.58,
3.642,13.51,14.25,-2.53,0.65,-3.99,-3.25,
3.642,16.42,10.63,-4.26,0.65,-3.99,-3.25,
3.643,16.42,10.63,-4.26,0.68,-3.65,-2.95,
3.646,16.42,10.63,-4.26,0.70,-3.41,-2.66,
3.646,20.55,7.30,-2.04,0.70,-3.41,-2.66,
3.648,20.55,7.30,-2.04,0.67,-3.30,-2.38,
3.65,23.39,4.72,-2.20,0.67,-3.30,-2.38,
3.651,23.39,4.72,-2.20,0.64,-3.20,-2.08,
3.653,23.39,4.72,-2.20,0.58,-2.98,-1.68,
3.657,20.64,3.72,-5.91,0.58,-2.98,-1.68,
3.657,20.64,3.72,-5.91,0.46,-2.64,-1.15,
3.657,20.64,3.72,-5.91,0.30,-2.22,-0.49,
3.66,20.64,3.72,-5.91,0.23,-1.79,0.20,
3.661,19.98,2.83,-6.11,0.23,-1.79,0.20,
3.662,19.98,2.83,-6.11,0.19,-1.34,0.87,
3.669,21.64,0.77,-4.11,0.19,-1.34,0.87,
3.669,21.64,0.77,-4.11,0.15,-0.90,1.46,
3.67,21.64,0.77,-4.11,0.03,-0.56,2.05,
3.67,22.55,-0.22,-0.02,0.03,-0.56,2.05,
3.673,22.55,-0.22,-0.02,-0.06,-0.40,2.68,
3.673,22.55,-0.22,-0.02,-0.03,-0.38,3.30,
3.675,22.96,0.12,-1.58,-0.03,-0.38,3.30,
3.676,22.96,0.12,-1.58,-0.09,-0.38,3.86,
3.678,22.96,0.12,-1.58,-0.17,-0.32,4.26,
3.683,22.96,0.12,-1.58,-0.30,-0.18,4.46,
3.683,24.38,-0.10,-3.78,-0.30,-0.18,4.46,
3.684,24.38,-0.10,-3.78,-0.44,0.01,4.52,
3.685,24.38,-0.10,-3.78,-0.43,0.14,4.51,
3.685,25.31,-0.04,-1.23,-0.43,0.14,4.51,
3.688,25.31,-0.04,-1.23,-0.33,0.23,4.43,
3.69,25.31,-0.04,-1.23,-0.25,0.36,4.23,
3.69,25.19,0.32,-3.22,-0.25,0.36,4.23,
3.692,25.19,0.32,-3.22,-0.28,0.60,3.83,
3.695,25.19,0.32,-3.22,-0.49,1.05,3.27,
3.695,20.61,2.01,-9.73,-0.49,1.05,3.27,
3.698,20.61,2.01,-9.73,-0.76,1.71,2.60,
3.701,20.61,2.01,-9.73,-0.87,2.46,1.85,
3.701,9.36,5.50,-7.05,-0.87,2.46,1.85,
3.702,9.36,5.50,-7.05,-0.71,3.21,1.05,
3.706,9.36,5.50,-7.05,-0.40,3.96,0.14,
3.706,3.00,11.19,-0.48,-0.40,3.96,0.14,
3.708,3.00,11.19,-0.48,-0.09,4.68,-0.76,
3.711,3.00,11.19,-0.48,0.12,5.15,-1.40,
3.711,-3.27,15.20,1.25,0.12,5.15,-1.40,
3.714,-3.27,15.20,1.25,0.37,5.10,-1.58,
3.716,-3.27,15.20,1.25,0.61,4.53,-1.31,
3.717,-11.74,18.86,6.42,0.61,4.53,-1.31,
3.719,-11.74,18.86,6.42,0.83,3.48,-0.73,
3.72,-11.74,18.86,6.42,0.93,2.11,0.02,
3.72,-14.32,21.16,3.23,0.93,2.11,0.02,
3.722,-14.32,21.16,3.23,0.80,0.59,0.87,
3.725,-14.32,21.16,3.23,0.54,-0.94,1.78,
3.725,-15.19,22.25,-3.24,0.54,-0.94,1.78,
3.727,-15.19,22.25,-3.24,0.06,-2.28,2.71,
3.73,-15.19,22.25,-3.24,-0.50,-3.35,3.65,
3.73,-15.78,21.45,-7.23,-0.50,-3.35,3.65,
3.733,-15.78,21.45,-7.23,-1.01,-4.10,4.55,
3.735,-15.78,21.45,-7.23,-1.37,-4.46,5.35,
3.735,-14.85,19.64,-3.73,-1.37,-4.46,5.35,
3.737,-14.85,19.64,-3.73,-1.54,-4.41,5.93,
3.74,-14.85,19.64,-3.73,-1.49,-4.04,6.19,
3.74,-5.58,13.06,3.28,-1.49,-4.04,6.19,
3.742,-5.58,13.06,3.28,-1.26,-3.52,6.18,
3.745,-5.58,13.06,3.28,-0.94,-3.02,5.97,
3.745,3.52,2.96,11.60,-0.94,-3.02,5.97,
3.749,3.52,2.96,11.60,-0.56,-2.65,5.63,
3.751,3.52,2.96,11.60,-0.19,-2.54,5.21,
3.751,10.50,-6.81,15.42,-0.19,-2.54,5.21,
3.753,10.50,-6.81,15.42,0.14,-2.72,4.76,
3.755,10.50,-6.81,15.42,0.42,-3.11,4.33,
3.755,13.53,-13.39,10.98,0.42,-3.11,4.33,
3.757,13.53,-13.39,10.98,0.63,-3.56,3.97,
3.76,13.53,-13.39,10.98,0.74,-3.84,3.73,
3.76,11.65,-15.11,1.25,0.74,-3.84,3.73,
3.762,11.65,-15.11,1.25,0.71,-3.85,3.55,
3.77,10.70,-16.02,-7.64,0.71,-3.85,3.55,
3.772,10.70,-16.02,-7.64,0.60,-3.59,3.44,
3.772,10.70,-16.02,-7.64,0.43,-3.09,3.37,
3.773,10.63,-15.62,-12.78,0.43,-3.09,3.37,
3.775,10.63,-15.62,-12.78,0.16,-2.42,3.34,
3.777,13.68,-13.71,-9.03,0.16,-2.42,3.34,
3.78,13.68,-13.71,-9.03,-0.13,-1.66,3.32,
3.78,13.68,-13.71,-9.03,-0.40,-0.94,3.26,
3.78,13.68,-13.71,-9.03,-0.59,-0.37,3.13,
3.801,13.68,-13.71,-9.03,-0.66,0.09,2.90,
3.802,13.68,-13.71,-9.03,-0.63,0.45,2.61,
3.825,18.32,-9.36,0.65,-0.63,0.45,2.61,
3.825,18.32,-9.36,0.65,-0.49,0.66,2.29,
3.825,20.64,-2.66,7.81,-0.49,0.66,2.29,
3.826,20.64,-2.66,7.81,-0.29,0.74,1.96,
3.826,20.09,2.68,7.75,-0.29,0.74,1.96,
3.826,20.09,2.68,7.75,-0.06,0.80,1.62,
3.826,20.09,2.68,7.75,0.14,0.92,1.29,
3.827,20.09,2.68,7.75,0.31,1.18,1.00,
3.827,15.88,5.99,2.99,0.31,1.18,1.00,
3.827,15.88,5.99,2.99,0.41,1.51,0.78,
3.827,15.88,5.99,2.99,0.46,1.72,0.65,
3.828,10.07,6.75,1.30,0.46,1.72,0.65,
3.828,10.07,6.75,1.30,0.48,1.77,0.58,
3.828,10.07,6.75,1.30,0.48,1.75,0.54,
3.828,5.13,5.12,1.77,0.48,1.75,0.54,
3.829,5.13,5.12,1.77,0.50,1.72,0.52,
3.829,5.13,5.12,1.77,0.53,1.64,0.50,
3.829,1.38,2.64,2.39,0.53,1.64,0.50,
3.829,1.38,2.64,2.39,0.56,1.51,0.51,
3.83,1.38,2.64,2.39,0.59,1.36,0.53,
3.83,-1.53,0.66,2.68,0.59,1.36,0.53,
3.83,-1.53,0.66,2.68,0.62,1.23,0.56,
3.83,-3.01,-1.04,2.46,0.62,1.23,0.56,
3.831,-3.01,-1.04,2.46,0.65,1.12,0.60,
3.831,-3.01,-1.04,2.46,0.67,1.01,0.63,
3.831,-3.26,-2.32,2.16,0.67,1.01,0.63,
3.831,-3.26,-2.32,2.16,0.68,0.92,0.65,
3.832,-3.26,-2.32,2.16,0.69,0.84,0.67,
3.832,-3.26,-2.32,2.16,0.69,0.74,0.68,
3.832,-3.28,-2.80,2.04,0.69,0.74,0.68,
3.832,-3.28,-2.80,2.04,0.69,0.60,0.70,
3.834,-3.28,-2.80,2.04,0.68,0.42,0.72,
3.835,-2.99,-2.62,2.13,0.68,0.42,0.72,
3.838,-2.99,-2.62,2.13,0.67,0.20,0.75,
3.839,-2.05,-1.82,2.07,0.67,0.20,0.75,
3.84,-2.05,-1.82,2.07,0.66,-0.03,0.76,
3.841,-2.05,-1.82,2.07,0.65,-0.25,0.77,
3.844,-2.05,-1.82,2.07,0.64,-0.45,0.77,
3.845,-0.97,-0.86,1.66,0.64,-0.45,0.77,
3.847,-0.97,-0.86,1.66,0.64,-0.61,0.76,
3.849,-0.14,-0.08,0.84,0.64,-0.61,0.76,
3.85,-0.14,-0.08,0.84,0.64,-0.75,0.75,
3.852,-0.14,-0.08,0.84,0.63,-0.84,0.75,
3.855,-0.14,-0.08,0.84,0.62,-0.90,0.75,
3.855,0.40,0.42,-0.54,0.62,-0.90,0.75,
3.856,0.40,0.42,-0.54,0.59,-0.92,0.75,
3.858,0.40,0.42,-0.54,0.56,-0.90,0.74,
3.859,0.85,0.68,-2.23,0.56,-0.90,0.74,
3.861,0.85,0.68,-2.23,0.52,-0.85,0.74,
3.863,0.85,0.68,-2.23,0.47,-0.77,0.73,
3.869,1.35,0.77,-3.34,0.47,-0.77,0.73,
3.869,1.35,0.77,-3.34,0.43,-0.68,0.70,
3.869,1.35,0.77,-3.34,0.39,-0.58,0.68,
3.87,1.89,0.73,-3.35,0.39,-0.58,0.68,
3.878,1.89,0.73,-3.35,0.35,-0.48,0.65,
3.878,1.89,0.73,-3.35,0.33,-0.38,0.60,
3.878,1.89,0.73,-3.35,0.32,-0.26,0.55,
3.878,2.50,0.57,-2.62,0.32,-0.26,0.55,
3.879,2.50,0.57,-2.62,0.32,-0.11,0.50,
3.879,3.21,0.19,-1.96,0.32,-0.11,0.50,
3.886,3.21,0.19,-1.96,0.33,0.07,0.43,
3.887,3.21,0.19,-1.96,0.34,0.28,0.36,
3.887,4.01,-0.24,-1.74,0.34,0.28,0.36,
3.887,4.01,-0.24,-1.74,0.36,0.49,0.29,
3.889,4.01,-0.24,-1.74,0.36,0.67,0.23,
3.889,4.22,-0.62,-1.74,0.36,0.67,0.23,
3.892,4.22,-0.62,-1.74,0.37,0.83,0.18,
3.894,4.22,-0.62,-1.74,0.36,0.97,0.13,
3.895,3.72,-0.85,-1.72,0.36,0.97,0.13,
3.897,3.72,-0.85,-1.72,0.35,1.09,0.09,
3.898,2.77,-0.82,-1.36,0.35,1.09,0.09,
3.899,2.77,-0.82,-1.36,0.35,1.19,0.05,
3.903,2.77,-0.82,-1.36,0.34,1.27,0.02,
3.904,2.77,-0.82,-1.36,0.34,1.33,-0.01,
3.904,1.44,-0.50,-0.61,0.34,1.33,-0.01,
3.906,1.44,-0.50,-0.61,0.34,1.37,-0.02,
3.909,1.44,-0.50,-0.61,0.34,1.41,-0.03,
3.909,0.15,-0.08,0.22,0.34,1.41,-0.03,
3.91,0.15,-0.08,0.22,0.35,1.43,-0.02,
3.913,0.15,-0.08,0.22,0.37,1.41,-0.01,
3.913,-1.14,0.26,0.92,0.37,1.41,-0.01,
3.916,-1.14,0.26,0.92,0.38,1.37,0.02,
3.918,-1.14,0.26,0.92,0.39,1.30,0.05,
3.918,-2.55,0.47,1.30,0.39,1.30,0.05,
3.92,-2.55,0.47,1.30,0.40,1.20,0.09,
3.923,-2.55,0.47,1.30,0.40,1.07,0.12,
3.923,-3.30,0.48,1.42,0.40,1.07,0.12,
3.925,-3.30,0.48,1.42,0.40,0.93,0.16,
3.928,-3.30,0.48,1.42,0.40,0.78,0.22,
3.928,-4.61,0.43,1.30,0.40,0.78,0.22,
3.93,-4.61,0.43,1.30,0.39,0.63,0.30,
3.934,-5.92,0.34,0.87,0.39,0.63,0.30,
3.934,-5.92,0.34,0.87,0.37,0.46,0.38,
3.935,-5.92,0.34,0.87,0.34,0.29,0.46,
3.938,-5.92,0.34,0.87,0.31,0.11,0.54,
3.938,-6.45,0.29,0.35,0.31,0.11,0.54,
3.94,-6.45,0.29,0.35,0.28,-0.07,0.62,
3.943,-6.45,0.29,0.35,0.25,-0.21,0.68,
3.943,-5.60,0.26,0.01,0.25,-0.21,0.68,
3.945,-5.60,0.26,0.01,0.23,-0.33,0.73,
3.964,-3.65,0.01,-0.31,0.23,-0.33,0.73,
3.965,-3.65,0.01,-0.31,0.21,-0.43,0.78,
3.965,-3.65,0.01,-0.31,0.19,-0.50,0.81,
3.965,-1.65,-0.11,-0.63,0.19,-0.50,0.81,
3.965,-1.65,-0.11,-0.63,0.18,-0.54,0.84,
3.966,-1.65,-0.11,-0.63,0.17,-0.55,0.86,
3.966,-0.02,-0.16,-0.95,0.17,-0.55,0.86,
3.966,-0.02,-0.16,-0.95,0.16,-0.52,0.87,
3.966,-0.02,-0.16,-0.95,0.16,-0.47,0.86,
3.967,1.15,-0.21,-1.16,0.16,-0.47,0.86,
3.967,1.15,-0.21,-1.16,0.15,-0.38,0.86,
3.967,1.15,-0.21,-1.16,0.15,-0.28,0.84,
3.97,1.96,-0.25,-1.33,0.15,-0.28,0.84,
3.97,1.96,-0.25,-1.33,0.15,-0.17,0.82,
3.97,1.96,-0.25,-1.33,0.15,-0.05,0.80,
3.973,2.31,-0.20,-1.28,0.15,-0.05,0.80,
3.973,2.31,-0.20,-1.28,0.15,0.08,0.77,
3.975,2.31,-0.20,-1.28,0.15,0.20,0.74,
3.978,2.31,-0.20,-1.28,0.15,0.31,0.72,
3.978,1.95,-0.11,-1.16,0.15,0.31,0.72,
3.98,1.95,-0.11,-1.16,0.15,0.42,0.70,
3.983,0.95,0.00,-1.16,0.15,0.42,0.70,
3.984,0.95,0.00,-1.16,0.15,0.52,0.69,
3.985,0.95,0.00,-1.16,0.16,0.62,0.68,
3.988,-0.32,0.11,-1.19,0.16,0.62,0.68,
3.988,-0.32,0.11,-1.19,0.16,0.72,0.69,
3.99,-0.32,0.11,-1.19,0.16,0.80,0.70,
3.993,-1.58,0.24,-1.33,0.16,0.80,0.70,
3.994,-1.58,0.24,-1.33,0.16,0.86,0.72,
3.995,-1.58,0.24,-1.33,0.15,0.89,0.75,
3.998,-1.58,0.24,-1.33,0.13,0.91,0.79,
3.998,-2.70,0.46,-1.47,0.13,0.91,0.79,
4.008,-2.70,0.46,-1.47,0.11,0.93,0.84,
4.008,-3.44,0.78,-1.30,0.11,0.93,0.84,
4.009,-3.44,0.78,-1.30,0.09,0.91,0.90,
4.009,-3.44,0.78,-1.30,0.06,0.86,0.96,
4.009,-3.67,0.78,-0.87,0.06,0.86,0.96,
4.01,-3.67,0.78,-0.87,0.04,0.78,1.02,
4.01,-3.67,0.78,-0.87,0.02,0.71,1.08,
4.013,-3.67,0.52,-0.74,0.02,0.71,1.08,
4.013,-3.67,0.52,-0.74,0.01,0.64,1.13,
4.016,-3.67,0.52,-0.74,-0.00,0.58,1.16,
4.032,-3.51,0.13,-0.65,-0.00,0.58,1.16,
4.033,-3.51,0.13,-0.65,-0.02,0.52,1.20,
4.035,-3.51,0.13,-0.65,-0.03,0.46,1.23,
4.035,-3.27,-0.00,-0.82,-0.03,0.46,1.23,
4.036,-3.27,-0.00,-0.82,-0.06,0.39,1.27,
4.036,-3.27,-0.00,-0.82,-0.08,0.33,1.30,
4.037,-2.74,0.17,-0.82,-0.08,0.33,1.30,
4.037,-2.74,0.17,-0.82,-0.11,0.27,1.34,
4.038,-2.74,0.17,-0.82,-0.13,0.22,1.37,
4.038,-1.98,0.34,-0.48,-0.13,0.22,1.37,
4.038,-1.98,0.34,-0.48,-0.14,0.18,1.40,
4.039,-1.98,0.34,-0.48,-0.14,0.17,1.42,
4.039,-1.38,0.48,-0.43,-0.14,0.17,1.42,
4.039,-1.38,0.48,-0.43,-0.15,0.20,1.44,
4.039,-1.38,0.48,-0.43,-0.14,0.25,1.47,
4.042,-1.38,0.48,-0.43,-0.14,0.31,1.48,
4.042,-0.92,0.49,-0.46,-0.14,0.31,1.48,
4.045,-0.92,0.49,-0.46,-0.13,0.37,1.50,
4.048,-0.52,0.45,-0.42,-0.13,0.37,1.50,
4.048,-0.52,0.45,-0.42,-0.13,0.43,1.52,
4.05,-0.52,0.45,-0.42,-0.13,0.48,1.53,
4.052,-0.18,0.44,-0.34,-0.13,0.48,1.53,
4.053,-0.18,0.44,-0.34,-0.13,0.52,1.54,
4.055,-0.18,0.44,-0.34,-0.14,0.54,1.54,
4.057,-0.17,0.41,-0.12,-0.14,0.54,1.54,
4.057,-0.17,0.41,-0.12,-0.14,0.57,1.55,
4.059,-0.17,0.41,-0.12,-0.14,0.59,1.56,
4.062,-0.38,0.41,0.12,-0.14,0.59,1.56,
4.062,-0.38,0.41,0.12,-0.14,0.62,1.57,
4.064,-0.38,0.41,0.12,-0.13,0.64,1.58,
4.072,-0.69,0.39,0.15,-0.13,0.64,1.58,
4.073,-0.69,0.39,0.15,-0.13,0.67,1.59,
4.073,-0.69,0.39,0.15,-0.13,0.70,1.60,
4.073,-1.01,0.46,-0.08,-0.13,0.70,1.60,
4.073,-1.01,0.46,-0.08,-0.13,0.74,1.62,
4.075,-1.01,0.46,-0.08,-0.13,0.75,1.63,
4.078,-1.11,0.58,0.05,-0.13,0.75,1.63,
4.078,-1.11,0.58,0.05,-0.13,0.75,1.65,
4.079,-1.11,0.58,0.05,-0.14,0.73,1.67,
4.088,-1.05,0.66,0.11,-0.14,0.73,1.67,
4.088,-1.05,0.66,0.11,-0.14,0.71,1.68,
4.088,-1.05,0.66,0.11,-0.15,0.69,1.69,
4.088,-1.08,0.77,-0.06,-0.15,0.69,1.69,
4.089,-1.08,0.77,-0.06,-0.16,0.67,1.70,
4.089,-1.08,0.77,-0.06,-0.17,0.66,1.71,
4.092,-1.08,0.77,-0.06,-0.17,0.64,1.72,
4.092,-1.00,0.91,-0.12,-0.17,0.64,1.72,
4.094,-1.00,0.91,-0.12,-0.17,0.63,1.73,
4.097,-0.65,1.06,-0.23,-0.17,0.63,1.73,
4.097,-0.65,1.06,-0.23,-0.18,0.64,1.73,
4.099,-0.65,1.06,-0.23,-0.19,0.64,1.74,
4.104,-0.65,1.06,-0.23,-0.19,0.66,1.74,
4.104,-0.29,0.98,-0.01,-0.19,0.66,1.74,
4.104,-0.29,0.98,-0.01,-0.19,0.69,1.73,
4.107,-0.08,0.89,0.18,-0.19,0.69,1.73,
4.107,-0.08,0.89,0.18,-0.19,0.71,1.73,
4.109,-0.08,0.89,0.18,-0.18,0.74,1.73,
4.111,-0.04,0.77,0.11,-0.18,0.74,1.73,
4.13,-0.04,0.77,0.11,-0.19,0.75,1.73,
4.13,-0.04,0.77,0.11,-0.19,0.76,1.72,
4.131,-0.04,0.77,0.11,-0.20,0.76,1.71,
4.131,-0.12,0.83,0.21,-0.20,0.76,1.71,
4.131,-0.12,0.83,0.21,-0.21,0.74,1.69,
4.132,-0.12,0.83,0.21,-0.21,0.73,1.69,
4.132,-0.51,1.03,0.31,-0.21,0.73,1.69,
4.133,-0.51,1.03,0.31,-0.22,0.72,1.69,
4.133,-0.77,1.24,0.29,-0.22,0.72,1.69,
4.133,-0.77,1.24,0.29,-0.22,0.71,1.69,
4.134,-0.77,1.24,0.29,-0.24,0.71,1.70,
4.134,-0.77,1.24,0.29,-0.25,0.72,1.71,
4.135,-0.80,1.41,0.34,-0.25,0.72,1.71,
4.136,-0.80,1.41,0.34,-0.25,0.73,1.72,
4.138,-0.80,1.41,0.34,-0.25,0.73,1.72,
4.139,-0.74,1.62,0.54,-0.25,0.73,1.72,
4.139,-0.74,1.62,0.54,-0.26,0.73,1.73,
4.142,-0.74,1.62,0.54,-0.27,0.74,1.73,
4.142,-0.72,1.78,0.43,-0.27,0.74,1.73,
4.144,-0.72,1.78,0.43,-0.27,0.74,1.74,
4.146,-0.72,1.78,0.43,-0.28,0.75,1.75,
4.147,-0.74,1.70,0.48,-0.28,0.75,1.75,
4.149,-0.74,1.70,0.48,-0.28,0.77,1.77,
4.151,-0.74,1.70,0.48,-0.28,0.79,1.80,
4.152,-0.89,1.63,0.59,-0.28,0.79,1.80,
4.153,-0.89,1.63,0.59,-0.28,0.82,1.82,
4.156,-0.89,1.63,0.59,-0.28,0.84,1.83,
4.156,-1.06,1.64,0.52,-0.28,0.84,1.83,
4.158,-1.06,1.64,0.52,-0.30,0.84,1.85,
4.161,-1.06,1.64,0.52,-0.31,0.82,1.87,
4.161,-1.37,1.82,0.51,-0.31,0.82,1.87,
4.163,-1.37,1.82,0.51,-0.33,0.81,1.88,
4.167,-1.63,1.98,0.43,-0.33,0.81,1.88,
4.167,-1.63,1.98,0.43,-0.35,0.80,1.90,
4.168,-1.63,1.98,0.43,-0.37,0.79,1.93,
4.171,-1.63,1.98,0.43,-0.39,0.78,1.96,
4.171,-1.88,2.08,0.56,-0.39,0.78,1.96,
4.173,-1.88,2.08,0.56,-0.41,0.77,2.00,
4.176,-1.88,2.08,0.56,-0.43,0.76,2.03,
4.176,-1.90,2.07,0.41,-0.43,0.76,2.03,
4.179,-1.90,2.07,0.41,-0.44,0.76,2.07,
4.181,-1.90,2.07,0.41,-0.46,0.76,2.10,
4.181,-1.72,2.20,-0.04,-0.46,0.76,2.10,
4.184,-1.72,2.20,-0.04,-0.49,0.76,2.13,
4.189,-1.56,2.44,-0.40,-0.49,0.76,2.13,
4.19,-1.56,2.44,-0.40,-0.51,0.76,2.15,
4.191,-1.14,2.77,-0.75,-0.51,0.76,2.15,
4.191,-1.14,2.77,-0.75,-0.53,0.77,2.17,
4.191,-1.14,2.77,-0.75,-0.56,0.79,2.19,
4.206,-0.79,3.24,-0.71,-0.56,0.79,2.19,
4.207,-0.79,3.24,-0.71,-0.58,0.80,2.20,
4.207,-0.79,3.24,-0.71,-0.60,0.82,2.21,
4.207,-0.79,3.24,-0.71,-0.63,0.83,2.23,
4.207,-0.80,3.64,-0.51,-0.63,0.83,2.23,
4.208,-0.80,3.64,-0.51,-0.64,0.85,2.24,
4.208,-0.80,3.64,-0.51,-0.66,0.87,2.26,
4.208,-0.80,3.64,-0.51,-0.67,0.91,2.28,
4.208,-0.90,3.98,-0.61,-0.67,0.91,2.28,
4.209,-0.90,3.98,-0.61,-0.68,0.95,2.30,
4.212,-1.34,3.95,-0.45,-0.68,0.95,2.30,
4.212,-1.34,3.95,-0.45,-0.70,0.96,2.33,
4.214,-1.34,3.95,-0.45,-0.72,0.97,2.35,
4.216,-1.90,3.75,-0.39,-0.72,0.97,2.35,
4.217,-1.90,3.75,-0.39,-0.74,0.97,2.38,
4.218,-1.90,3.75,-0.39,-0.78,0.98,2.41,
4.221,-2.47,4.00,-0.86,-0.78,0.98,2.41,
4.224,-2.47,4.00,-0.86,-0.80,1.01,2.44,
4.225,-2.47,4.00,-0.86,-0.83,1.05,2.47,
4.226,-2.47,4.00,-0.86,-0.85,1.07,2.50,
4.226,-3.36,4.18,-0.71,-0.85,1.07,2.50,
4.228,-3.36,4.18,-0.71,-0.87,1.10,2.55,
4.23,-4.22,4.39,-0.99,-0.87,1.10,2.55,
4.231,-4.22,4.39,-0.99,-0.89,1.13,2.59,
4.233,-4.22,4.39,-0.99,-0.92,1.15,2.64,
4.236,-4.88,4.87,-1.55,-0.92,1.15,2.64,
4.236,-4.88,4.87,-1.55,-0.96,1.18,2.69,
4.238,-4.88,4.87,-1.55,-1.01,1.19,2.74,
4.24,-5.42,5.51,-1.63,-1.01,1.19,2.74,
4.241,-5.42,5.51,-1.63,-1.05,1.19,2.80,
4.243,-5.42,5.51,-1.63,-1.10,1.19,2.86,
4.245,-5.42,5.51,-1.63,-1.15,1.18,2.91,
4.246,-5.36,6.26,-1.69,-1.15,1.18,2.91,
4.248,-5.36,6.26,-1.69,-1.19,1.16,2.96,
4.251,-5.35,7.11,-2.03,-1.19,1.16,2.96,
4.252,-5.35,7.11,-2.03,-1.24,1.14,3.00,
4.253,-5.35,7.11,-2.03,-1.29,1.12,3.04,
4.256,-5.59,8.18,-2.55,-1.29,1.12,3.04,
4.256,-5.59,8.18,-2.55,-1.33,1.11,3.07,
4.258,-5.59,8.18,-2.55,-1.37,1.11,3.10,
4.261,-6.16,9.48,-2.79,-1.37,1.11,3.10,
4.261,-6.16,9.48,-2.79,-1.39,1.11,3.14,
4.263,-6.16,9.48,-2.79,-1.41,1.12,3.18,
4.275,-7.06,10.74,-3.16,-1.41,1.12,3.18,
4.277,-7.06,10.74,-3.16,-1.43,1.15,3.23,
4.278,-7.06,10.74,-3.16,-1.45,1.20,3.29,
4.278,-8.03,11.66,-3.21,-1.45,1.20,3.29,
4.278,-8.03,11.66,-3.21,-1.47,1.26,3.35,
4.279,-8.03,11.66,-3.21,-1.49,1.34,3.42,
4.279,-8.03,11.66,-3.21,-1.50,1.42,3.49,
4.28,-9.00,12.25,-3.09,-1.50,1.42,3.49,
4.307,-9.57,12.75,-3.75,-1.50,1.42,3.49,
4.307,-9.94,13.34,-4.36,-1.50,1.42,3.49,
4.307,-9.94,13.34,-4.36,-1.51,1.52,3.55,
4.308,-9.94,13.34,-4.36,-1.53,1.61,3.61,
4.308,-9.94,13.34,-4.36,-1.56,1.70,3.66,
4.308,-9.94,13.34,-4.36,-1.60,1.78,3.71,
4.308,-9.94,13.34,-4.36,-1.65,1.85,3.74,
4.308,-10.33,14.17,-4.40,-1.65,1.85,3.74,
4.309,-10.33,14.17,-4.40,-1.69,1.90,3.77,
4.309,-10.33,14.17,-4.40,-1.72,1.94,3.78,
4.309,-10.60,15.24,-4.70,-1.72,1.94,3.78,
4.31,-10.60,15.24,-4.70,-1.76,2.00,3.79,
4.31,-10.60,15.24,-4.70,-1.79,2.04,3.78,
4.31,-10.85,16.54,-5.49,-1.79,2.04,3.78,
4.311,-10.85,16.54,-5.49,-1.81,2.04,3.76,
4.311,-10.85,16.54,-5.49,-1.80,2.01,3.73,
4.311,-11.36,17.99,-6.28,-1.80,2.01,3.73,
4.312,-11.36,17.99,-6.28,-1.79,1.95,3.70,
4.312,-11.36,17.99,-6.28,-1.77,1.88,3.71,
4.312,-13.02,19.20,-6.45,-1.77,1.88,3.71,
4.313,-13.02,19.20,-6.45,-1.74,1.82,3.77,
4.313,-13.02,19.20,-6.45,-1.71,1.78,3.92,
4.317,-13.02,19.20,-6.45,-1.68,1.74,4.13,
4.318,-14.27,19.46,-6.52,-1.68,1.74,4.13,
4.319,-14.27,19.46,-6.52,-1.67,1.72,4.36,
4.321,-12.31,17.38,-7.88,-1.67,1.72,4.36,
4.321,-12.31,17.38,-7.88,-1.68,1.69,4.55,
4.323,-12.31,17.38,-7.88,-1.72,1.67,4.67,
4.324,-12.31,17.38,-7.88,-1.78,1.64,4.75,
4.325,-9.87,14.51,-8.64,-1.78,1.64,4.75,
4.327,-9.87,14.51,-8.64,-1.84,1.55,4.81,
4.33,-9.87,14.51,-8.64,-1.89,1.37,4.87,
4.33,-8.37,12.54,-6.71,-1.89,1.37,4.87,
4.332,-8.37,12.54,-6.71,-1.92,1.09,4.96,
4.336,-8.37,12.54,-6.71,-1.90,0.75,5.06,
4.336,-6.61,10.94,-3.75,-1.90,0.75,5.06,
4.337,-6.61,10.94,-3.75,-1.84,0.41,5.17,
4.34,-4.27,9.55,-2.16,-1.84,0.41,5.17,
4.34,-4.27,9.55,-2.16,-1.75,0.08,5.27,
4.343,-4.27,9.55,-2.16,-1.67,-0.18,5.33,
4.345,-4.27,9.55,-2.16,-1.59,-0.34,5.34,
4.345,-1.14,8.04,-1.90,-1.59,-0.34,5.34,
4.347,-1.14,8.04,-1.90,-1.51,-0.38,5.27,
4.352,1.15,6.79,-2.11,-1.51,-0.38,5.27,
4.352,1.15,6.79,-2.11,-1.42,-0.32,5.14,
4.353,1.15,6.79,-2.11,-1.32,-0.20,4.98,
4.355,1.15,6.79,-2.11,-1.20,-0.03,4.80,
4.355,1.12,6.25,-2.43,-1.20,-0.03,4.80,
4.357,1.12,6.25,-2.43,-1.08,0.16,4.62,
4.36,1.12,6.25,-2.43,-0.96,0.36,4.43,
4.36,0.60,6.24,-3.05,-0.96,0.36,4.43,
4.362,0.60,6.24,-3.05,-0.85,0.56,4.23,
4.365,0.60,6.24,-3.05,-0.76,0.71,4.02,
4.366,0.42,5.77,-3.48,-0.76,0.71,4.02,
4.369,0.42,5.77,-3.48,-0.68,0.80,3.79,
4.37,0.42,5.77,-3.48,-0.62,0.85,3.56,
4.372,0.15,4.34,-3.32,-0.62,0.85,3.56,
4.372,0.15,4.34,-3.32,-0.54,0.90,3.31,
4.397,-0.67,2.48,-3.34,-0.54,0.90,3.31,
4.398,-0.67,2.48,-3.34,-0.47,0.99,3.04,
4.399,-0.67,2.48,-3.34,-0.42,1.10,2.78,
4.399,-0.67,2.48,-3.34,-0.39,1.25,2.54,
4.4,-0.67,2.48,-3.34,-0.37,1.41,2.36,
4.4,-0.67,2.48,-3.34,-0.30,1.58,2.24,
4.401,-2.75,1.13,-3.55,-0.30,1.58,2.24,
4.401,-4.68,-0.18,-2.86,-0.30,1.58,2.24,
4.402,-4.68,-0.18,-2.86,-0.19,1.73,2.23,
4.402,-4.68,-0.18,-2.86,-0.12,1.87,2.30,
4.403,-4.80,-1.66,-2.05,-0.12,1.87,2.30,
4.403,-4.80,-1.66,-2.05,-0.08,1.99,2.40,
4.404,-4.80,-1.66,-2.05,-0.04,2.09,2.45,
4.404,-2.42,-3.45,-1.74,-0.04,2.09,2.45,
4.405,-2.42,-3.45,-1.74,-0.01,2.17,2.39,
4.405,0.11,-4.31,-2.73,-0.01,2.17,2.39,
4.406,0.66,-4.25,-3.52,-0.01,2.17,2.39,
4.407,0.66,-4.25,-3.52,-0.00,2.23,2.22,
4.407,0.66,-4.25,-3.52,-0.03,2.26,1.95,
4.407,0.66,-4.25,-3.52,-0.08,2.26,1.60,
4.408,0.66,-4.25,-3.52,-0.14,2.24,1.21,
4.414,-1.14,-3.43,-3.52,-0.14,2.24,1.21,
4.414,-1.14,-3.43,-3.52,-0.18,2.24,0.81,
4.414,-1.14,-3.43,-3.52,-0.22,2.26,0.45,
4.415,-1.14,-3.43,-3.52,-0.25,2.29,0.12,
4.415,-3.86,-2.52,-2.51,-0.25,2.29,0.12,
4.417,-3.86,-2.52,-2.51,-0.25,2.34,-0.15,
4.42,-3.86,-2.52,-2.51,-0.23,2.37,-0.38,
4.42,-6.66,-1.95,-0.87,-0.23,2.37,-0.38,
4.421,-6.66,-1.95,-0.87,-0.20,2.38,-0.55,
4.424,-9.36,-1.75,0.36,-0.20,2.38,-0.55,
4.424,-9.36,-1.75,0.36,-0.15,2.39,-0.68,
4.426,-9.36,-1.75,0.36,-0.10,2.38,-0.78,
4.429,-9.36,-1.75,0.36,-0.05,2.36,-0.84,
4.429,-11.74,-2.07,0.96,-0.05,2.36,-0.84,
4.431,-11.74,-2.07,0.96,-0.00,2.32,-0.87,
4.434,-11.74,-2.07,0.96,0.04,2.26,-0.89,
4.435,-13.53,-2.86,1.12,0.04,2.26,-0.89,
4.436,-13.53,-2.86,1.12,0.08,2.16,-0.88,
4.439,-14.24,-3.97,1.34,0.08,2.16,-0.88,
4.439,-14.24,-3.97,1.34,0.12,2.01,-0.87,
4.443,-14.24,-3.97,1.34,0.15,1.82,-0.87,
4.458,-14.24,-3.97,1.34,0.18,1.59,-0.89,
4.458,-13.33,-4.89,1.67,0.18,1.59,-0.89,
4.459,-13.33,-4.89,1.67,0.20,1.32,-0.94,
4.459,-11.55,-5.43,1.77,0.20,1.32,-0.94,
4.46,-11.55,-5.43,1.77,0.23,1.01,-1.00,
4.46,-11.55,-5.43,1.77,0.26,0.68,-1.08,
4.46,-10.03,-6.03,1.41,0.26,0.68,-1.08,
4.461,-10.03,-6.03,1.41,0.28,0.35,-1.17,
4.461,-10.03,-6.03,1.41,0.31,0.05,-1.27,
4.461,-8.76,-6.49,0.62,0.31,0.05,-1.27,
4.462,-8.76,-6.49,0.62,0.33,-0.21,-1.36,
4.462,-8.76,-6.49,0.62,0.36,-0.44,-1.46,
4.465,-8.76,-6.49,0.62,0.39,-0.61,-1.56,
4.466,-7.59,-6.74,-0.21,0.39,-0.61,-1.56,
4.466,-7.59,-6.74,-0.21,0.42,-0.75,-1.67,
4.471,-7.59,-6.74,-0.21,0.45,-0.85,-1.78,
4.482,-6.61,-6.78,-0.81,0.45,-0.85,-1.78,
4.482,-6.61,-6.78,-0.81,0.48,-0.92,-1.89,
4.482,-6.61,-6.78,-0.81,0.51,-0.97,-2.02,
4.482,-5.93,-6.65,-1.22,0.51,-0.97,-2.02,
4.483,-5.93,-6.65,-1.22,0.54,-1.01,-2.14,
4.483,-5.93,-6.65,-1.22,0.56,-1.05,-2.27,
4.483,-5.93,-6.65,-1.22,0.59,-1.08,-2.39,
4.483,-5.64,-6.35,-1.39,0.59,-1.08,-2.39,
4.486,-5.64,-6.35,-1.39,0.61,-1.10,-2.51,
4.487,-5.64,-5.89,-1.48,0.61,-1.10,-2.51,
4.487,-5.64,-5.89,-1.48,0.63,-1.10,-2.63,
4.488,-5.64,-5.89,-1.48,0.66,-1.11,-2.73,
4.488,-5.89,-5.56,-1.38,0.66,-1.11,-2.73,
4.491,-5.89,-5.56,-1.38,0.68,-1.12,-2.84,
4.494,-6.12,-5.44,-1.17,0.68,-1.12,-2.84,
4.494,-6.12,-5.44,-1.17,0.71,-1.12,-2.93,
4.497,-6.12,-5.44,-1.17,0.73,-1.12,-3.03,
4.498,-6.12,-5.44,-1.17,0.76,-1.13,-3.12,
4.498,-6.39,-5.48,-1.01,0.76,-1.13,-3.12,
4.501,-6.39,-5.48,-1.01,0.78,-1.15,-3.20,
4.505,-6.39,-5.48,-1.01,0.81,-1.16,-3.29,
4.505,-6.50,-5.59,-0.85,0.81,-1.16,-3.29,
4.506,-6.50,-5.59,-0.85,0.84,-1.15,-3.38,
4.508,-6.50,-5.59,-0.85,0.87,-1.14,-3.46,
4.508,-6.44,-5.70,-0.79,0.87,-1.14,-3.46,
4.512,-6.44,-5.70,-0.79,0.91,-1.12,-3.55,
4.513,-6.44,-5.70,-0.79,0.94,-1.09,-3.63,
4.513,-6.38,-5.77,-0.77,0.94,-1.09,-3.63,
4.515,-6.38,-5.77,-0.77,0.98,-1.07,-3.71,
4.518,-6.38,-5.77,-0.77,1.01,-1.06,-3.78,
4.519,-6.24,-5.85,-0.79,1.01,-1.06,-3.78,
4.521,-6.24,-5.85,-0.79,1.05,-1.05,-3.85,
4.524,-6.24,-5.85,-0.79,1.08,-1.05,-3.92,
4.524,-6.00,-5.93,-0.85,1.08,-1.05,-3.92,
4.525,-6.00,-5.93,-0.85,1.11,-1.05,-3.99,
4.529,-6.00,-5.93,-0.85,1.14,-1.06,-4.06,
4.529,-5.82,-6.02,-0.92,1.14,-1.06,-4.06,
4.53,-5.82,-6.02,-0.92,1.16,-1.05,-4.13,
4.533,-5.82,-6.02,-0.92,1.19,-1.05,-4.19,
4.534,-5.70,-6.03,-0.97,1.19,-1.05,-4.19,
4.536,-5.70,-6.03,-0.97,1.22,-1.04,-4.26,
4.538,-5.70,-6.03,-0.97,1.25,-1.02,-4.32,
4.538,-5.55,-5.96,-0.97,1.25,-1.02,-4.32,
4.54,-5.55,-5.96,-0.97,1.28,-1.00,-4.38,
4.543,-5.55,-5.96,-0.97,1.31,-0.98,-4.43,
4.543,-5.31,-5.88,-0.94,1.31,-0.98,-4.43,
4.545,-5.31,-5.88,-0.94,1.34,-0.96,-4.49,
4.548,-5.31,-5.88,-0.94,1.37,-0.94,-4.55,
4.548,-5.08,-5.73,-0.93,1.37,-0.94,-4.55,
4.55,-5.08,-5.73,-0.93,1.40,-0.90,-4.61,
4.553,-4.76,-5.55,-0.89,1.40,-0.90,-4.61,
4.553,-4.76,-5.55,-0.89,1.44,-0.86,-4.68,
4.555,-4.76,-5.55,-0.89,1.47,-0.81,-4.74,
4.558,-4.45,-5.32,-0.84,1.47,-0.81,-4.74,
4.558,-4.45,-5.32,-0.84,1.50,-0.77,-4.80,
4.56,-4.45,-5.32,-0.84,1.54,-0.71,-4.86,
4.563,-4.45,-5.32,-0.84,1.58,-0.65,-4.93,
4.563,-4.08,-5.07,-0.81,1.58,-0.65,-4.93,
4.565,-4.08,-5.07,-0.81,1.62,-0.59,-5.00,
4.568,-4.08,-5.07,-0.81,1.65,-0.52,-5.06,
4.571,-3.67,-4.83,-0.76,1.65,-0.52,-5.06,
4.571,-3.67,-4.83,-0.76,1.69,-0.46,-5.12,
4.573,-3.39,-4.53,-0.67,1.69,-0.46,-5.12,
4.573,-3.39,-4.53,-0.67,1.73,-0.40,-5.19,
4.575,-3.39,-4.53,-0.67,1.76,-0.34,-5.26,
4.578,-3.18,-4.18,-0.57,1.76,-0.34,-5.26,
4.578,-3.18,-4.18,-0.57,1.79,-0.29,-5.32,
4.58,-3.18,-4.18,-0.57,1.83,-0.24,-5.38,
4.582,-3.18,-4.18,-0.57,1.86,-0.19,-5.44,
4.583,-3.08,-3.76,-0.53,1.86,-0.19,-5.44,
4.59,-3.08,-3.76,-0.53,1.90,-0.14,-5.49,
4.59,-3.08,-3.76,-0.53,1.93,-0.10,-5.55,
4.59,-2.96,-3.28,-0.49,1.93,-0.10,-5.55,
4.591,-2.96,-3.28,-0.49,1.95,-0.06,-5.59,
4.597,-2.82,-2.77,-0.23,1.95,-0.06,-5.59,
4.598,-2.82,-2.77,-0.23,1.98,-0.04,-5.64,
4.598,-2.82,-2.77,-0.23,2.01,-0.04,-5.69,
4.609,-2.72,-2.28,0.11,2.01,-0.04,-5.69,
4.61,-2.72,-2.28,0.11,2.03,-0.05,-5.74,
4.61,-2.72,-2.28,0.11,2.06,-0.07,-5.78,
4.61,-2.62,-1.86,0.39,2.06,-0.07,-5.78,
4.61,-2.62,-1.86,0.39,2.08,-0.10,-5.82,
4.61,-2.62,-1.86,0.39,2.10,-0.13,-5.86,
4.611,-2.52,-1.57,0.58,2.10,-0.13,-5.86,
4.625,-2.52,-1.57,0.58,2.13,-0.16,-5.90,
4.625,-2.52,-1.57,0.58,2.14,-0.20,-5.94,
4.626,-2.52,-1.57,0.58,2.16,-0.23,-5.98,
4.626,-2.35,-1.33,0.66,2.16,-0.23,-5.98,
4.626,-2.35,-1.33,0.66,2.17,-0.26,-6.02,
4.626,-2.35,-1.33,0.66,2.18,-0.31,-6.06,
4.626,-2.12,-1.10,0.72,2.18,-0.31,-6.06,
4.626,-2.12,-1.10,0.72,2.19,-0.36,-6.10,
4.627,-2.12,-1.10,0.72,2.20,-0.41,-6.13,
4.627,-1.80,-0.84,0.76,2.20,-0.41,-6.13,
4.627,-1.80,-0.84,0.76,2.20,-0.46,-6.17,
4.628,-1.80,-0.84,0.76,2.20,-0.53,-6.21,
4.628,-1.38,-0.50,0.87,2.20,-0.53,-6.21,
4.629,-1.38,-0.50,0.87,2.21,-0.59,-6.25,
4.632,-1.38,-0.50,0.87,2.21,-0.67,-6.30,
4.633,-0.96,-0.27,1.14,2.21,-0.67,-6.30,
4.635,-0.96,-0.27,1.14,2.21,-0.77,-6.36,
4.637,-0.96,-0.27,1.14,2.21,-0.88,-6.42,
4.638,-0.52,-0.18,1.46,2.21,-0.88,-6.42,
4.639,-0.52,-0.18,1.46,2.21,-0.98,-6.48,
4.642,-0.52,-0.18,1.46,2.22,-1.07,-6.53,
4.642,-0.35,0.67,1.43,2.22,-1.07,-6.53,
4.644,-0.35,0.67,1.43,2.22,-1.14,-6.56,
4.647,-0.35,0.67,1.43,2.23,-1.20,-6.58,
4.647,-0.16,1.98,1.36,2.23,-1.20,-6.58,
4.649,-0.16,1.98,1.36,2.24,-1.25,-6.59,
4.652,-0.16,1.98,1.36,2.26,-1.30,-6.60,
4.653,0.20,3.00,1.37,2.26,-1.30,-6.60,
4.654,0.20,3.00,1.37,2.27,-1.36,-6.61,
4.658,0.20,3.00,1.37,2.29,-1.44,-6.63,
4.658,0.62,3.96,1.53,2.29,-1.44,-6.63,
4.659,0.62,3.96,1.53,2.30,-1.53,-6.64,
4.662,0.62,3.96,1.53,2.32,-1.65,-6.64,
4.662,1.09,4.78,1.61,2.32,-1.65,-6.64,
4.664,1.09,4.78,1.61,2.32,-1.78,-6.64,
4.668,1.09,4.78,1.61,2.32,-1.92,-6.63,
4.668,1.73,5.75,1.52,2.32,-1.92,-6.63,
4.671,1.73,5.75,1.52,2.32,-2.08,-6.61,
4.677,1.73,5.75,1.52,2.30,-2.23,-6.58,
4.678,2.72,6.78,1.29,2.30,-2.23,-6.58,
4.678,2.72,6.78,1.29,2.27,-2.38,-6.56,
4.679,2.72,6.78,1.29,2.24,-2.52,-6.54,
4.679,4.15,7.83,1.05,2.24,-2.52,-6.54,
4.679,4.15,7.83,1.05,2.19,-2.65,-6.52,
4.683,4.15,7.83,1.05,2.15,-2.77,-6.52,
4.683,5.68,8.93,0.84,2.15,-2.77,-6.52,
4.698,5.68,8.93,0.84,2.10,-2.87,-6.51,
4.698,5.68,8.93,0.84,2.04,-2.97,-6.51,
4.698,7.26,10.10,0.73,2.04,-2.97,-6.51,
4.698,7.26,10.10,0.73,1.97,-3.07,-6.51,
4.699,7.26,10.10,0.73,1.90,-3.16,-6.51,
4.699,8.83,11.20,0.73,1.90,-3.16,-6.51,
4.699,8.83,11.20,0.73,1.82,-3.26,-6.50,
4.699,9.61,11.84,0.74,1.82,-3.26,-6.50,
4.699,9.61,11.84,0.74,1.72,-3.34,-6.48,
4.699,9.61,11.84,0.74,1.63,-3.38,-6.45,
4.702,9.61,11.84,0.74,1.54,-3.37,-6.41,
4.703,9.20,12.70,1.25,1.54,-3.37,-6.41,
4.705,9.20,12.70,1.25,1.46,-3.35,-6.35,
4.707,8.32,13.51,1.90,1.46,-3.35,-6.35,
4.707,8.32,13.51,1.90,1.38,-3.34,-6.25,
4.709,8.32,13.51,1.90,1.29,-3.35,-6.12,
4.711,8.32,13.51,1.90,1.21,-3.39,-5.97,
4.712,7.88,14.47,2.04,1.21,-3.39,-5.97,
4.713,7.88,14.47,2.04,1.12,-3.42,-5.80,
4.716,7.88,14.47,2.04,1.04,-3.35,-5.61,
4.716,8.44,15.96,0.06,1.04,-3.35,-5.61,
4.72,8.44,15.96,0.06,0.96,-3.10,-5.40,
4.721,8.44,15.96,0.06,0.87,-2.76,-5.15,
4.721,9.65,17.91,-3.66,0.87,-2.76,-5.15,
4.724,9.65,17.91,-3.66,0.83,-2.54,-4.86,
4.726,9.65,17.91,-3.66,0.84,-2.56,-4.56,
4.726,11.03,17.12,-0.21,0.84,-2.56,-4.56,
4.728,11.03,17.12,-0.21,0.86,-2.74,-4.27,
4.731,11.03,17.12,-0.21,0.89,-2.90,-3.99,
4.731,10.60,12.74,-0.56,0.89,-2.90,-3.99,
4.734,10.60,12.74,-0.56,0.94,-3.01,-3.72,
4.737,10.60,12.74,-0.56,0.98,-3.07,-3.46,
4.739,11.47,7.89,-2.91,0.98,-3.07,-3.46,
4.739,11.47,7.89,-2.91,1.01,-3.04,-3.18,
4.741,11.47,7.89,-2.91,1.02,-2.88,-2.89,
4.742,13.90,4.86,-5.25,1.02,-2.88,-2.89,
4.744,13.90,4.86,-5.25,1.01,-2.67,-2.57,
4.746,13.90,4.86,-5.25,0.97,-2.44,-2.24,
4.747,16.71,3.48,-5.12,0.97,-2.44,-2.24,
4.749,16.71,3.48,-5.12,0.93,-2.20,-1.87,
4.753,16.71,3.48,-5.12,0.88,-1.96,-1.48,
4.753,18.43,2.50,-2.99,0.88,-1.96,-1.48,
4.755,18.43,2.50,-2.99,0.84,-1.69,-1.05,
4.756,18.43,2.50,-2.99,0.79,-1.40,-0.62,
4.757,18.62,1.90,-1.50,0.79,-1.40,-0.62,
4.759,18.62,1.90,-1.50,0.72,-1.10,-0.19,
4.761,18.62,1.90,-1.50,0.66,-0.84,0.24,
4.761,18.85,2.12,-0.40,0.66,-0.84,0.24,
4.763,18.85,2.12,-0.40,0.58,-0.61,0.65,
4.766,18.85,2.12,-0.40,0.52,-0.44,1.02,
4.766,18.86,3.13,-0.20,0.52,-0.44,1.02,
4.774,18.86,3.13,-0.20,0.42,-0.30,1.36,
4.775,18.96,4.04,-0.77,0.42,-0.30,1.36,
4.775,18.96,4.04,-0.77,0.33,-0.20,1.63,
4.813,18.96,4.04,-0.77,0.19,-0.15,1.82,
4.814,18.96,4.04,-0.77,0.04,-0.17,1.94,
4.814,18.98,4.90,-0.77,0.04,-0.17,1.94,
4.814,18.98,4.90,-0.77,-0.07,-0.26,2.06,
4.815,18.98,4.90,-0.77,-0.18,-0.39,2.22,
4.816,16.22,5.33,-0.44,-0.18,-0.39,2.22,
4.816,16.22,5.33,-0.44,-0.27,-0.51,2.44,
4.817,12.86,4.98,-0.83,-0.27,-0.51,2.44,
4.818,12.86,4.98,-0.83,-0.37,-0.59,2.66,
4.819,12.86,4.98,-0.83,-0.44,-0.63,2.86,
4.82,12.86,4.98,-0.83,-0.46,-0.63,3.05,
4.82,10.05,4.55,-1.32,-0.46,-0.63,3.05,
4.82,10.05,4.55,-1.32,-0.44,-0.61,3.23,
4.821,10.05,4.55,-1.32,-0.44,-0.58,3.39,
4.821,7.91,4.85,-2.65,-0.44,-0.58,3.39,
4.822,7.91,4.85,-2.65,-0.49,-0.49,3.47,
4.822,7.91,4.85,-2.65,-0.57,-0.30,3.44,
4.822,6.31,5.25,-4.19,-0.57,-0.30,3.44,
4.823,6.31,5.25,-4.19,-0.65,-0.02,3.26,
4.823,6.31,5.25,-4.19,-0.70,0.34,2.98,
4.823,2.43,6.30,-2.88,-0.70,0.34,2.98,
4.824,2.43,6.30,-2.88,-0.69,0.73,2.65,
4.824,2.43,6.30,-2.88,-0.63,1.12,2.30,
4.824,-3.90,9.52,1.92,-0.63,1.12,2.30,
4.825,-3.90,9.52,1.92,-0.55,1.43,1.95,
4.825,-7.95,12.72,5.97,-0.55,1.43,1.95,
4.826,-7.95,12.72,5.97,-0.48,1.60,1.65,
4.826,-7.95,12.72,5.97,-0.29,1.51,1.54,
4.826,-12.20,13.76,9.34,-0.29,1.51,1.54,
4.827,-12.20,13.76,9.34,-0.01,1.12,1.66,
4.828,-12.20,13.76,9.34,0.28,0.40,1.95,
4.828,-12.20,13.76,9.34,0.55,-0.63,2.38,
4.828,-13.30,12.55,6.20,0.55,-0.63,2.38,
4.829,-13.30,12.55,6.20,0.63,-1.81,2.87,
4.831,-12.83,10.61,-1.33,0.63,-1.81,2.87,
4.831,-12.83,10.61,-1.33,0.59,-3.03,3.43,
4.834,-12.83,10.61,-1.33,0.35,-4.07,4.04,
4.838,-11.95,9.25,-6.90,0.35,-4.07,4.04,
4.839,-11.95,9.25,-6.90,-0.00,-4.87,4.68,
4.839,-11.95,9.25,-6.90,-0.34,-5.42,5.28,
4.841,-4.15,8.61,-6.05,-0.34,-5.42,5.28,
4.841,-4.15,8.61,-6.05,-0.59,-5.73,5.75,
4.843,-4.15,8.61,-6.05,-0.69,-5.77,6.09,
4.845,-4.15,8.61,-6.05,-0.70,-5.60,6.29,
4.845,3.99,5.81,-0.50,-0.70,-5.60,6.29,
4.848,3.99,5.81,-0.50,-0.63,-5.26,6.32,
4.851,3.99,5.81,-0.50,-0.50,-4.89,6.16,
4.851,13.40,0.21,5.54,-0.50,-4.89,6.16,
4.854,13.40,0.21,5.54,-0.35,-4.53,5.83,
4.856,13.40,0.21,5.54,-0.19,-4.22,5.41,
4.857,19.64,-4.73,6.77,-0.19,-4.22,5.41,
4.858,19.64,-4.73,6.77,-0.02,-3.93,4.99,
4.86,19.64,-4.73,6.77,0.16,-3.62,4.63,
4.86,19.21,-6.88,3.20,0.16,-3.62,4.63,
4.862,19.21,-6.88,3.20,0.31,-3.28,4.35,
4.865,17.49,-8.32,-2.41,0.31,-3.28,4.35,
4.865,17.49,-8.32,-2.41,0.42,-2.87,4.16,
4.873,17.49,-8.32,-2.41,0.46,-2.36,4.05,
4.874,16.54,-9.40,-7.44,0.46,-2.36,4.05,
4.874,16.54,-9.40,-7.44,0.39,-1.74,3.97,
4.875,16.54,-9.40,-7.44,0.27,-1.08,3.90,
4.875,17.88,-9.99,-6.96,0.27,-1.08,3.90,
4.876,17.88,-9.99,-6.96,0.12,-0.43,3.81,
4.878,17.88,-9.99,-6.96,-0.02,0.17,3.64,
4.88,17.88,-9.99,-6.96,-0.10,0.67,3.37,
4.881,20.90,-9.20,-0.87,-0.10,0.67,3.37,
4.883,20.90,-9.20,-0.87,-0.09,1.08,3.00,
4.89,23.01,-6.75,5.04,-0.09,1.08,3.00,
4.89,23.01,-6.75,5.04,-0.02,1.38,2.56,
4.891,23.01,-6.75,5.04,0.12,1.61,2.09,
4.891,20.76,-2.40,6.44,0.12,1.61,2.09,
4.891,20.76,-2.40,6.44,0.26,1.80,1.67,
4.893,20.76,-2.40,6.44,0.41,1.96,1.35,
4.895,14.31,1.47,4.72,0.41,1.96,1.35,
4.895,14.31,1.47,4.72,0.54,2.11,1.11,
4.897,14.31,1.47,4.72,0.64,2.23,0.91,
4.9,14.31,1.47,4.72,0.70,2.29,0.76,
4.9,8.37,2.89,3.26,0.70,2.29,0.76,
4.902,8.37,2.89,3.26,0.75,2.33,0.65,
4.906,8.37,2.89,3.26,0.79,2.43,0.60,
4.907,2.58,3.07,1.92,0.79,2.43,0.60,
4.908,2.58,3.07,1.92,0.83,2.56,0.61,
4.909,2.58,3.07,1.92,0.86,2.63,0.68,
4.91,-2.53,2.59,1.33,0.86,2.63,0.68,
4.912,-2.53,2.59,1.33,0.88,2.58,0.80,
4.915,-5.88,1.37,0.14,0.88,2.58,0.80,
4.915,-5.88,1.37,0.14,0.84,2.33,0.94,
4.917,-5.88,1.37,0.14,0.77,1.93,1.08,
4.92,-5.88,1.37,0.14,0.68,1.52,1.19,
4.921,-6.89,0.46,-0.62,0.68,1.52,1.19,
4.923,-6.89,0.46,-0.62,0.61,1.17,1.25,
4.925,-6.89,0.46,-0.62,0.55,0.91,1.27,
4.925,-5.96,0.00,-0.53,0.55,0.91,1.27,
4.927,-5.96,0.00,-0.53,0.51,0.72,1.27,
4.93,-5.96,0.00,-0.53,0.46,0.51,1.28,
4.93,-5.65,-0.25,0.01,0.46,0.51,1.28,
4.932,-5.65,-0.25,0.01,0.42,0.29,1.31,
4.936,-5.65,-0.25,0.01,0.36,0.07,1.38,
4.937,-5.57,-0.47,-0.18,0.36,0.07,1.38,
4.938,-5.57,-0.47,-0.18,0.30,-0.15,1.48,
4.963,-3.65,-0.57,-0.13,0.30,-0.15,1.48,
4.963,-3.65,-0.57,-0.13,0.25,-0.34,1.55,
4.964,-3.65,-0.57,-0.13,0.21,-0.51,1.60,
4.964,-1.11,-0.56,0.32,0.21,-0.51,1.60,
4.964,-1.11,-0.56,0.32,0.19,-0.62,1.62,
