
time,ax,ay,az,wx,wy,wz,
0.002,-0.17,0.94,-0.30,0.31,0.17,-0.15,
0.002,-0.15,0.98,-0.21,0.31,0.17,-0.15,
0.002,-0.15,0.98,-0.21,0.28,0.16,-0.14,
0.002,-0.15,0.98,-0.21,0.26,0.16,-0.13,
0.002,-0.10,0.98,-0.09,0.26,0.16,-0.13,
0.002,-0.10,0.98,-0.09,0.24,0.16,-0.11,
0.003,-0.10,0.98,-0.09,0.23,0.15,-0.10,
0.003,-0.05,0.99,0.03,0.23,0.15,-0.10,
0.005,-0.05,0.99,0.03,0.22,0.15,-0.08,
0.008,-0.16,1.08,0.06,0.22,0.15,-0.08,
0.008,-0.16,1.08,0.06,0.21,0.15,-0.06,
0.01,-0.16,1.08,0.06,0.20,0.16,-0.03,
0.012,-0.16,1.08,0.06,0.19,0.16,-0.01,
0.013,-0.23,1.19,0.03,0.19,0.16,-0.01,
0.015,-0.23,1.19,0.03,0.17,0.17,0.02,
0.017,-0.23,1.19,0.03,0.16,0.17,0.04,
0.018,-0.25,1.24,-0.10,0.16,0.17,0.04,
0.021,-0.25,1.24,-0.10,0.14,0.17,0.07,
0.022,-0.25,1.24,-0.10,0.12,0.16,0.09,
0.023,-0.19,1.08,-0.08,0.12,0.16,0.09,
0.025,-0.19,1.08,-0.08,0.10,0.14,0.10,
0.027,-0.19,1.08,-0.08,0.09,0.11,0.11,
0.028,-0.24,0.83,0.08,0.09,0.11,0.11,
0.03,-0.24,0.83,0.08,0.07,0.09,0.13,
0.032,-0.24,0.83,0.08,0.05,0.08,0.14,
0.032,-0.32,0.71,0.13,0.05,0.08,0.14,
0.034,-0.32,0.71,0.13,0.04,0.08,0.15,
0.037,-0.32,0.71,0.13,0.02,0.07,0.15,
0.037,-0.19,0.61,0.17,0.02,0.07,0.15,
0.039,-0.19,0.61,0.17,0.01,0.06,0.16,
0.043,-0.05,0.52,0.26,0.01,0.06,0.16,
0.043,-0.05,0.52,0.26,0.00,0.05,0.16,
0.046,-0.05,0.52,0.26,-0.01,0.04,0.16,
0.047,-0.05,0.52,0.26,-0.01,0.03,0.15,
0.047,-0.06,0.47,0.37,-0.01,0.03,0.15,
0.049,-0.06,0.47,0.37,-0.01,0.02,0.15,
0.052,-0.06,0.47,0.37,-0.01,0.01,0.15,
0.052,-0.02,0.39,0.47,-0.01,0.01,0.15,
0.054,-0.02,0.39,0.47,-0.01,-0.00,0.15,
0.058,0.03,0.38,0.57,-0.01,-0.00,0.15,
0.058,0.03,0.38,0.57,-0.00,-0.01,0.15,
0.06,0.03,0.38,0.57,0.01,-0.01,0.14,
0.062,0.03,0.38,0.57,0.02,-0.02,0.14,
0.062,0.12,0.39,0.64,0.02,-0.02,0.14,
0.065,0.12,0.39,0.64,0.04,-0.03,0.13,
0.067,0.12,0.39,0.64,0.06,-0.03,0.12,
0.067,0.20,0.45,0.66,0.06,-0.03,0.12,
0.069,0.20,0.45,0.66,0.07,-0.04,0.12,
0.072,0.20,0.45,0.66,0.09,-0.04,0.11,
0.072,0.28,0.53,0.61,0.09,-0.04,0.11,
0.075,0.28,0.53,0.61,0.11,-0.03,0.11,
0.078,0.28,0.53,0.61,0.12,-0.02,0.10,
0.078,0.32,0.66,0.44,0.12,-0.02,0.10,
0.079,0.32,0.66,0.44,0.13,0.00,0.10,
0.082,0.32,0.66,0.44,0.14,0.03,0.11,
0.082,0.27,0.78,0.17,0.14,0.03,0.11,
0.084,0.27,0.78,0.17,0.14,0.06,0.11,
0.087,0.27,0.78,0.17,0.14,0.10,0.12,
0.087,0.17,0.89,0.01,0.14,0.10,0.12,
0.089,0.17,0.89,0.01,0.14,0.13,0.13,
0.092,0.00,0.91,-0.06,0.14,0.13,0.13,
0.093,0.00,0.91,-0.06,0.13,0.16,0.13,
0.094,0.00,0.91,-0.06,0.13,0.18,0.14,
0.097,0.00,0.91,-0.06,0.13,0.21,0.15,
0.097,-0.17,0.92,0.02,0.13,0.21,0.15,
0.101,-0.17,0.92,0.02,0.13,0.23,0.16,
0.101,-0.17,0.92,0.02,0.13,0.25,0.17,
0.102,-0.28,0.95,0.24,0.13,0.25,0.17,
0.105,-0.28,0.95,0.24,0.13,0.26,0.18,
0.107,-0.28,0.95,0.24,0.14,0.27,0.18,
0.107,-0.29,1.07,0.41,0.14,0.27,0.18,
0.109,-0.29,1.07,0.41,0.14,0.28,0.20,
0.112,-0.28,1.27,0.48,0.14,0.28,0.20,
0.112,-0.28,1.27,0.48,0.15,0.29,0.21,
0.114,-0.28,1.27,0.48,0.15,0.30,0.22,
0.117,-0.28,1.27,0.48,0.15,0.31,0.24,
0.117,-0.34,1.47,0.48,0.15,0.31,0.24,
0.119,-0.34,1.47,0.48,0.15,0.32,0.25,
0.124,-0.34,1.47,0.48,0.15,0.34,0.28,
0.124,-0.42,1.54,0.41,0.15,0.34,0.28,
0.125,-0.42,1.54,0.41,0.14,0.35,0.31,
0.127,-0.55,1.43,0.26,0.14,0.35,0.31,
0.127,-0.55,1.43,0.26,0.13,0.36,0.33,
0.129,-0.55,1.43,0.26,0.11,0.38,0.36,
0.131,-0.55,1.43,0.26,0.09,0.40,0.39,
0.132,-0.75,1.19,0.11,0.09,0.40,0.39,
0.134,-0.75,1.19,0.11,0.07,0.42,0.42,
0.136,-0.75,1.19,0.11,0.04,0.44,0.45,
0.137,-0.96,0.76,0.09,0.04,0.44,0.45,
0.139,-0.96,0.76,0.09,0.01,0.47,0.47,
0.142,-0.95,0.30,0.31,0.01,0.47,0.47,
0.142,-0.95,0.30,0.31,-0.03,0.49,0.48,
0.144,-0.95,0.30,0.31,-0.06,0.51,0.49,
0.147,-1.07,-0.14,0.70,-0.06,0.51,0.49,
0.147,-1.07,-0.14,0.70,-0.09,0.53,0.50,
0.149,-1.07,-0.14,0.70,-0.13,0.55,0.50,
0.152,-1.07,-0.14,0.70,-0.16,0.56,0.51,
0.153,-1.29,-0.56,1.26,-0.16,0.56,0.51,
0.154,-1.29,-0.56,1.26,-0.19,0.57,0.52,
0.157,-1.29,-0.56,1.26,-0.22,0.57,0.54,
0.158,-1.61,-0.70,1.80,-0.22,0.57,0.54,
0.165,-1.61,-0.70,1.80,-0.24,0.55,0.56,
0.165,-1.38,-0.80,2.34,-0.24,0.55,0.56,
0.165,-1.38,-0.80,2.34,-0.27,0.53,0.57,
0.166,-1.38,-0.80,2.34,-0.29,0.51,0.58,
0.166,-1.38,-0.80,2.34,-0.30,0.48,0.58,
0.166,-1.28,-0.90,2.70,-0.30,0.48,0.58,
0.168,-1.28,-0.90,2.70,-0.31,0.45,0.59,
0.172,-1.28,-0.90,2.70,-0.32,0.41,0.60,
0.172,-1.42,-0.98,2.79,-0.32,0.41,0.60,
0.174,-1.42,-0.98,2.79,-0.33,0.37,0.61,
0.177,-1.42,-0.98,2.79,-0.35,0.32,0.62,
0.177,-1.45,-1.01,2.80,-0.35,0.32,0.62,
0.179,-1.45,-1.01,2.80,-0.36,0.28,0.62,
0.181,-1.45,-1.01,2.80,-0.37,0.23,0.63,
0.181,-1.41,-1.03,2.72,-0.37,0.23,0.63,
0.183,-1.41,-1.03,2.72,-0.38,0.18,0.63,
0.186,-1.42,-1.06,2.54,-0.38,0.18,0.63,
0.186,-1.42,-1.06,2.54,-0.39,0.13,0.63,
0.188,-1.42,-1.06,2.54,-0.40,0.09,0.63,
0.191,-1.42,-1.06,2.54,-0.40,0.05,0.62,
0.191,-1.36,-1.07,2.31,-0.40,0.05,0.62,
0.194,-1.36,-1.07,2.31,-0.40,0.02,0.62,
0.196,-1.29,-1.10,2.06,-0.40,0.02,0.62,
0.196,-1.29,-1.10,2.06,-0.40,-0.02,0.61,
0.2,-1.29,-1.10,2.06,-0.40,-0.04,0.60,
0.201,-1.29,-1.10,2.06,-0.40,-0.07,0.59,
0.201,-1.27,-1.13,1.80,-0.40,-0.07,0.59,
0.203,-1.27,-1.13,1.80,-0.39,-0.08,0.58,
0.206,-1.27,-1.13,1.80,-0.38,-0.09,0.57,
0.206,-1.23,-1.14,1.55,-0.38,-0.09,0.57,
0.209,-1.23,-1.14,1.55,-0.36,-0.10,0.57,
0.212,-1.20,-1.15,1.34,-0.36,-0.10,0.57,
0.213,-1.20,-1.15,1.34,-0.35,-0.10,0.55,
0.215,-1.20,-1.15,1.34,-0.32,-0.10,0.55,
0.216,-1.16,-1.10,1.16,-0.32,-0.10,0.55,
0.216,-1.16,-1.10,1.16,-0.30,-0.09,0.54,
0.219,-1.16,-1.10,1.16,-0.27,-0.08,0.53,
0.222,-1.08,-1.06,0.95,-0.27,-0.08,0.53,
0.222,-1.08,-1.06,0.95,-0.24,-0.07,0.53,
0.224,-1.08,-1.06,0.95,-0.21,-0.05,0.52,
0.226,-1.00,-1.06,0.73,-0.21,-0.05,0.52,
0.227,-1.00,-1.06,0.73,-0.18,-0.03,0.52,
0.228,-1.00,-1.06,0.73,-0.15,-0.01,0.52,
0.249,-0.93,-1.02,0.61,-0.15,-0.01,0.52,
0.25,-0.93,-1.02,0.61,-0.11,0.02,0.52,
0.251,-0.93,-1.02,0.61,-0.08,0.05,0.51,
0.251,-0.93,-1.02,0.61,-0.05,0.07,0.51,
0.251,-0.81,-1.00,0.50,-0.05,0.07,0.51,
0.251,-0.81,-1.00,0.50,-0.01,0.10,0.51,
0.251,-0.74,-0.97,0.39,-0.01,0.10,0.51,
0.252,-0.74,-0.97,0.39,0.02,0.13,0.51,
0.252,-0.74,-0.97,0.39,0.04,0.15,0.51,
0.252,-0.65,-0.97,0.32,0.04,0.15,0.51,
0.252,-0.65,-0.97,0.32,0.07,0.18,0.52,
0.252,-0.65,-0.97,0.32,0.10,0.20,0.52,
0.252,-0.56,-1.00,0.31,0.10,0.20,0.52,
0.253,-0.56,-1.00,0.31,0.12,0.22,0.52,
0.253,-0.56,-1.00,0.31,0.14,0.24,0.52,
0.255,-0.56,-1.00,0.31,0.16,0.26,0.52,
0.256,-0.53,-1.06,0.32,0.16,0.26,0.52,
0.261,-0.53,-1.06,0.32,0.17,0.27,0.52,
0.261,-0.49,-1.14,0.33,0.17,0.27,0.52,
0.261,-0.49,-1.14,0.33,0.19,0.28,0.52,
0.263,-0.49,-1.14,0.33,0.20,0.28,0.51,
0.265,-0.49,-1.14,0.33,0.20,0.28,0.51,
0.266,-0.48,-1.23,0.35,0.20,0.28,0.51,
0.268,-0.48,-1.23,0.35,0.21,0.28,0.51,
0.27,-0.44,-1.28,0.37,0.21,0.28,0.51,
0.27,-0.44,-1.28,0.37,0.21,0.26,0.50,
0.273,-0.44,-1.28,0.37,0.22,0.25,0.50,
0.281,-0.44,-1.28,0.37,0.21,0.24,0.49,
0.281,-0.41,-1.33,0.33,0.21,0.24,0.49,
0.281,-0.41,-1.33,0.33,0.21,0.22,0.48,
0.282,-0.41,-1.33,0.33,0.20,0.21,0.48,
0.282,-0.38,-1.36,0.29,0.20,0.21,0.48,
0.284,-0.38,-1.36,0.29,0.19,0.19,0.48,
0.285,-0.38,-1.36,0.29,0.18,0.18,0.47,
0.285,-0.29,-1.38,0.18,0.18,0.18,0.47,
0.288,-0.29,-1.38,0.18,0.17,0.16,0.46,
0.291,-0.29,-1.38,0.18,0.16,0.15,0.46,
0.291,-0.22,-1.39,0.05,0.16,0.15,0.46,
0.293,-0.22,-1.39,0.05,0.15,0.13,0.46,
0.295,-0.14,-1.40,-0.12,0.15,0.13,0.46,
0.295,-0.14,-1.40,-0.12,0.13,0.11,0.45,
0.297,-0.14,-1.40,-0.12,0.12,0.09,0.44,
0.302,-0.14,-1.40,-0.12,0.10,0.07,0.44,
0.302,-0.10,-1.36,-0.30,0.10,0.07,0.44,
0.302,-0.10,-1.36,-0.30,0.09,0.05,0.43,
0.306,-0.10,-1.36,-0.30,0.07,0.04,0.43,
0.306,-0.07,-1.34,-0.46,0.07,0.04,0.43,
0.308,-0.07,-1.34,-0.46,0.05,0.02,0.42,
0.31,-0.07,-1.34,-0.46,0.04,0.00,0.42,
0.311,-0.08,-1.29,-0.58,0.04,0.00,0.42,
0.312,-0.08,-1.29,-0.58,0.02,-0.01,0.42,
0.315,-0.08,-1.29,-0.58,0.01,-0.02,0.43,
0.315,-0.48,-0.93,-0.77,0.01,-0.02,0.43,
0.317,-0.48,-0.93,-0.77,-0.01,-0.04,0.45,
0.32,-0.48,-0.93,-0.77,-0.02,-0.05,0.46,
0.32,-0.28,-0.82,-0.77,-0.02,-0.05,0.46,
0.322,-0.28,-0.82,-0.77,-0.03,-0.06,0.47,
0.326,-0.28,-0.82,-0.77,-0.04,-0.07,0.47,
0.326,-0.26,-0.74,-0.88,-0.04,-0.07,0.47,
0.327,-0.26,-0.74,-0.88,-0.05,-0.07,0.48,
0.33,-0.26,-0.74,-0.88,-0.06,-0.08,0.49,
0.33,-0.27,-0.75,-0.98,-0.06,-0.08,0.49,
0.332,-0.27,-0.75,-0.98,-0.07,-0.07,0.50,
0.335,-0.27,-0.75,-0.98,-0.08,-0.07,0.50,
0.335,-0.21,-0.78,-1.04,-0.08,-0.07,0.50,
0.337,-0.21,-0.78,-1.04,-0.10,-0.07,0.51,
0.34,-0.21,-0.78,-1.04,-0.10,-0.07,0.51,
0.34,-0.11,-0.78,-1.07,-0.10,-0.07,0.51,
0.343,-0.11,-0.78,-1.07,-0.11,-0.07,0.51,
0.347,-0.11,-0.78,-1.07,-0.12,-0.07,0.52,
0.347,-0.08,-0.71,-1.07,-0.12,-0.07,0.52,
0.348,-0.08,-0.71,-1.07,-0.13,-0.07,0.52,
0.35,-0.08,-0.71,-1.07,-0.14,-0.07,0.52,
0.35,-0.03,-0.69,-1.06,-0.14,-0.07,0.52,
0.352,-0.03,-0.69,-1.06,-0.14,-0.07,0.52,
0.354,-0.03,-0.69,-1.06,-0.15,-0.07,0.52,
0.355,-0.03,-0.67,-1.04,-0.15,-0.07,0.52,
0.357,-0.03,-0.67,-1.04,-0.15,-0.08,0.53,
0.36,-0.03,-0.67,-1.04,-0.15,-0.08,0.53,
0.361,-0.00,-0.68,-1.01,-0.15,-0.08,0.53,
0.362,-0.00,-0.68,-1.01,-0.15,-0.09,0.53,
0.365,-0.00,-0.68,-1.01,-0.15,-0.09,0.53,
0.365,0.02,-0.68,-0.97,-0.15,-0.09,0.53,
0.367,0.02,-0.68,-0.97,-0.15,-0.10,0.53,
0.37,0.02,-0.68,-0.97,-0.15,-0.11,0.54,
0.37,0.05,-0.67,-0.95,-0.15,-0.11,0.54,
0.372,0.05,-0.67,-0.95,-0.15,-0.12,0.54,
0.378,0.08,-0.69,-0.96,-0.15,-0.12,0.54,
0.378,0.08,-0.69,-0.96,-0.14,-0.12,0.54,
0.379,0.08,-0.69,-0.96,-0.14,-0.13,0.54,
0.38,0.08,-0.69,-0.96,-0.13,-0.13,0.53,
0.384,0.18,-0.76,-0.99,-0.13,-0.13,0.53,
0.384,0.18,-0.76,-0.99,-0.13,-0.14,0.53,
0.385,0.18,-0.76,-0.99,-0.13,-0.14,0.52,
0.385,0.25,-0.82,-1.02,-0.13,-0.14,0.52,
0.387,0.25,-0.82,-1.02,-0.13,-0.15,0.51,
0.39,0.25,-0.82,-1.02,-0.13,-0.15,0.50,
0.391,0.29,-0.88,-1.03,-0.13,-0.15,0.50,
0.393,0.29,-0.88,-1.03,-0.12,-0.15,0.49,
0.394,0.37,-0.88,-0.98,-0.12,-0.15,0.49,
0.407,0.37,-0.88,-0.98,-0.12,-0.15,0.48,
0.408,0.37,-0.88,-0.98,-0.12,-0.15,0.47,
0.408,0.37,-0.88,-0.98,-0.12,-0.15,0.46,
0.409,0.43,-0.88,-0.96,-0.12,-0.15,0.46,
0.409,0.43,-0.88,-0.96,-0.12,-0.15,0.44,
0.409,0.43,-0.88,-0.96,-0.11,-0.15,0.43,
0.41,0.53,-0.91,-0.90,-0.11,-0.15,0.43,
0.41,0.53,-0.91,-0.90,-0.11,-0.15,0.41,
0.411,0.53,-0.91,-0.90,-0.11,-0.14,0.40,
0.411,0.43,-0.84,-0.89,-0.11,-0.14,0.40,
0.413,0.43,-0.84,-0.89,-0.11,-0.13,0.39,
0.414,0.43,-0.84,-0.89,-0.11,-0.12,0.38,
0.415,0.37,-0.70,-0.83,-0.11,-0.12,0.38,
0.417,0.37,-0.70,-0.83,-0.11,-0.11,0.37,
0.42,0.37,-0.70,-0.83,-0.11,-0.10,0.36,
0.42,0.30,-0.57,-0.79,-0.11,-0.10,0.36,
0.422,0.30,-0.57,-0.79,-0.11,-0.10,0.35,
0.427,0.30,-0.57,-0.79,-0.11,-0.09,0.34,
0.427,0.30,-0.57,-0.79,-0.11,-0.09,0.34,
0.427,0.25,-0.46,-0.73,-0.11,-0.09,0.34,
0.429,0.21,-0.38,-0.70,-0.11,-0.09,0.34,
0.429,0.21,-0.38,-0.70,-0.12,-0.08,0.32,
0.431,0.21,-0.38,-0.70,-0.12,-0.08,0.31,
0.434,0.21,-0.38,-0.70,-0.12,-0.07,0.30,
0.434,0.18,-0.34,-0.63,-0.12,-0.07,0.30,
0.438,0.18,-0.34,-0.63,-0.13,-0.06,0.29,
0.439,0.18,-0.34,-0.63,-0.13,-0.05,0.28,
0.44,0.13,-0.30,-0.54,-0.13,-0.05,0.28,
0.446,0.13,-0.30,-0.54,-0.14,-0.04,0.27,
0.446,0.08,-0.25,-0.47,-0.14,-0.04,0.27,
0.446,0.08,-0.25,-0.47,-0.14,-0.04,0.25,
0.446,0.08,-0.25,-0.47,-0.15,-0.03,0.24,
0.45,0.03,-0.23,-0.41,-0.15,-0.03,0.24,
0.45,0.03,-0.23,-0.41,-0.16,-0.03,0.23,
0.451,0.03,-0.23,-0.41,-0.16,-0.03,0.21,
0.454,0.03,-0.23,-0.41,-0.17,-0.03,0.20,
0.454,-0.03,-0.21,-0.33,-0.17,-0.03,0.20,
0.456,-0.03,-0.21,-0.33,-0.18,-0.03,0.19,
0.459,-0.03,-0.21,-0.33,-0.19,-0.04,0.17,
0.46,-0.11,-0.19,-0.23,-0.19,-0.04,0.17,
0.461,-0.11,-0.19,-0.23,-0.20,-0.04,0.16,
0.464,-0.11,-0.19,-0.23,-0.21,-0.05,0.14,
0.464,-0.14,-0.19,-0.16,-0.21,-0.05,0.14,
0.466,-0.14,-0.19,-0.16,-0.22,-0.06,0.13,
0.469,-0.14,-0.19,-0.16,-0.23,-0.07,0.12,
0.469,-0.20,-0.20,-0.10,-0.23,-0.07,0.12,
0.471,-0.20,-0.20,-0.10,-0.23,-0.08,0.10,
0.474,-0.20,-0.20,-0.10,-0.24,-0.10,0.09,
0.474,-0.23,-0.22,-0.05,-0.24,-0.10,0.09,
0.479,-0.23,-0.22,-0.05,-0.24,-0.11,0.07,
0.48,-0.23,-0.22,-0.05,-0.24,-0.12,0.06,
0.48,-0.24,-0.22,0.01,-0.24,-0.12,0.06,
0.481,-0.24,-0.22,0.01,-0.24,-0.14,0.05,
0.483,-0.24,-0.22,0.01,-0.23,-0.15,0.04,
0.484,-0.26,-0.22,0.04,-0.23,-0.15,0.04,
0.486,-0.26,-0.22,0.04,-0.23,-0.16,0.03,
0.488,-0.26,-0.22,0.04,-0.22,-0.17,0.01,
0.489,-0.25,-0.23,0.04,-0.22,-0.17,0.01,
0.492,-0.25,-0.23,0.04,-0.21,-0.18,0.00,
0.495,-0.25,-0.23,0.04,-0.20,-0.19,-0.01,
0.496,-0.22,-0.19,0.07,-0.20,-0.19,-0.01,
0.496,-0.22,-0.19,0.07,-0.19,-0.19,-0.02,
0.499,-0.22,-0.19,0.07,-0.18,-0.20,-0.03,
0.499,-0.19,-0.17,0.12,-0.18,-0.20,-0.03,
0.501,-0.19,-0.17,0.12,-0.16,-0.21,-0.04,
0.503,-0.19,-0.17,0.12,-0.14,-0.22,-0.06,
0.504,-0.13,-0.14,0.15,-0.14,-0.22,-0.06,
0.507,-0.13,-0.14,0.15,-0.12,-0.22,-0.07,
0.509,-0.13,-0.14,0.15,-0.10,-0.23,-0.08,
0.509,-0.06,-0.08,0.18,-0.10,-0.23,-0.08,
0.511,-0.06,-0.08,0.18,-0.07,-0.23,-0.09,
0.513,-0.06,-0.08,0.18,-0.05,-0.24,-0.11,
0.514,0.05,-0.02,0.20,-0.05,-0.24,-0.11,
0.516,0.05,-0.02,0.20,-0.02,-0.24,-0.12,
0.519,0.05,-0.02,0.20,0.00,-0.24,-0.14,
0.519,0.13,0.01,0.19,0.00,-0.24,-0.14,
0.522,0.13,0.01,0.19,0.03,-0.24,-0.16,
0.526,0.14,0.04,0.17,0.03,-0.24,-0.16,
0.526,0.14,0.04,0.17,0.06,-0.24,-0.18,
0.526,0.14,0.04,0.17,0.08,-0.24,-0.20,
0.528,0.13,0.12,0.15,0.08,-0.24,-0.20,
0.529,0.13,0.12,0.15,0.11,-0.24,-0.22,
0.531,0.13,0.12,0.15,0.13,-0.24,-0.24,
0.533,0.13,0.12,0.15,0.16,-0.24,-0.26,
0.534,0.09,0.26,0.12,0.16,-0.24,-0.26,
0.539,0.09,0.26,0.12,0.18,-0.24,-0.27,
0.539,0.09,0.26,0.12,0.20,-0.23,-0.28,
0.54,0.01,0.41,0.09,0.20,-0.23,-0.28,
0.547,-0.04,0.55,0.00,0.20,-0.23,-0.28,
0.551,-0.11,0.67,-0.08,0.20,-0.23,-0.28,
0.556,-0.17,0.78,-0.12,0.20,-0.23,-0.28,
0.556,-0.17,0.78,-0.12,0.22,-0.24,-0.30,
0.556,-0.17,0.78,-0.12,0.24,-0.24,-0.31,
0.556,-0.17,0.78,-0.12,0.25,-0.24,-0.31,
0.556,-0.17,0.78,-0.12,0.26,-0.23,-0.32,
0.557,-0.17,0.78,-0.12,0.27,-0.23,-0.32,
0.557,-0.17,0.78,-0.12,0.28,-0.23,-0.33,
0.557,-0.17,0.78,-0.12,0.28,-0.23,-0.32,
0.56,-0.24,0.89,-0.12,0.28,-0.23,-0.32,
0.56,-0.24,0.89,-0.12,0.29,-0.22,-0.32,
0.572,-0.24,0.89,-0.12,0.29,-0.22,-0.32,
0.572,-0.24,0.89,-0.12,0.29,-0.22,-0.32,
0.572,-0.24,0.89,-0.12,0.29,-0.22,-0.32,
0.573,-0.27,0.96,-0.07,0.29,-0.22,-0.32,
0.574,-0.33,1.00,0.01,0.29,-0.22,-0.32,
0.574,-0.33,1.00,0.01,0.30,-0.22,-0.32,
0.574,-0.33,1.00,0.01,0.30,-0.22,-0.31,
0.574,-0.33,1.00,0.01,0.29,-0.21,-0.31,
0.575,-0.38,1.03,0.08,0.29,-0.21,-0.31,
0.586,-0.38,1.03,0.08,0.29,-0.21,-0.30,
0.586,-0.43,1.06,0.16,0.29,-0.21,-0.30,
0.586,-0.43,1.06,0.16,0.29,-0.21,-0.30,
0.586,-0.43,1.06,0.16,0.29,-0.22,-0.29,
0.587,-0.43,1.06,0.16,0.28,-0.22,-0.30,
0.587,-0.43,1.06,0.16,0.28,-0.23,-0.31,
0.587,-0.15,0.94,0.29,0.28,-0.23,-0.31,
0.591,-0.15,0.94,0.29,0.28,-0.24,-0.32,
0.591,0.02,0.73,0.39,0.28,-0.24,-0.32,
0.591,0.02,0.73,0.39,0.27,-0.25,-0.33,
0.593,0.02,0.73,0.39,0.27,-0.26,-0.34,
0.594,0.12,0.53,0.53,0.27,-0.26,-0.34,
0.596,0.12,0.53,0.53,0.27,-0.27,-0.35,
0.598,0.18,0.41,0.63,0.27,-0.27,-0.35,
0.598,0.18,0.41,0.63,0.27,-0.28,-0.37,
0.601,0.18,0.41,0.63,0.26,-0.29,-0.37,
0.603,0.03,0.43,0.68,0.26,-0.29,-0.37,
0.603,0.03,0.43,0.68,0.26,-0.31,-0.38,
0.605,0.03,0.43,0.68,0.25,-0.32,-0.38,
0.608,0.03,0.43,0.68,0.25,-0.34,-0.37,
0.609,-0.09,0.60,0.70,0.25,-0.34,-0.37,
0.611,-0.09,0.60,0.70,0.24,-0.36,-0.36,
0.612,-0.09,0.60,0.70,0.23,-0.38,-0.35,
0.613,-0.05,0.64,0.68,0.23,-0.38,-0.35,
0.615,-0.05,0.64,0.68,0.22,-0.40,-0.34,
0.618,-0.05,0.64,0.68,0.21,-0.42,-0.34,
0.618,-0.01,0.57,0.61,0.21,-0.42,-0.34,
0.623,-0.01,0.57,0.61,0.20,-0.43,-0.33,
0.623,-0.01,0.57,0.61,0.19,-0.45,-0.32,
0.624,0.16,0.46,0.55,0.19,-0.45,-0.32,
0.626,0.16,0.46,0.55,0.19,-0.47,-0.32,
0.628,0.41,0.34,0.50,0.19,-0.47,-0.32,
0.63,0.41,0.34,0.50,0.18,-0.49,-0.32,
0.631,0.41,0.34,0.50,0.17,-0.51,-0.33,
0.632,0.67,0.27,0.44,0.17,-0.51,-0.33,
0.633,0.67,0.27,0.44,0.16,-0.53,-0.35,
0.635,0.67,0.27,0.44,0.15,-0.54,-0.36,
0.637,0.90,0.22,0.32,0.15,-0.54,-0.36,
0.638,0.90,0.22,0.32,0.15,-0.56,-0.38,
0.641,0.90,0.22,0.32,0.14,-0.56,-0.40,
0.644,0.90,0.22,0.32,0.13,-0.56,-0.43,
0.648,1.09,0.16,0.20,0.13,-0.56,-0.43,
0.648,1.09,0.16,0.20,0.13,-0.56,-0.45,
0.661,1.15,0.13,0.10,0.13,-0.56,-0.45,
0.661,1.22,0.11,0.06,0.13,-0.56,-0.45,
0.661,1.21,0.12,0.04,0.13,-0.56,-0.45,
0.661,1.21,0.12,0.04,0.12,-0.55,-0.48,
0.662,1.21,0.12,0.04,0.12,-0.54,-0.50,
0.662,1.21,0.12,0.04,0.12,-0.52,-0.53,
0.662,1.21,0.12,0.04,0.12,-0.50,-0.55,
0.662,1.21,0.12,0.04,0.13,-0.48,-0.58,
0.662,1.21,0.12,0.04,0.13,-0.46,-0.61,
0.664,1.21,0.12,0.04,0.14,-0.44,-0.64,
0.664,1.36,0.17,0.07,0.14,-0.44,-0.64,
0.666,1.36,0.17,0.07,0.14,-0.43,-0.68,
0.667,1.36,0.17,0.07,0.15,-0.41,-0.71,
0.667,1.50,0.28,0.06,0.15,-0.41,-0.71,
0.669,1.50,0.28,0.06,0.16,-0.39,-0.75,
0.672,1.50,0.28,0.06,0.16,-0.38,-0.79,
0.673,1.68,0.55,-0.02,0.16,-0.38,-0.79,
0.674,1.68,0.55,-0.02,0.16,-0.36,-0.82,
0.677,1.68,0.55,-0.02,0.16,-0.34,-0.86,
0.677,1.75,0.82,-0.18,0.16,-0.34,-0.86,
0.68,1.75,0.82,-0.18,0.15,-0.32,-0.89,
0.682,1.75,0.82,-0.18,0.14,-0.28,-0.92,
0.682,1.61,0.97,-0.42,0.14,-0.28,-0.92,
0.684,1.61,0.97,-0.42,0.13,-0.24,-0.94,
0.687,1.33,0.93,-0.68,0.13,-0.24,-0.94,
0.687,1.33,0.93,-0.68,0.11,-0.19,-0.96,
0.689,1.33,0.93,-0.68,0.08,-0.14,-0.98,
0.692,1.00,0.76,-0.89,0.08,-0.14,-0.98,
0.692,1.00,0.76,-0.89,0.04,-0.08,-0.99,
0.695,1.00,0.76,-0.89,0.01,-0.02,-1.00,
0.697,1.00,0.76,-0.89,-0.03,0.05,-1.01,
0.699,0.71,0.56,-0.92,-0.03,0.05,-1.01,
0.7,0.71,0.56,-0.92,-0.08,0.13,-1.02,
0.703,0.44,0.40,-0.76,-0.08,0.13,-1.02,
0.703,0.44,0.40,-0.76,-0.11,0.20,-1.03,
0.704,0.44,0.40,-0.76,-0.15,0.26,-1.04,
0.707,0.44,0.40,-0.76,-0.17,0.32,-1.04,
0.707,-0.15,0.28,-0.28,-0.17,0.32,-1.04,
0.709,-0.15,0.28,-0.28,-0.19,0.37,-1.03,
0.712,-0.15,0.28,-0.28,-0.21,0.43,-1.02,
0.713,-0.64,0.44,-0.10,-0.21,0.43,-1.02,
0.715,-0.64,0.44,-0.10,-0.22,0.48,-1.00,
0.716,-0.92,0.78,0.42,-0.22,0.48,-1.00,
0.717,-0.92,0.78,0.42,-0.23,0.51,-0.97,
0.719,-0.92,0.78,0.42,-0.22,0.53,-0.95,
0.721,-0.76,0.93,0.78,-0.22,0.53,-0.95,
0.722,-0.76,0.93,0.78,-0.21,0.54,-0.92,
0.724,-0.76,0.93,0.78,-0.19,0.53,-0.89,
0.736,-0.55,0.88,0.97,-0.19,0.53,-0.89,
0.736,-0.55,0.88,0.97,-0.16,0.53,-0.86,
0.737,-0.55,0.88,0.97,-0.14,0.51,-0.83,
0.737,-0.52,0.76,1.03,-0.14,0.51,-0.83,
0.737,-0.52,0.76,1.03,-0.11,0.48,-0.79,
0.737,-0.52,0.76,1.03,-0.09,0.45,-0.76,
0.737,-0.52,0.76,1.03,-0.06,0.42,-0.73,
0.738,-0.52,0.53,0.97,-0.06,0.42,-0.73,
0.739,-0.52,0.53,0.97,-0.04,0.39,-0.70,
0.742,-0.52,0.53,0.97,-0.02,0.36,-0.67,
0.744,-0.46,0.29,0.78,-0.02,0.36,-0.67,
0.744,-0.46,0.29,0.78,0.00,0.34,-0.65,
0.746,-0.46,0.29,0.78,0.01,0.32,-0.63,
0.747,-0.27,0.03,0.53,0.01,0.32,-0.63,
0.749,-0.27,0.03,0.53,0.02,0.30,-0.61,
0.751,-0.27,0.03,0.53,0.03,0.28,-0.60,
0.752,-0.00,-0.24,0.28,0.03,0.28,-0.60,
0.754,-0.00,-0.24,0.28,0.04,0.27,-0.59,
0.756,-0.00,-0.24,0.28,0.04,0.27,-0.59,
0.757,0.13,-0.38,-0.07,0.04,0.27,-0.59,
0.761,0.13,-0.38,-0.07,0.04,0.28,-0.58,
0.762,0.13,-0.38,-0.07,0.04,0.28,-0.57,
0.762,0.21,-0.42,-0.38,0.04,0.28,-0.57,
0.765,0.21,-0.42,-0.38,0.04,0.30,-0.56,
0.766,0.21,-0.42,-0.38,0.03,0.33,-0.54,
0.766,0.36,-0.44,-0.66,0.03,0.33,-0.54,
0.771,0.36,-0.44,-0.66,0.03,0.36,-0.53,
0.772,0.36,-0.44,-0.66,0.03,0.40,-0.52,
0.772,0.54,-0.50,-1.05,0.03,0.40,-0.52,
0.773,0.54,-0.50,-1.05,0.03,0.44,-0.51,
0.776,0.54,-0.50,-1.05,0.04,0.52,-0.51,
0.778,0.54,-0.50,-1.05,0.06,0.68,-0.55,
0.779,0.70,-0.88,-1.79,0.06,0.68,-0.55,
0.781,0.70,-0.88,-1.79,0.10,0.84,-0.60,
0.781,1.00,-1.45,-2.34,0.10,0.84,-0.60,
0.783,1.00,-1.45,-2.34,0.13,0.95,-0.64,
0.788,1.00,-1.45,-2.34,0.14,1.03,-0.64,
0.788,1.03,-0.77,-2.42,0.14,1.03,-0.64,
0.788,1.03,-0.77,-2.42,0.13,1.09,-0.63,
0.791,1.03,-0.77,-2.42,0.11,1.14,-0.60,
0.791,1.04,-0.41,-2.52,0.11,1.14,-0.60,
0.795,1.04,-0.41,-2.52,0.09,1.19,-0.55,
0.796,0.91,-0.50,-2.69,0.09,1.19,-0.55,
0.796,0.91,-0.50,-2.69,0.07,1.23,-0.51,
0.798,0.91,-0.50,-2.69,0.06,1.29,-0.46,
0.802,0.91,-0.50,-2.69,0.05,1.35,-0.43,
0.802,0.88,-0.94,-2.90,0.05,1.35,-0.43,
0.804,0.88,-0.94,-2.90,0.05,1.42,-0.40,
0.806,0.88,-0.94,-2.90,0.05,1.51,-0.39,
0.807,1.01,-1.40,-3.11,0.05,1.51,-0.39,
0.808,1.01,-1.40,-3.11,0.06,1.60,-0.39,
0.812,1.01,-1.40,-3.11,0.07,1.70,-0.39,
0.812,0.97,-1.76,-3.20,0.07,1.70,-0.39,
0.813,0.97,-1.76,-3.20,0.08,1.79,-0.40,
0.816,0.97,-1.76,-3.20,0.09,1.89,-0.42,
0.816,0.77,-1.98,-3.17,0.09,1.89,-0.42,
0.818,0.77,-1.98,-3.17,0.10,1.97,-0.43,
0.82,0.77,-1.98,-3.17,0.11,2.03,-0.45,
0.821,0.57,-2.15,-2.97,0.11,2.03,-0.45,
0.823,0.57,-2.15,-2.97,0.13,2.08,-0.47,
0.826,0.57,-2.15,-2.97,0.15,2.12,-0.49,
0.826,0.40,-2.34,-2.77,0.15,2.12,-0.49,
0.828,0.40,-2.34,-2.77,0.17,2.15,-0.51,
0.83,0.40,-2.34,-2.77,0.19,2.17,-0.54,
0.831,0.29,-2.62,-2.62,0.19,2.17,-0.54,
0.833,0.29,-2.62,-2.62,0.22,2.19,-0.58,
0.836,0.29,-2.62,-2.62,0.24,2.20,-0.61,
0.836,0.28,-2.98,-2.50,0.24,2.20,-0.61,
0.84,0.28,-2.98,-2.50,0.26,2.24,-0.66,
0.841,0.28,-2.98,-2.50,0.30,2.32,-0.74,
0.841,0.73,-3.82,-2.79,0.30,2.32,-0.74,
0.85,0.73,-3.82,-2.79,0.33,2.39,-0.81,
0.851,0.73,-3.82,-2.79,0.37,2.45,-0.88,
0.851,0.67,-3.20,-2.61,0.37,2.45,-0.88,
0.851,0.67,-3.20,-2.61,0.40,2.49,-0.93,
0.851,0.67,-3.20,-2.61,0.42,2.53,-0.96,
0.852,0.54,-2.45,-2.35,0.42,2.53,-0.96,
0.852,0.54,-2.45,-2.35,0.45,2.55,-0.99,
0.856,0.54,-2.45,-2.35,0.47,2.56,-0.99,
0.856,0.45,-1.89,-2.02,0.47,2.56,-0.99,
0.857,0.45,-1.89,-2.02,0.49,2.54,-0.99,
0.862,0.45,-1.89,-2.02,0.51,2.51,-0.98,
0.862,0.48,-1.68,-1.88,0.51,2.51,-0.98,
0.863,0.48,-1.68,-1.88,0.54,2.47,-0.97,
0.865,0.61,-1.80,-1.92,0.54,2.47,-0.97,
0.867,0.61,-1.80,-1.92,0.55,2.42,-0.95,
0.867,0.61,-1.80,-1.92,0.57,2.37,-0.94,
0.87,0.61,-1.80,-1.92,0.58,2.32,-0.93,
0.87,0.88,-2.01,-2.12,0.58,2.32,-0.93,
0.873,0.88,-2.01,-2.12,0.58,2.28,-0.92,
0.875,1.12,-2.22,-2.38,0.58,2.28,-0.92,
0.876,1.12,-2.22,-2.38,0.59,2.25,-0.92,
0.881,1.12,-2.22,-2.38,0.60,2.22,-0.93,
0.881,1.33,-2.33,-2.64,0.60,2.22,-0.93,
0.881,1.33,-2.33,-2.64,0.61,2.21,-0.94,
0.882,1.33,-2.33,-2.64,0.61,2.21,-0.96,
0.885,1.51,-2.37,-2.80,0.61,2.21,-0.96,
0.885,1.51,-2.37,-2.80,0.62,2.20,-0.98,
0.887,1.51,-2.37,-2.80,0.64,2.21,-1.01,
0.89,1.66,-2.27,-2.86,0.64,2.21,-1.01,
0.905,1.66,-2.27,-2.86,0.66,2.21,-1.03,
0.905,1.66,-2.27,-2.86,0.68,2.21,-1.06,
0.906,1.66,-2.27,-2.86,0.70,2.21,-1.08,
0.906,1.79,-2.19,-2.82,0.70,2.21,-1.08,
0.906,1.79,-2.19,-2.82,0.73,2.20,-1.11,
0.906,1.79,-2.19,-2.82,0.75,2.19,-1.13,
0.907,1.90,-2.16,-2.78,0.75,2.19,-1.13,
0.907,1.90,-2.16,-2.78,0.78,2.18,-1.15,
0.907,1.90,-2.16,-2.78,0.80,2.15,-1.17,
0.907,2.02,-2.12,-2.77,0.80,2.15,-1.17,
0.908,2.02,-2.12,-2.77,0.82,2.13,-1.19,
0.912,2.02,-2.12,-2.77,0.84,2.09,-1.20,
0.913,2.05,-2.17,-2.78,0.84,2.09,-1.20,
0.915,2.09,-2.27,-2.88,0.84,2.09,-1.20,
0.915,2.09,-2.27,-2.88,0.86,2.06,-1.22,
0.916,2.09,-2.27,-2.88,0.88,2.03,-1.24,
0.917,2.09,-2.27,-2.88,0.89,2.00,-1.26,
0.921,2.05,-2.40,-3.00,0.89,2.00,-1.26,
0.921,2.05,-2.40,-3.00,0.89,1.98,-1.28,
0.922,2.05,-2.40,-3.00,0.90,1.97,-1.31,
0.925,1.92,-2.56,-3.06,0.90,1.97,-1.31,
0.925,1.92,-2.56,-3.06,0.90,1.97,-1.34,
0.928,1.92,-2.56,-3.06,0.90,1.97,-1.37,
0.93,1.78,-2.68,-2.94,0.90,1.97,-1.37,
0.93,1.78,-2.68,-2.94,0.91,1.97,-1.41,
0.932,1.78,-2.68,-2.94,0.90,1.99,-1.45,
0.935,1.70,-2.73,-2.90,0.90,1.99,-1.45,
0.935,1.70,-2.73,-2.90,0.90,2.02,-1.48,
0.938,1.70,-2.73,-2.90,0.90,2.05,-1.53,
0.94,1.63,-2.72,-2.84,0.90,2.05,-1.53,
0.94,1.63,-2.72,-2.84,0.89,2.10,-1.57,
0.95,1.63,-2.72,-2.84,0.88,2.14,-1.60,
0.95,1.50,-2.71,-2.76,0.88,2.14,-1.60,
0.95,1.50,-2.71,-2.76,0.86,2.18,-1.64,
0.95,1.50,-2.71,-2.76,0.85,2.22,-1.67,
0.951,1.29,-2.65,-2.63,0.85,2.22,-1.67,
0.952,1.29,-2.65,-2.63,0.84,2.26,-1.69,
0.952,1.29,-2.65,-2.63,0.82,2.29,-1.71,
0.955,1.05,-2.50,-2.42,0.82,2.29,-1.71,
0.955,1.05,-2.50,-2.42,0.81,2.31,-1.72,
0.957,1.05,-2.50,-2.42,0.81,2.34,-1.72,
0.96,0.84,-2.32,-2.20,0.81,2.34,-1.72,
0.96,0.84,-2.32,-2.20,0.80,2.37,-1.72,
0.962,0.84,-2.32,-2.20,0.81,2.39,-1.72,
0.964,0.72,-2.16,-2.00,0.81,2.39,-1.72,
0.964,0.72,-2.16,-2.00,0.82,2.42,-1.71,
0.967,0.72,-2.16,-2.00,0.83,2.44,-1.70,
0.97,0.61,-2.08,-1.93,0.83,2.44,-1.70,
0.97,0.61,-2.08,-1.93,0.84,2.47,-1.69,
0.973,0.61,-2.08,-1.93,0.86,2.50,-1.67,
0.975,0.58,-2.06,-1.92,0.86,2.50,-1.67,
0.975,0.58,-2.06,-1.92,0.88,2.54,-1.66,
0.98,0.58,-2.06,-1.92,0.91,2.57,-1.64,
0.981,0.59,-2.06,-1.94,0.91,2.57,-1.64,
0.981,0.59,-2.06,-1.94,0.94,2.61,-1.63,
0.981,0.59,-2.06,-1.94,0.97,2.65,-1.62,
0.984,0.71,-2.08,-2.06,0.97,2.65,-1.62,
0.984,0.71,-2.08,-2.06,1.00,2.70,-1.61,
0.987,0.71,-2.08,-2.06,1.03,2.75,-1.60,
0.989,0.82,-2.20,-2.18,1.03,2.75,-1.60,
0.989,0.82,-2.20,-2.18,1.05,2.81,-1.59,
0.992,0.82,-2.20,-2.18,1.08,2.87,-1.59,
0.995,0.96,-2.33,-2.26,1.08,2.87,-1.59,
0.995,0.96,-2.33,-2.26,1.11,2.92,-1.58,
0.997,0.96,-2.33,-2.26,1.14,2.97,-1.58,
0.999,0.96,-2.33,-2.26,1.17,3.01,-1.58,
0.999,1.11,-2.48,-2.28,1.17,3.01,-1.58,
1.001,1.11,-2.48,-2.28,1.20,3.05,-1.59,
1.004,1.11,-2.48,-2.28,1.23,3.09,-1.59,
1.004,1.28,-2.65,-2.30,1.23,3.09,-1.59,
1.006,1.28,-2.65,-2.30,1.26,3.13,-1.60,
1.009,1.46,-2.81,-2.38,1.26,3.13,-1.60,
1.01,1.46,-2.81,-2.38,1.30,3.18,-1.62,
1.011,1.46,-2.81,-2.38,1.33,3.22,-1.63,
1.014,1.46,-2.81,-2.38,1.37,3.25,-1.65,
1.014,1.60,-2.95,-2.40,1.37,3.25,-1.65,
1.016,1.60,-2.95,-2.40,1.40,3.29,-1.66,
1.019,1.60,-2.95,-2.40,1.44,3.32,-1.68,
1.019,1.74,-3.12,-2.42,1.44,3.32,-1.68,
1.021,1.74,-3.12,-2.42,1.49,3.35,-1.70,
1.024,1.87,-3.28,-2.45,1.49,3.35,-1.70,
1.024,1.87,-3.28,-2.45,1.54,3.38,-1.72,
1.029,1.87,-3.28,-2.45,1.58,3.41,-1.75,
1.03,1.97,-3.43,-2.48,1.58,3.41,-1.75,
1.03,1.97,-3.43,-2.48,1.63,3.44,-1.77,
1.031,1.97,-3.43,-2.48,1.68,3.48,-1.80,
1.034,2.07,-3.59,-2.53,1.68,3.48,-1.80,
1.034,2.07,-3.59,-2.53,1.72,3.51,-1.82,
1.036,2.07,-3.59,-2.53,1.76,3.55,-1.85,
1.038,2.07,-3.59,-2.53,1.80,3.60,-1.88,
1.039,2.15,-3.76,-2.64,1.80,3.60,-1.88,
1.041,2.15,-3.76,-2.64,1.83,3.63,-1.91,
1.047,2.21,-3.96,-2.70,1.83,3.63,-1.91,
1.048,2.21,-3.96,-2.70,1.86,3.67,-1.94,
1.048,2.21,-3.96,-2.70,1.89,3.70,-1.97,
1.052,2.32,-4.19,-2.69,1.89,3.70,-1.97,
1.052,2.32,-4.19,-2.69,1.92,3.73,-2.01,
1.052,2.32,-4.19,-2.69,1.94,3.76,-2.05,
1.053,2.44,-4.46,-2.64,1.94,3.76,-2.05,
1.054,2.44,-4.46,-2.64,1.96,3.77,-2.10,
1.067,2.44,-4.46,-2.64,1.98,3.80,-2.14,
1.067,2.44,-4.46,-2.64,2.00,3.81,-2.19,
1.067,2.56,-4.75,-2.50,2.00,3.81,-2.19,
1.067,2.56,-4.75,-2.50,2.02,3.83,-2.24,
1.068,2.56,-4.75,-2.50,2.04,3.84,-2.29,
1.068,2.70,-4.99,-2.44,2.04,3.84,-2.29,
1.068,2.70,-4.99,-2.44,2.05,3.85,-2.35,
1.068,2.70,-4.99,-2.44,2.07,3.86,-2.41,
1.069,2.83,-5.23,-2.34,2.07,3.86,-2.41,
1.073,2.83,-5.23,-2.34,2.08,3.87,-2.47,
1.074,2.83,-5.23,-2.34,2.10,3.87,-2.53,
1.074,2.90,-5.47,-2.24,2.10,3.87,-2.53,
1.076,2.90,-5.47,-2.24,2.11,3.88,-2.59,
1.078,2.90,-5.47,-2.24,2.13,3.89,-2.64,
1.079,2.99,-5.70,-2.16,2.13,3.89,-2.64,
1.081,2.99,-5.70,-2.16,2.15,3.89,-2.70,
1.085,2.99,-5.70,-2.16,2.16,3.91,-2.76,
1.085,3.06,-5.96,-2.12,2.16,3.91,-2.76,
1.086,3.06,-5.96,-2.12,2.18,3.92,-2.82,
1.088,3.06,-5.96,-2.12,2.19,3.94,-2.89,
1.089,3.07,-6.21,-2.07,2.19,3.94,-2.89,
1.091,3.07,-6.21,-2.07,2.20,3.96,-2.95,
1.093,3.07,-6.21,-2.07,2.22,3.98,-3.01,
1.093,3.06,-6.48,-2.01,2.22,3.98,-3.01,
1.096,3.06,-6.48,-2.01,2.22,4.01,-3.08,
1.098,3.03,-6.77,-1.86,2.22,4.01,-3.08,
1.098,3.03,-6.77,-1.86,2.23,4.03,-3.15,
1.101,3.03,-6.77,-1.86,2.25,4.05,-3.21,
1.103,3.03,-6.77,-1.86,2.27,4.06,-3.28,
1.104,2.99,-7.04,-1.63,2.27,4.06,-3.28,
1.105,2.99,-7.04,-1.63,2.29,4.07,-3.35,
1.108,2.99,-7.04,-1.63,2.31,4.07,-3.42,
1.108,2.91,-7.36,-1.38,2.31,4.07,-3.42,
1.11,2.91,-7.36,-1.38,2.33,4.07,-3.50,
1.113,2.91,-7.36,-1.38,2.36,4.06,-3.57,
1.113,2.81,-7.66,-1.16,2.36,4.06,-3.57,
1.116,2.81,-7.66,-1.16,2.39,4.05,-3.65,
1.118,2.81,-7.66,-1.16,2.41,4.04,-3.73,
1.118,2.66,-7.98,-1.00,2.41,4.04,-3.73,
1.121,2.66,-7.98,-1.00,2.43,4.03,-3.80,
1.124,2.66,-7.98,-1.00,2.45,4.02,-3.88,
1.124,2.43,-8.34,-0.84,2.45,4.02,-3.88,
1.125,2.43,-8.34,-0.84,2.47,4.00,-3.96,
1.128,2.43,-8.34,-0.84,2.48,3.98,-4.04,
1.129,2.18,-8.66,-0.68,2.48,3.98,-4.04,
1.13,2.18,-8.66,-0.68,2.49,3.95,-4.13,
1.133,2.18,-8.66,-0.68,2.49,3.92,-4.21,
1.133,1.86,-8.97,-0.57,2.49,3.92,-4.21,
1.135,1.86,-8.97,-0.57,2.49,3.89,-4.29,
1.138,1.86,-8.97,-0.57,2.49,3.85,-4.38,
1.141,1.86,-8.97,-0.57,2.48,3.81,-4.46,
1.141,1.40,-9.23,-0.39,2.48,3.81,-4.46,
1.146,0.88,-9.48,-0.13,2.48,3.81,-4.46,
1.151,0.88,-9.48,-0.13,2.47,3.76,-4.53,
1.152,0.88,-9.48,-0.13,2.46,3.71,-4.61,
1.152,0.39,-9.69,0.11,2.46,3.71,-4.61,
1.152,0.39,-9.69,0.11,2.44,3.64,-4.68,
1.152,0.39,-9.69,0.11,2.42,3.58,-4.75,
1.153,0.39,-9.69,0.11,2.40,3.50,-4.82,
1.154,-0.13,-9.89,0.41,2.40,3.50,-4.82,
1.155,-0.13,-9.89,0.41,2.37,3.41,-4.88,
1.158,-0.13,-9.89,0.41,2.34,3.32,-4.94,
1.158,-0.68,-10.05,0.69,2.34,3.32,-4.94,
1.165,-0.68,-10.05,0.69,2.31,3.22,-5.00,
1.165,-0.68,-10.05,0.69,2.27,3.12,-5.05,
1.166,-1.32,-10.28,0.95,2.27,3.12,-5.05,
1.166,-1.32,-10.28,0.95,2.23,3.01,-5.10,
1.168,-2.07,-10.50,1.24,2.23,3.01,-5.10,
1.168,-2.07,-10.50,1.24,2.18,2.90,-5.14,
1.17,-2.07,-10.50,1.24,2.12,2.78,-5.19,
1.174,-2.07,-10.50,1.24,2.06,2.65,-5.23,
1.174,-2.89,-10.77,1.52,2.06,2.65,-5.23,
1.175,-2.89,-10.77,1.52,1.99,2.51,-5.26,
1.179,-3.58,-11.07,1.79,1.99,2.51,-5.26,
1.179,-3.58,-11.07,1.79,1.91,2.37,-5.30,
1.182,-3.58,-11.07,1.79,1.83,2.21,-5.34,
1.183,-3.58,-11.07,1.79,1.73,2.05,-5.38,
1.183,-4.17,-11.44,2.06,1.73,2.05,-5.38,
1.185,-4.17,-11.44,2.06,1.63,1.89,-5.42,
1.188,-4.17,-11.44,2.06,1.52,1.71,-5.46,
1.188,-4.70,-11.81,2.34,1.52,1.71,-5.46,
1.19,-4.70,-11.81,2.34,1.40,1.53,-5.51,
1.193,-5.27,-12.21,2.56,1.40,1.53,-5.51,
1.193,-5.27,-12.21,2.56,1.26,1.34,-5.55,
1.195,-5.27,-12.21,2.56,1.12,1.15,-5.60,
1.198,-5.27,-12.21,2.56,0.97,0.96,-5.64,
1.198,-5.92,-12.65,2.73,0.97,0.96,-5.64,
1.2,-5.92,-12.65,2.73,0.81,0.76,-5.69,
1.202,-5.92,-12.65,2.73,0.63,0.57,-5.73,
1.203,-6.56,-13.11,2.84,0.63,0.57,-5.73,
1.205,-6.56,-13.11,2.84,0.44,0.37,-5.78,
1.207,-6.56,-13.11,2.84,0.24,0.17,-5.83,
1.208,-7.19,-13.57,2.96,0.24,0.17,-5.83,
1.21,-7.19,-13.57,2.96,0.03,-0.03,-5.88,
1.213,-7.19,-13.57,2.96,-0.19,-0.23,-5.93,
1.213,-7.75,-14.01,3.13,-0.19,-0.23,-5.93,
1.216,-7.75,-14.01,3.13,-0.42,-0.43,-5.98,
1.218,-8.20,-14.40,3.33,-0.42,-0.43,-5.98,
1.218,-8.20,-14.40,3.33,-0.66,-0.63,-6.04,
1.22,-8.20,-14.40,3.33,-0.90,-0.82,-6.11,
1.243,-8.20,-14.40,3.33,-1.15,-1.01,-6.18,
1.244,-8.64,-14.69,3.64,-1.15,-1.01,-6.18,
1.244,-8.64,-14.69,3.64,-1.39,-1.19,-6.26,
1.244,-8.64,-14.69,3.64,-1.64,-1.37,-6.34,
1.244,-9.11,-14.88,4.05,-1.64,-1.37,-6.34,
1.244,-9.11,-14.88,4.05,-1.88,-1.54,-6.43,
1.245,-9.62,-14.87,4.55,-1.88,-1.54,-6.43,
1.245,-9.62,-14.87,4.55,-2.11,-1.70,-6.51,
1.245,-9.62,-14.87,4.55,-2.34,-1.86,-6.59,
1.245,-9.62,-14.87,4.55,-2.55,-2.02,-6.68,
1.246,-10.08,-14.69,5.18,-2.55,-2.02,-6.68,
1.246,-10.08,-14.69,5.18,-2.75,-2.17,-6.76,
1.246,-10.08,-14.69,5.18,-2.94,-2.31,-6.84,
1.247,-10.57,-14.39,5.87,-2.94,-2.31,-6.84,
1.247,-10.57,-14.39,5.87,-3.10,-2.45,-6.91,
1.247,-10.57,-14.39,5.87,-3.25,-2.59,-6.98,
1.248,-11.18,-13.97,6.58,-3.25,-2.59,-6.98,
1.252,-11.18,-13.97,6.58,-3.38,-2.71,-7.03,
1.253,-11.18,-13.97,6.58,-3.50,-2.83,-7.08,
1.253,-11.72,-13.39,7.19,-3.50,-2.83,-7.08,
1.254,-11.72,-13.39,7.19,-3.60,-2.93,-7.11,
1.257,-11.72,-13.39,7.19,-3.68,-3.02,-7.14,
1.257,-12.17,-12.66,7.72,-3.68,-3.02,-7.14,
1.26,-12.17,-12.66,7.72,-3.74,-3.11,-7.16,
1.263,-12.63,-11.82,8.20,-3.74,-3.11,-7.16,
1.264,-12.63,-11.82,8.20,-3.78,-3.18,-7.16,
1.265,-12.63,-11.82,8.20,-3.81,-3.25,-7.15,
1.269,-12.63,-11.82,8.20,-3.81,-3.30,-7.13,
1.269,-13.13,-10.91,8.62,-3.81,-3.30,-7.13,
1.27,-13.13,-10.91,8.62,-3.79,-3.33,-7.10,
1.274,-13.13,-10.91,8.62,-3.76,-3.36,-7.05,
1.274,-13.67,-9.86,8.84,-3.76,-3.36,-7.05,
1.274,-13.67,-9.86,8.84,-3.70,-3.37,-6.98,
1.281,-14.33,-8.71,8.98,-3.70,-3.37,-6.98,
1.281,-14.33,-8.71,8.98,-3.63,-3.38,-6.90,
1.282,-14.33,-8.71,8.98,-3.54,-3.37,-6.80,
1.282,-14.33,-8.71,8.98,-3.44,-3.34,-6.68,
1.282,-14.87,-7.55,9.03,-3.44,-3.34,-6.68,
1.285,-14.87,-7.55,9.03,-3.31,-3.32,-6.54,
1.287,-14.87,-7.55,9.03,-3.17,-3.28,-6.40,
1.287,-15.17,-6.32,8.99,-3.17,-3.28,-6.40,
1.289,-15.17,-6.32,8.99,-3.01,-3.22,-6.24,
1.292,-15.16,-5.08,8.74,-3.01,-3.22,-6.24,
1.292,-15.16,-5.08,8.74,-2.85,-3.16,-6.07,
1.295,-15.16,-5.08,8.74,-2.67,-3.08,-5.90,
1.297,-15.16,-4.10,8.44,-2.67,-3.08,-5.90,
1.297,-15.16,-4.10,8.44,-2.48,-2.98,-5.72,
1.3,-15.16,-4.10,8.44,-2.28,-2.87,-5.53,
1.301,-15.16,-4.10,8.44,-2.08,-2.75,-5.33,
1.302,-14.95,-3.14,8.01,-2.08,-2.75,-5.33,
1.305,-14.95,-3.14,8.01,-1.88,-2.62,-5.13,
1.306,-14.95,-3.14,8.01,-1.68,-2.48,-4.93,
1.307,-14.48,-2.28,7.45,-1.68,-2.48,-4.93,
1.308,-14.48,-2.28,7.45,-1.48,-2.34,-4.74,
1.312,-14.48,-2.28,7.45,-1.29,-2.19,-4.54,
1.313,-13.88,-1.49,6.79,-1.29,-2.19,-4.54,
1.314,-13.88,-1.49,6.79,-1.11,-2.03,-4.35,
1.316,-13.07,-0.75,6.06,-1.11,-2.03,-4.35,
1.316,-13.07,-0.75,6.06,-0.93,-1.86,-4.16,
1.318,-13.07,-0.75,6.06,-0.77,-1.69,-3.99,
1.321,-13.07,-0.75,6.06,-0.62,-1.51,-3.81,
1.321,-12.25,-0.24,5.36,-0.62,-1.51,-3.81,
1.323,-12.25,-0.24,5.36,-0.48,-1.33,-3.65,
1.328,-12.25,-0.24,5.36,-0.35,-1.15,-3.49,
1.328,-11.52,0.16,4.77,-0.35,-1.15,-3.49,
1.329,-11.52,0.16,4.77,-0.24,-0.98,-3.34,
1.331,-11.52,0.16,4.77,-0.13,-0.81,-3.19,
1.332,-10.96,0.44,4.33,-0.13,-0.81,-3.19,
1.333,-10.96,0.44,4.33,-0.04,-0.66,-3.04,
1.336,-10.96,0.44,4.33,0.04,-0.53,-2.91,
1.336,-10.44,0.66,3.99,0.04,-0.53,-2.91,
1.338,-10.44,0.66,3.99,0.12,-0.41,-2.77,
1.341,-9.93,0.89,3.74,0.12,-0.41,-2.77,
1.341,-9.93,0.89,3.74,0.18,-0.31,-2.64,
1.345,-9.93,0.89,3.74,0.23,-0.23,-2.51,
1.346,-9.46,1.13,3.56,0.23,-0.23,-2.51,
1.346,-9.46,1.13,3.56,0.27,-0.17,-2.39,
1.348,-9.46,1.13,3.56,0.31,-0.13,-2.26,
1.351,-9.46,1.13,3.56,0.33,-0.10,-2.14,
1.351,-9.00,1.29,3.36,0.33,-0.10,-2.14,
1.353,-9.00,1.29,3.36,0.35,-0.09,-2.02,
1.356,-9.00,1.29,3.36,0.36,-0.09,-1.90,
1.356,-8.45,1.38,3.09,0.36,-0.09,-1.90,
1.358,-8.45,1.38,3.09,0.35,-0.11,-1.79,
1.362,-7.88,1.45,2.84,0.35,-0.11,-1.79,
1.363,-7.88,1.45,2.84,0.34,-0.14,-1.68,
1.363,-7.88,1.45,2.84,0.33,-0.18,-1.57,
1.366,-7.32,1.53,2.57,0.33,-0.18,-1.57,
1.366,-7.32,1.53,2.57,0.30,-0.23,-1.48,
1.368,-7.32,1.53,2.57,0.26,-0.29,-1.39,
1.373,-7.32,1.53,2.57,0.21,-0.36,-1.30,
1.373,-6.74,1.58,2.25,0.21,-0.36,-1.30,
1.373,-6.74,1.58,2.25,0.16,-0.44,-1.23,
1.376,-6.74,1.58,2.25,0.10,-0.52,-1.16,
1.38,-6.13,1.60,1.96,0.10,-0.52,-1.16,
1.38,-6.13,1.60,1.96,0.03,-0.61,-1.09,
1.381,-6.13,1.60,1.96,-0.05,-0.70,-1.04,
1.381,-5.56,1.64,1.67,-0.05,-0.70,-1.04,
1.383,-5.56,1.64,1.67,-0.13,-0.80,-0.99,
1.386,-5.56,1.64,1.67,-0.22,-0.91,-0.95,
1.397,-5.04,1.72,1.36,-0.22,-0.91,-0.95,
1.398,-5.04,1.72,1.36,-0.31,-1.02,-0.91,
1.398,-5.04,1.72,1.36,-0.41,-1.13,-0.88,
1.398,-4.57,1.84,1.04,-0.41,-1.13,-0.88,
1.398,-4.57,1.84,1.04,-0.51,-1.23,-0.85,
1.398,-4.11,1.96,0.75,-0.51,-1.23,-0.85,
1.398,-4.11,1.96,0.75,-0.62,-1.34,-0.83,
1.399,-4.11,1.96,0.75,-0.72,-1.43,-0.81,
1.402,-4.11,1.96,0.75,-0.83,-1.53,-0.80,
1.402,-3.74,2.13,0.49,-0.83,-1.53,-0.80,
1.403,-3.74,2.13,0.49,-0.94,-1.62,-0.78,
1.406,-3.38,2.35,0.32,-0.94,-1.62,-0.78,
1.406,-3.38,2.35,0.32,-1.05,-1.70,-0.77,
1.408,-3.38,2.35,0.32,-1.16,-1.78,-0.77,
1.413,-3.11,2.58,0.21,-1.16,-1.78,-0.77,
1.414,-3.11,2.58,0.21,-1.27,-1.86,-0.76,
1.414,-3.11,2.58,0.21,-1.38,-1.93,-0.76,
1.417,-3.00,2.76,0.17,-1.38,-1.93,-0.76,
1.417,-3.00,2.76,0.17,-1.48,-2.00,-0.76,
1.418,-3.00,2.76,0.17,-1.58,-2.07,-0.76,
1.42,-3.00,2.76,0.17,-1.68,-2.13,-0.76,
1.421,-2.91,2.82,0.19,-1.68,-2.13,-0.76,
1.423,-2.91,2.82,0.19,-1.78,-2.20,-0.76,
1.426,-2.66,2.91,0.24,-1.78,-2.20,-0.76,
1.427,-2.66,2.91,0.24,-1.87,-2.26,-0.77,
1.43,-2.66,2.91,0.24,-1.96,-2.32,-0.79,
1.431,-2.50,3.02,0.34,-1.96,-2.32,-0.79,
1.432,-2.50,3.02,0.34,-2.04,-2.38,-0.80,
1.433,-2.50,3.02,0.34,-2.12,-2.43,-0.82,
1.435,-2.50,3.02,0.34,-2.19,-2.48,-0.84,
1.436,-2.36,3.15,0.45,-2.19,-2.48,-0.84,
1.438,-2.36,3.15,0.45,-2.27,-2.52,-0.86,
1.44,-2.27,3.28,0.59,-2.27,-2.52,-0.86,
1.441,-2.27,3.28,0.59,-2.33,-2.56,-0.88,
1.443,-2.27,3.28,0.59,-2.39,-2.60,-0.90,
1.446,-2.22,3.36,0.76,-2.39,-2.60,-0.90,
1.446,-2.22,3.36,0.76,-2.44,-2.63,-0.92,
1.448,-2.22,3.36,0.76,-2.48,-2.66,-0.94,
1.451,-2.22,3.36,0.76,-2.52,-2.70,-0.97,
1.451,-2.10,3.46,0.93,-2.52,-2.70,-0.97,
1.452,-2.10,3.46,0.93,-2.56,-2.72,-0.99,
1.455,-2.10,3.46,0.93,-2.59,-2.75,-1.01,
1.455,-2.00,3.62,1.10,-2.59,-2.75,-1.01,
1.457,-2.00,3.62,1.10,-2.61,-2.77,-1.03,
1.467,-1.97,3.78,1.22,-2.61,-2.77,-1.03,
1.468,-1.97,3.78,1.22,-2.63,-2.79,-1.05,
1.468,-1.97,3.78,1.22,-2.64,-2.79,-1.06,
1.468,-1.98,3.89,1.31,-2.64,-2.79,-1.06,
1.468,-1.98,3.89,1.31,-2.65,-2.79,-1.07,
1.468,-1.98,3.89,1.31,-2.65,-2.78,-1.07,
1.47,-1.92,4.07,1.45,-2.65,-2.78,-1.07,
1.47,-1.92,4.07,1.45,-2.64,-2.77,-1.08,
1.472,-1.92,4.07,1.45,-2.63,-2.75,-1.08,
1.475,-1.91,4.19,1.55,-2.63,-2.75,-1.08,
1.475,-1.91,4.19,1.55,-2.61,-2.73,-1.08,
1.48,-1.91,4.19,1.55,-2.59,-2.71,-1.07,
1.48,-1.91,4.19,1.55,-2.57,-2.68,-1.07,
1.481,-1.99,4.24,1.63,-2.57,-2.68,-1.07,
1.482,-1.99,4.24,1.63,-2.54,-2.64,-1.06,
1.485,-2.06,4.19,1.69,-2.54,-2.64,-1.06,
1.485,-2.06,4.19,1.69,-2.51,-2.61,-1.05,
1.487,-2.06,4.19,1.69,-2.47,-2.56,-1.04,
1.49,-2.10,4.13,1.73,-2.47,-2.56,-1.04,
1.49,-2.10,4.13,1.73,-2.43,-2.52,-1.04,
1.492,-2.10,4.13,1.73,-2.39,-2.47,-1.03,
1.495,-2.12,4.07,1.75,-2.39,-2.47,-1.03,
1.496,-2.12,4.07,1.75,-2.35,-2.42,-1.03,
1.497,-2.12,4.07,1.75,-2.30,-2.36,-1.03,
1.5,-2.15,4.00,1.76,-2.30,-2.36,-1.03,
1.5,-2.15,4.00,1.76,-2.26,-2.30,-1.03,
1.502,-2.15,4.00,1.76,-2.21,-2.24,-1.03,
1.506,-2.11,3.92,1.76,-2.21,-2.24,-1.03,
1.506,-2.11,3.92,1.76,-2.16,-2.17,-1.04,
1.507,-2.11,3.92,1.76,-2.11,-2.11,-1.05,
1.509,-2.11,3.92,1.76,-2.05,-2.03,-1.07,
1.51,-2.11,3.88,1.78,-2.05,-2.03,-1.07,
1.512,-2.11,3.88,1.78,-2.00,-1.96,-1.08,
1.514,-2.11,3.88,1.78,-1.95,-1.88,-1.10,
1.514,-2.18,3.88,1.80,-1.95,-1.88,-1.10,
1.517,-2.18,3.88,1.80,-1.89,-1.80,-1.12,
1.519,-2.18,3.88,1.80,-1.83,-1.72,-1.14,
1.519,-2.29,3.90,1.84,-1.83,-1.72,-1.14,
1.522,-2.29,3.90,1.84,-1.77,-1.63,-1.16,
1.526,-2.29,3.90,1.84,-1.71,-1.55,-1.17,
1.526,-2.48,4.00,1.89,-1.71,-1.55,-1.17,
1.527,-2.48,4.00,1.89,-1.64,-1.46,-1.19,
1.53,-2.48,4.00,1.89,-1.57,-1.38,-1.21,
1.53,-2.69,4.12,2.00,-1.57,-1.38,-1.21,
1.532,-2.69,4.12,2.00,-1.50,-1.29,-1.22,
1.534,-2.69,4.12,2.00,-1.41,-1.21,-1.23,
1.534,-2.95,4.34,2.13,-1.41,-1.21,-1.23,
1.537,-2.95,4.34,2.13,-1.33,-1.12,-1.24,
1.539,-2.95,4.34,2.13,-1.23,-1.05,-1.25,
1.539,-3.32,4.65,2.25,-1.23,-1.05,-1.25,
1.542,-3.32,4.65,2.25,-1.14,-0.98,-1.26,
1.547,-3.75,5.03,2.26,-1.14,-0.98,-1.26,
1.547,-3.75,5.03,2.26,-1.04,-0.92,-1.27,
1.547,-3.75,5.03,2.26,-0.94,-0.86,-1.27,
1.549,-4.24,5.33,2.18,-0.94,-0.86,-1.27,
1.55,-4.24,5.33,2.18,-0.84,-0.82,-1.27,
1.562,-4.24,5.33,2.18,-0.74,-0.78,-1.28,
1.562,-4.53,5.72,1.94,-0.74,-0.78,-1.28,
1.562,-4.53,5.72,1.94,-0.65,-0.75,-1.28,
1.562,-4.53,5.72,1.94,-0.57,-0.73,-1.28,
1.562,-4.53,5.72,1.94,-0.49,-0.71,-1.28,
1.563,-5.04,5.82,1.66,-0.49,-0.71,-1.28,
1.572,-5.04,5.82,1.66,-0.42,-0.69,-1.26,
1.573,-5.58,5.91,1.38,-0.42,-0.69,-1.26,
1.574,-5.58,5.91,1.38,-0.36,-0.67,-1.24,
1.574,-5.58,5.91,1.38,-0.30,-0.65,-1.20,
1.574,-5.58,5.91,1.38,-0.25,-0.64,-1.16,
1.574,-5.92,6.04,1.10,-0.25,-0.64,-1.16,
1.575,-5.92,6.04,1.10,-0.20,-0.64,-1.11,
1.575,-6.11,6.24,0.74,-0.20,-0.64,-1.11,
1.575,-6.11,6.24,0.74,-0.17,-0.64,-1.06,
1.576,-6.11,6.24,0.74,-0.14,-0.65,-1.00,
1.579,-6.11,6.24,0.74,-0.13,-0.66,-0.94,
1.58,-6.09,6.49,0.41,-0.13,-0.66,-0.94,
1.582,-6.09,6.49,0.41,-0.11,-0.66,-0.88,
1.586,-6.09,6.49,0.41,-0.11,-0.67,-0.83,
1.586,-5.90,6.74,0.13,-0.11,-0.67,-0.83,
1.586,-5.90,6.74,0.13,-0.12,-0.67,-0.78,
1.589,-5.90,6.74,0.13,-0.13,-0.68,-0.74,
1.589,-5.77,6.93,-0.10,-0.13,-0.68,-0.74,
1.591,-5.77,6.93,-0.10,-0.14,-0.68,-0.70,
1.594,-5.75,7.03,-0.28,-0.14,-0.68,-0.70,
1.596,-5.75,7.03,-0.28,-0.16,-0.68,-0.65,
1.596,-5.75,7.03,-0.28,-0.18,-0.68,-0.61,
1.599,-5.75,7.03,-0.28,-0.20,-0.69,-0.56,
1.6,-5.82,7.06,-0.40,-0.20,-0.69,-0.56,
1.601,-5.82,7.06,-0.40,-0.23,-0.69,-0.51,
1.605,-5.88,7.07,-0.49,-0.23,-0.69,-0.51,
1.605,-5.88,7.07,-0.49,-0.25,-0.71,-0.47,
1.606,-5.88,7.07,-0.49,-0.28,-0.73,-0.42,
1.609,-5.88,7.07,-0.49,-0.30,-0.75,-0.38,
1.609,-5.93,7.00,-0.56,-0.30,-0.75,-0.38,
1.612,-5.93,7.00,-0.56,-0.33,-0.78,-0.34,
1.614,-6.00,6.94,-0.61,-0.33,-0.78,-0.34,
1.614,-6.00,6.94,-0.61,-0.36,-0.80,-0.30,
1.616,-6.00,6.94,-0.61,-0.38,-0.83,-0.26,
1.619,-6.00,6.94,-0.61,-0.40,-0.86,-0.22,
1.619,-6.07,6.85,-0.62,-0.40,-0.86,-0.22,
1.621,-6.07,6.85,-0.62,-0.43,-0.88,-0.18,
1.624,-6.07,6.85,-0.62,-0.44,-0.90,-0.14,
1.624,-6.11,6.77,-0.61,-0.44,-0.90,-0.14,
1.626,-6.11,6.77,-0.61,-0.46,-0.92,-0.10,
1.63,-6.11,6.77,-0.61,-0.48,-0.94,-0.06,
1.63,-6.16,6.68,-0.60,-0.48,-0.94,-0.06,
1.631,-6.16,6.68,-0.60,-0.49,-0.96,-0.02,
1.634,-6.16,6.68,-0.60,-0.50,-0.97,0.02,
1.634,-6.14,6.60,-0.56,-0.50,-0.97,0.02,
1.636,-6.14,6.60,-0.56,-0.50,-0.97,0.06,
1.638,-6.14,6.60,-0.56,-0.50,-0.98,0.10,
1.641,-6.14,6.60,-0.56,-0.50,-0.97,0.14,
1.641,-6.14,6.48,-0.49,-0.50,-0.97,0.14,
1.645,-6.13,6.36,-0.45,-0.50,-0.97,0.14,
1.646,-6.13,6.36,-0.45,-0.49,-0.97,0.18,
1.646,-6.13,6.36,-0.45,-0.48,-0.96,0.22,
1.649,-6.13,6.36,-0.45,-0.46,-0.95,0.26,
1.651,-6.13,6.36,-0.45,-0.44,-0.94,0.29,
1.653,-6.13,6.36,-0.45,-0.42,-0.92,0.33,
1.654,-6.16,6.18,-0.38,-0.42,-0.92,0.33,
1.654,-6.15,5.95,-0.33,-0.42,-0.92,0.33,
1.656,-6.15,5.95,-0.33,-0.39,-0.91,0.36,
1.658,-6.15,5.95,-0.33,-0.37,-0.89,0.39,
1.659,-6.09,5.70,-0.28,-0.37,-0.89,0.39,
1.666,-6.09,5.70,-0.28,-0.34,-0.87,0.42,
1.667,-6.09,5.70,-0.28,-0.31,-0.85,0.45,
1.667,-6.00,5.48,-0.22,-0.31,-0.85,0.45,
1.667,-6.00,5.48,-0.22,-0.27,-0.82,0.48,
1.67,-5.89,5.28,-0.21,-0.27,-0.82,0.48,
1.671,-5.89,5.28,-0.21,-0.24,-0.79,0.50,
1.671,-5.89,5.28,-0.21,-0.20,-0.76,0.52,
1.673,-5.89,5.28,-0.21,-0.16,-0.72,0.54,
1.674,-5.84,5.08,-0.21,-0.16,-0.72,0.54,
1.676,-5.84,5.08,-0.21,-0.12,-0.69,0.56,
1.681,-5.79,4.92,-0.21,-0.12,-0.69,0.56,
1.682,-5.79,4.92,-0.21,-0.08,-0.64,0.58,
1.682,-5.79,4.92,-0.21,-0.04,-0.60,0.60,
1.683,-5.79,4.92,-0.21,0.00,-0.56,0.62,
1.683,-5.71,4.77,-0.22,0.00,-0.56,0.62,
1.686,-5.71,4.77,-0.22,0.04,-0.51,0.63,
1.688,-5.66,4.59,-0.22,0.04,-0.51,0.63,
1.689,-5.66,4.59,-0.22,0.09,-0.46,0.65,
1.69,-5.66,4.59,-0.22,0.13,-0.42,0.66,
1.693,-5.54,4.42,-0.21,0.13,-0.42,0.66,
1.693,-5.54,4.42,-0.21,0.17,-0.37,0.67,
1.697,-5.54,4.42,-0.21,0.21,-0.33,0.68,
1.698,-5.48,4.26,-0.21,0.21,-0.33,0.68,
1.698,-5.48,4.26,-0.21,0.25,-0.28,0.69,
1.702,-5.48,4.26,-0.21,0.29,-0.23,0.69,
1.704,-5.42,4.11,-0.21,0.29,-0.23,0.69,
1.704,-5.42,4.11,-0.21,0.32,-0.18,0.70,
1.706,-5.42,4.11,-0.21,0.36,-0.14,0.70,
1.708,-5.42,4.11,-0.21,0.39,-0.10,0.70,
1.708,-5.39,3.99,-0.19,0.39,-0.10,0.70,
1.712,-5.39,3.99,-0.19,0.41,-0.05,0.70,
1.713,-5.39,3.99,-0.19,0.44,-0.01,0.70,
1.713,-5.34,3.89,-0.17,0.44,-0.01,0.70,
1.717,-5.34,3.89,-0.17,0.46,0.03,0.69,
1.726,-5.34,3.89,-0.17,0.48,0.07,0.69,
1.727,-5.31,3.85,-0.13,0.48,0.07,0.69,
1.727,-5.31,3.85,-0.13,0.50,0.11,0.69,
1.727,-5.35,3.85,-0.11,0.50,0.11,0.69,
1.727,-5.35,3.85,-0.11,0.51,0.15,0.69,
1.727,-5.35,3.85,-0.11,0.53,0.19,0.69,
1.731,-5.48,3.79,-0.06,0.53,0.19,0.69,
1.732,-5.48,3.79,-0.06,0.54,0.22,0.70,
1.732,-5.48,3.79,-0.06,0.55,0.26,0.71,
1.733,-5.48,3.79,-0.06,0.55,0.30,0.72,
1.733,-5.67,3.66,-0.02,0.55,0.30,0.72,
1.737,-5.67,3.66,-0.02,0.55,0.34,0.74,
1.738,-5.92,3.46,-0.02,0.55,0.34,0.74,
1.738,-5.92,3.46,-0.02,0.55,0.39,0.76,
1.74,-5.92,3.46,-0.02,0.55,0.43,0.79,
1.743,-5.92,3.46,-0.02,0.54,0.47,0.81,
1.743,-6.28,3.23,0.03,0.54,0.47,0.81,
1.745,-6.28,3.23,0.03,0.54,0.52,0.84,
1.748,-6.62,2.93,0.17,0.54,0.52,0.84,
1.748,-6.62,2.93,0.17,0.53,0.56,0.87,
1.75,-6.62,2.93,0.17,0.53,0.61,0.90,
1.753,-6.62,2.93,0.17,0.52,0.65,0.92,
1.753,-6.86,2.61,0.31,0.52,0.65,0.92,
1.755,-6.86,2.61,0.31,0.51,0.70,0.95,
1.758,-6.86,2.61,0.31,0.50,0.74,0.97,
1.759,-7.03,2.27,0.47,0.50,0.74,0.97,
1.763,-7.03,2.27,0.47,0.49,0.78,0.99,
1.763,-7.03,2.27,0.47,0.49,0.82,1.01,
1.764,-7.15,1.95,0.64,0.49,0.82,1.01,
1.768,-7.15,1.95,0.64,0.48,0.86,1.02,
1.769,-7.15,1.95,0.64,0.47,0.90,1.02,
1.769,-7.34,1.57,0.85,0.47,0.90,1.02,
1.771,-7.34,1.57,0.85,0.47,0.94,1.02,
1.772,-7.34,1.57,0.85,0.46,0.98,1.01,
1.772,-7.40,1.35,1.04,0.46,0.98,1.01,
1.775,-7.40,1.35,1.04,0.46,1.02,1.00,
1.778,-7.67,0.96,1.31,0.46,1.02,1.00,
1.778,-7.67,0.96,1.31,0.46,1.07,0.99,
1.78,-7.67,0.96,1.31,0.47,1.10,0.97,
1.784,-7.85,0.75,1.66,0.47,1.10,0.97,
1.784,-7.85,0.75,1.66,0.48,1.14,0.95,
1.784,-7.85,0.75,1.66,0.50,1.17,0.93,
1.787,-7.97,0.67,1.98,0.50,1.17,0.93,
1.787,-7.97,0.67,1.98,0.52,1.18,0.91,
1.79,-7.97,0.67,1.98,0.55,1.20,0.89,
1.792,-7.97,0.67,1.98,0.58,1.22,0.87,
1.792,-8.08,0.74,2.29,0.58,1.22,0.87,
1.794,-8.08,0.74,2.29,0.62,1.23,0.85,
1.797,-8.08,0.74,2.29,0.67,1.25,0.83,
1.797,-8.16,0.95,2.57,0.67,1.25,0.83,
1.801,-8.16,0.95,2.57,0.72,1.26,0.81,
1.802,-8.16,0.95,2.57,0.78,1.28,0.80,
1.803,-8.27,1.23,2.76,0.78,1.28,0.80,
1.804,-8.27,1.23,2.76,0.84,1.31,0.80,
1.809,-8.47,1.57,2.84,0.84,1.31,0.80,
1.809,-8.47,1.57,2.84,0.90,1.33,0.80,
1.811,-8.47,1.57,2.84,0.96,1.37,0.81,
1.814,-8.47,1.57,2.84,1.02,1.40,0.83,
1.814,-8.70,1.93,2.82,1.02,1.40,0.83,
1.814,-8.70,1.93,2.82,1.08,1.44,0.85,
1.817,-8.70,1.93,2.82,1.13,1.48,0.89,
1.817,-9.02,2.29,2.80,1.13,1.48,0.89,
1.82,-9.02,2.29,2.80,1.18,1.53,0.94,
1.822,-9.02,2.29,2.80,1.23,1.58,1.00,
1.822,-9.43,2.62,2.76,1.23,1.58,1.00,
1.824,-9.43,2.62,2.76,1.28,1.63,1.07,
1.828,-9.87,2.93,2.69,1.28,1.63,1.07,
1.828,-9.87,2.93,2.69,1.32,1.67,1.15,
1.83,-9.87,2.93,2.69,1.35,1.72,1.25,
1.832,-10.29,3.15,2.71,1.35,1.72,1.25,
1.832,-10.29,3.15,2.71,1.39,1.75,1.36,
1.834,-10.29,3.15,2.71,1.42,1.78,1.48,
1.837,-10.64,3.25,2.71,1.42,1.78,1.48,
1.837,-10.64,3.25,2.71,1.44,1.81,1.60,
1.839,-10.64,3.25,2.71,1.47,1.82,1.74,
1.842,-10.64,3.25,2.71,1.49,1.83,1.88,
1.842,-10.87,3.15,2.76,1.49,1.83,1.88,
1.845,-10.87,3.15,2.76,1.51,1.84,2.03,
1.847,-10.99,2.93,2.84,1.51,1.84,2.03,
1.847,-10.99,2.93,2.84,1.52,1.83,2.19,
1.85,-10.99,2.93,2.84,1.54,1.83,2.34,
1.852,-10.99,2.93,2.84,1.55,1.81,2.49,
1.853,-10.93,2.60,2.91,1.55,1.81,2.49,
1.854,-10.93,2.60,2.91,1.56,1.79,2.65,
1.857,-10.93,2.60,2.91,1.57,1.76,2.80,
1.857,-10.66,2.21,2.96,1.57,1.76,2.80,
1.859,-10.66,2.21,2.96,1.58,1.73,2.94,
1.864,-10.32,1.75,2.95,1.58,1.73,2.94,
1.864,-10.32,1.75,2.95,1.58,1.69,3.08,
1.864,-10.32,1.75,2.95,1.58,1.66,3.21,
1.866,-10.32,1.75,2.95,1.58,1.61,3.33,
1.869,-10.32,1.75,2.95,1.58,1.57,3.43,
1.87,-9.86,1.15,2.90,1.58,1.57,3.43,
1.871,-9.86,1.15,2.90,1.58,1.53,3.53,
1.872,-9.34,0.51,2.84,1.58,1.53,3.53,
1.874,-9.34,0.51,2.84,1.57,1.48,3.62,
1.876,-9.34,0.51,2.84,1.57,1.44,3.71,
1.877,-8.92,-0.07,2.77,1.57,1.44,3.71,
1.88,-8.92,-0.07,2.77,1.56,1.40,3.79,
1.881,-8.92,-0.07,2.77,1.55,1.35,3.87,
1.894,-8.54,-0.64,2.72,1.55,1.35,3.87,
1.894,-8.54,-0.64,2.72,1.53,1.30,3.94,
1.895,-8.54,-0.64,2.72,1.53,1.26,4.01,
1.895,-8.13,-1.17,2.65,1.53,1.26,4.01,
1.895,-8.13,-1.17,2.65,1.51,1.21,4.07,
1.895,-7.71,-1.72,2.60,1.51,1.21,4.07,
1.895,-7.71,-1.72,2.60,1.50,1.17,4.13,
1.895,-7.71,-1.72,2.60,1.49,1.14,4.18,
1.9,-7.71,-1.72,2.60,1.49,1.11,4.23,
1.901,-7.31,-2.26,2.49,1.49,1.11,4.23,
1.901,-7.31,-2.26,2.49,1.48,1.08,4.28,
1.901,-7.31,-2.26,2.49,1.46,1.06,4.33,
1.901,-6.99,-2.81,2.40,1.46,1.06,4.33,
1.903,-6.99,-2.81,2.40,1.46,1.03,4.36,
1.906,-6.99,-2.81,2.40,1.44,1.01,4.40,
1.907,-6.75,-3.34,2.31,1.44,1.01,4.40,
1.908,-6.75,-3.34,2.31,1.43,1.00,4.43,
1.912,-6.48,-3.89,2.21,1.43,1.00,4.43,
1.913,-6.48,-3.89,2.21,1.42,0.98,4.46,
1.913,-6.48,-3.89,2.21,1.41,0.96,4.49,
1.916,-6.48,-3.89,2.21,1.40,0.95,4.51,
1.916,-6.22,-4.39,2.14,1.40,0.95,4.51,
1.918,-6.22,-4.39,2.14,1.39,0.93,4.53,
1.921,-6.22,-4.39,2.14,1.38,0.92,4.55,
1.921,-5.98,-4.87,2.10,1.38,0.92,4.55,
1.923,-5.98,-4.87,2.10,1.37,0.92,4.57,
1.926,-5.98,-4.87,2.10,1.37,0.91,4.58,
1.926,-5.71,-5.32,2.11,1.37,0.91,4.58,
1.929,-5.71,-5.32,2.11,1.36,0.91,4.59,
1.931,-5.71,-5.32,2.11,1.35,0.91,4.60,
1.931,-5.47,-5.73,2.07,1.35,0.91,4.60,
1.934,-5.47,-5.73,2.07,1.34,0.91,4.60,
1.937,-5.47,-5.73,2.07,1.34,0.92,4.61,
1.937,-5.19,-6.08,2.08,1.34,0.92,4.61,
1.938,-5.19,-6.08,2.08,1.33,0.92,4.61,
1.942,-5.19,-6.08,2.08,1.33,0.92,4.61,
1.942,-4.93,-6.35,2.10,1.33,0.92,4.61,
1.943,-4.93,-6.35,2.10,1.32,0.93,4.61,
1.946,-4.65,-6.61,2.08,1.32,0.93,4.61,
1.946,-4.65,-6.61,2.08,1.31,0.94,4.61,
1.949,-4.65,-6.61,2.08,1.30,0.95,4.60,
1.951,-4.65,-6.61,2.08,1.29,0.96,4.60,
1.951,-4.36,-6.80,2.10,1.29,0.96,4.60,
1.953,-4.36,-6.80,2.10,1.28,0.96,4.59,
1.956,-4.36,-6.80,2.10,1.27,0.97,4.59,
1.956,-4.10,-6.99,2.14,1.27,0.97,4.59,
1.958,-4.10,-6.99,2.14,1.26,0.98,4.58,
1.973,-3.81,-7.18,2.21,1.26,0.98,4.58,
1.973,-3.81,-7.18,2.21,1.24,0.98,4.57,
1.974,-3.81,-7.18,2.21,1.23,0.98,4.56,
1.974,-3.81,-7.18,2.21,1.22,0.98,4.55,
1.974,-3.56,-7.39,2.29,1.22,0.98,4.55,
1.975,-3.56,-7.39,2.29,1.20,0.97,4.54,
1.975,-3.56,-7.39,2.29,1.19,0.97,4.52,
1.976,-3.24,-7.53,2.42,1.19,0.97,4.52,
1.976,-3.24,-7.53,2.42,1.18,0.96,4.50,
1.976,-3.24,-7.53,2.42,1.17,0.95,4.49,
1.977,-2.96,-7.64,2.50,1.17,0.95,4.49,
1.993,-2.96,-7.64,2.50,1.15,0.94,4.47,
1.994,-2.96,-7.64,2.50,1.14,0.93,4.45,
1.994,-2.63,-7.71,2.55,1.14,0.93,4.45,
1.994,-2.63,-7.71,2.55,1.13,0.92,4.44,
1.994,-2.36,-7.77,2.60,1.13,0.92,4.44,
1.995,-2.36,-7.77,2.60,1.11,0.92,4.42,
1.995,-2.36,-7.77,2.60,1.10,0.90,4.41,
1.995,-2.11,-7.83,2.63,1.10,0.90,4.41,
1.995,-2.11,-7.83,2.63,1.09,0.89,4.40,
1.996,-2.11,-7.83,2.63,1.07,0.88,4.39,
1.996,-1.90,-7.86,2.68,1.07,0.88,4.39,
1.996,-1.90,-7.86,2.68,1.06,0.87,4.38,
2.002,-1.90,-7.86,2.68,1.05,0.85,4.37,
2.003,-1.90,-7.86,2.68,1.04,0.83,4.36,
2.003,-1.69,-7.90,2.75,1.04,0.83,4.36,
2.003,-1.69,-7.90,2.75,1.03,0.81,4.35,
2.005,-1.69,-7.90,2.75,1.02,0.80,4.35,
2.008,-1.46,-8.00,2.85,1.02,0.80,4.35,
2.013,-1.46,-8.00,2.85,1.01,0.78,4.34,
2.013,-1.46,-8.00,2.85,1.00,0.76,4.33,
2.014,-1.46,-8.00,2.85,0.99,0.74,4.32,
2.014,-1.20,-8.07,2.88,0.99,0.74,4.32,
2.018,-0.95,-8.19,2.93,0.99,0.74,4.32,
2.018,-0.95,-8.19,2.93,0.99,0.71,4.31,
2.018,-0.95,-8.19,2.93,0.98,0.69,4.30,
2.021,-0.95,-8.19,2.93,0.98,0.67,4.29,
2.021,-0.70,-8.29,2.93,0.98,0.67,4.29,
2.023,-0.70,-8.29,2.93,0.97,0.64,4.28,
2.025,-0.43,-8.39,2.91,0.97,0.64,4.28,
2.025,-0.43,-8.39,2.91,0.97,0.62,4.27,
2.029,-0.43,-8.39,2.91,0.96,0.60,4.25,
2.031,-0.18,-8.52,2.89,0.96,0.60,4.25,
2.031,-0.18,-8.52,2.89,0.96,0.57,4.24,
2.032,-0.18,-8.52,2.89,0.95,0.55,4.22,
2.035,-0.18,-8.52,2.89,0.94,0.53,4.20,
2.035,0.07,-8.61,2.84,0.94,0.53,4.20,
2.037,0.07,-8.61,2.84,0.94,0.51,4.18,
2.042,0.26,-8.72,2.81,0.94,0.51,4.18,
2.045,0.26,-8.72,2.81,0.93,0.48,4.16,
2.045,0.26,-8.72,2.81,0.92,0.46,4.15,
2.045,0.46,-8.82,2.76,0.92,0.46,4.15,
2.046,0.46,-8.82,2.76,0.91,0.43,4.13,
2.064,0.46,-8.82,2.76,0.90,0.41,4.11,
2.064,0.46,-8.82,2.76,0.89,0.38,4.08,
2.065,0.65,-8.93,2.67,0.89,0.38,4.08,
2.065,0.65,-8.93,2.67,0.88,0.35,4.06,
2.065,0.83,-8.99,2.63,0.88,0.35,4.06,
2.066,0.83,-8.99,2.63,0.86,0.33,4.04,
2.066,0.83,-8.99,2.63,0.85,0.30,4.02,
2.066,0.83,-8.99,2.63,0.84,0.28,3.99,
2.066,1.04,-9.07,2.55,0.84,0.28,3.99,
2.067,1.04,-9.07,2.55,0.82,0.26,3.97,
2.067,1.04,-9.07,2.55,0.80,0.23,3.94,
2.067,1.22,-9.12,2.49,0.80,0.23,3.94,
2.067,1.22,-9.12,2.49,0.79,0.20,3.92,
2.07,1.22,-9.12,2.49,0.77,0.18,3.89,
2.07,1.45,-9.20,2.44,0.77,0.18,3.89,
2.072,1.45,-9.20,2.44,0.75,0.16,3.87,
2.075,1.45,-9.20,2.44,0.74,0.14,3.84,
2.075,1.66,-9.24,2.36,0.74,0.14,3.84,
2.077,1.66,-9.24,2.36,0.72,0.12,3.81,
2.085,1.66,-9.24,2.36,0.70,0.09,3.78,
2.085,1.81,-9.31,2.29,0.70,0.09,3.78,
2.086,1.81,-9.31,2.29,0.68,0.07,3.75,
2.086,1.81,-9.31,2.29,0.66,0.05,3.72,
2.086,1.98,-9.37,2.18,0.66,0.05,3.72,
2.087,1.98,-9.37,2.18,0.64,0.04,3.69,
2.09,1.98,-9.37,2.18,0.61,0.02,3.66,
2.09,2.17,-9.43,2.13,0.61,0.02,3.66,
2.092,2.17,-9.43,2.13,0.59,0.00,3.63,
2.095,2.17,-9.43,2.13,0.57,-0.02,3.59,
2.096,2.38,-9.44,2.06,0.57,-0.02,3.59,
2.097,2.38,-9.44,2.06,0.54,-0.04,3.55,
2.1,2.38,-9.44,2.06,0.51,-0.06,3.51,
2.1,2.52,-9.50,2.01,0.51,-0.06,3.51,
2.102,2.52,-9.50,2.01,0.49,-0.07,3.48,
2.104,2.52,-9.50,2.01,0.46,-0.09,3.44,
2.105,2.64,-9.53,1.94,0.46,-0.09,3.44,
2.107,2.64,-9.53,1.94,0.43,-0.10,3.40,
2.109,2.64,-9.53,1.94,0.40,-0.12,3.37,
2.11,2.77,-9.54,1.87,0.40,-0.12,3.37,
2.113,2.77,-9.54,1.87,0.37,-0.14,3.33,
2.115,2.77,-9.54,1.87,0.34,-0.16,3.29,
2.115,2.91,-9.56,1.79,0.34,-0.16,3.29,
2.117,2.91,-9.56,1.79,0.31,-0.18,3.26,
2.12,2.91,-9.56,1.79,0.28,-0.20,3.22,
2.121,3.08,-9.58,1.77,0.28,-0.20,3.22,
2.123,3.08,-9.58,1.77,0.26,-0.22,3.18,
2.124,3.08,-9.58,1.77,0.23,-0.24,3.14,
2.124,3.21,-9.59,1.76,0.23,-0.24,3.14,
2.128,3.21,-9.59,1.76,0.20,-0.25,3.09,
2.133,3.35,-9.62,1.71,0.20,-0.25,3.09,
2.134,3.35,-9.62,1.71,0.18,-0.27,3.05,
2.134,3.35,-9.62,1.71,0.15,-0.28,3.00,
2.134,3.35,-9.62,1.71,0.12,-0.30,2.95,
2.134,3.50,-9.64,1.69,0.12,-0.30,2.95,
2.137,3.50,-9.64,1.69,0.10,-0.32,2.90,
2.139,3.50,-9.64,1.69,0.07,-0.34,2.85,
2.139,3.66,-9.64,1.67,0.07,-0.34,2.85,
2.141,3.66,-9.64,1.67,0.05,-0.36,2.81,
2.144,3.66,-9.64,1.67,0.02,-0.38,2.76,
2.145,3.79,-9.61,1.64,0.02,-0.38,2.76,
2.149,3.79,-9.61,1.64,-0.00,-0.40,2.71,
2.15,3.79,-9.61,1.64,-0.03,-0.42,2.67,
2.15,3.92,-9.58,1.59,-0.03,-0.42,2.67,
2.151,3.92,-9.58,1.59,-0.05,-0.43,2.62,
2.154,3.92,-9.58,1.59,-0.07,-0.45,2.58,
2.154,4.05,-9.53,1.55,-0.07,-0.45,2.58,
2.156,4.05,-9.53,1.55,-0.10,-0.47,2.54,
2.159,4.05,-9.53,1.55,-0.12,-0.48,2.50,
2.159,4.19,-9.51,1.51,-0.12,-0.48,2.50,
2.162,4.19,-9.51,1.51,-0.14,-0.50,2.45,
2.164,4.19,-9.51,1.51,-0.16,-0.51,2.41,
2.164,4.29,-9.47,1.45,-0.16,-0.51,2.41,
2.167,4.29,-9.47,1.45,-0.18,-0.53,2.37,
2.169,4.29,-9.47,1.45,-0.21,-0.54,2.33,
2.169,4.39,-9.44,1.38,-0.21,-0.54,2.33,
2.171,4.39,-9.44,1.38,-0.23,-0.56,2.30,
2.174,4.39,-9.44,1.38,-0.25,-0.58,2.26,
2.174,4.49,-9.39,1.34,-0.25,-0.58,2.26,
2.176,4.49,-9.39,1.34,-0.27,-0.59,2.22,
2.184,4.59,-9.37,1.30,-0.27,-0.59,2.22,
2.184,4.59,-9.37,1.30,-0.29,-0.60,2.18,
2.185,4.59,-9.37,1.30,-0.31,-0.62,2.15,
2.185,4.59,-9.37,1.30,-0.32,-0.64,2.11,
2.185,4.70,-9.33,1.24,-0.32,-0.64,2.11,
2.187,4.70,-9.33,1.24,-0.34,-0.65,2.07,
2.189,4.70,-9.33,1.24,-0.36,-0.66,2.04,
2.189,4.77,-9.28,1.19,-0.36,-0.66,2.04,
2.191,4.77,-9.28,1.19,-0.37,-0.68,2.00,
2.194,4.77,-9.28,1.19,-0.39,-0.69,1.97,
2.194,4.87,-9.25,1.12,-0.39,-0.69,1.97,
2.2,4.87,-9.25,1.12,-0.40,-0.70,1.93,
2.2,4.87,-9.25,1.12,-0.42,-0.72,1.90,
2.2,5.01,-9.26,1.06,-0.42,-0.72,1.90,
2.201,5.01,-9.26,1.06,-0.43,-0.73,1.86,
2.204,5.01,-9.26,1.06,-0.44,-0.74,1.82,
2.204,5.12,-9.26,0.96,-0.44,-0.74,1.82,
2.206,5.12,-9.26,0.96,-0.45,-0.74,1.78,
2.209,5.12,-9.26,0.96,-0.46,-0.75,1.74,
2.209,5.23,-9.32,0.90,-0.46,-0.75,1.74,
2.211,5.23,-9.32,0.90,-0.47,-0.76,1.69,
2.221,5.42,-9.41,0.83,-0.47,-0.76,1.69,
2.222,5.42,-9.41,0.83,-0.48,-0.77,1.65,
2.222,5.42,-9.41,0.83,-0.49,-0.78,1.59,
2.222,5.42,-9.41,0.83,-0.50,-0.79,1.54,
2.222,5.65,-9.50,0.78,-0.50,-0.79,1.54,
2.226,5.86,-9.56,0.74,-0.50,-0.79,1.54,
2.226,5.86,-9.56,0.74,-0.51,-0.80,1.48,
2.227,5.86,-9.56,0.74,-0.51,-0.81,1.41,
2.227,5.86,-9.56,0.74,-0.52,-0.81,1.35,
2.229,6.03,-9.62,0.66,-0.52,-0.81,1.35,
2.229,6.03,-9.62,0.66,-0.53,-0.81,1.28,
2.232,6.03,-9.62,0.66,-0.53,-0.82,1.21,
2.234,6.22,-9.66,0.56,-0.53,-0.82,1.21,
2.234,6.22,-9.66,0.56,-0.53,-0.82,1.14,
2.236,6.22,-9.66,0.56,-0.54,-0.82,1.07,
2.238,6.22,-9.66,0.56,-0.54,-0.81,1.00,
2.239,6.34,-9.70,0.46,-0.54,-0.81,1.00,
2.241,6.34,-9.70,0.46,-0.54,-0.81,0.92,
2.243,6.34,-9.70,0.46,-0.55,-0.80,0.84,
2.243,6.47,-9.71,0.35,-0.55,-0.80,0.84,
2.257,6.47,-9.71,0.35,-0.55,-0.80,0.77,
2.257,6.47,-9.71,0.35,-0.55,-0.78,0.69,
2.257,6.57,-9.75,0.27,-0.55,-0.78,0.69,
2.258,6.57,-9.75,0.27,-0.55,-0.77,0.60,
2.258,6.84,-9.47,0.22,-0.55,-0.77,0.60,
2.258,6.84,-9.47,0.22,-0.55,-0.76,0.49,
2.258,6.84,-9.47,0.22,-0.55,-0.76,0.37,
2.258,6.84,-9.47,0.22,-0.55,-0.77,0.27,
2.258,6.48,-9.87,0.30,-0.55,-0.77,0.27,
2.261,6.48,-9.87,0.30,-0.54,-0.78,0.20,
2.266,6.48,-9.87,0.30,-0.53,-0.78,0.13,
2.266,6.20,-10.33,0.18,-0.53,-0.78,0.13,
2.267,6.20,-10.33,0.18,-0.53,-0.76,0.06,
2.269,6.20,-10.33,0.18,-0.54,-0.73,-0.02,
2.269,6.44,-10.28,-0.10,-0.54,-0.73,-0.02,
2.271,6.44,-10.28,-0.10,-0.55,-0.70,-0.10,
2.275,6.70,-10.09,-0.37,-0.55,-0.70,-0.10,
2.275,6.70,-10.09,-0.37,-0.56,-0.67,-0.20,
2.276,6.70,-10.09,-0.37,-0.58,-0.63,-0.29,
2.279,6.71,-10.05,-0.47,-0.58,-0.63,-0.29,
2.279,6.71,-10.05,-0.47,-0.60,-0.59,-0.38,
2.282,6.71,-10.05,-0.47,-0.61,-0.56,-0.48,
2.283,6.71,-10.05,-0.47,-0.62,-0.53,-0.57,
2.283,6.56,-10.07,-0.43,-0.62,-0.53,-0.57,
2.285,6.56,-10.07,-0.43,-0.63,-0.50,-0.66,
2.288,6.56,-10.07,-0.43,-0.64,-0.47,-0.75,
2.288,6.36,-10.13,-0.37,-0.64,-0.47,-0.75,
2.291,6.36,-10.13,-0.37,-0.63,-0.45,-0.84,
2.293,6.36,-10.13,-0.37,-0.63,-0.44,-0.93,
2.293,6.14,-10.18,-0.30,-0.63,-0.44,-0.93,
2.296,6.14,-10.18,-0.30,-0.63,-0.42,-1.03,
2.299,5.94,-10.33,-0.32,-0.63,-0.42,-1.03,
2.3,5.94,-10.33,-0.32,-0.63,-0.42,-1.12,
2.301,5.94,-10.33,-0.32,-0.62,-0.40,-1.22,
2.303,5.70,-10.50,-0.40,-0.62,-0.40,-1.22,
2.303,5.70,-10.50,-0.40,-0.62,-0.39,-1.32,
2.305,5.70,-10.50,-0.40,-0.61,-0.37,-1.43,
2.308,5.44,-10.69,-0.47,-0.61,-0.37,-1.43,
2.308,5.44,-10.69,-0.47,-0.61,-0.35,-1.54,
2.31,5.44,-10.69,-0.47,-0.60,-0.33,-1.65,
2.313,5.44,-10.69,-0.47,-0.59,-0.31,-1.76,
2.313,5.18,-10.94,-0.57,-0.59,-0.31,-1.76,
2.316,5.18,-10.94,-0.57,-0.59,-0.27,-1.87,
2.318,4.85,-11.25,-0.72,-0.59,-0.27,-1.87,
2.318,4.85,-11.25,-0.72,-0.58,-0.24,-1.98,
2.321,4.85,-11.25,-0.72,-0.57,-0.20,-2.10,
2.322,4.49,-11.58,-0.89,-0.57,-0.20,-2.10,
2.323,4.49,-11.58,-0.89,-0.56,-0.16,-2.21,
2.325,4.49,-11.58,-0.89,-0.54,-0.11,-2.33,
2.327,4.49,-11.58,-0.89,-0.54,-0.06,-2.45,
2.327,4.13,-11.83,-1.11,-0.54,-0.06,-2.45,
2.333,4.13,-11.83,-1.11,-0.53,-0.00,-2.57,
2.333,4.13,-11.83,-1.11,-0.52,0.06,-2.69,
2.333,3.79,-12.15,-1.31,-0.52,0.06,-2.69,
2.335,3.79,-12.15,-1.31,-0.52,0.13,-2.81,
2.337,3.79,-12.15,-1.31,-0.52,0.20,-2.94,
2.337,3.51,-12.45,-1.49,-0.52,0.20,-2.94,
2.341,3.51,-12.45,-1.49,-0.52,0.27,-3.07,
2.342,3.29,-12.75,-1.67,-0.52,0.27,-3.07,
2.343,3.29,-12.75,-1.67,-0.52,0.35,-3.21,
2.345,3.29,-12.75,-1.67,-0.52,0.42,-3.35,
2.348,3.11,-12.94,-1.80,-0.52,0.42,-3.35,
2.348,3.11,-12.94,-1.80,-0.53,0.50,-3.50,
2.35,3.11,-12.94,-1.80,-0.53,0.58,-3.65,
2.353,2.89,-13.01,-1.79,-0.53,0.58,-3.65,
2.353,2.89,-13.01,-1.79,-0.53,0.67,-3.81,
2.354,2.89,-13.01,-1.79,-0.53,0.75,-3.97,
2.358,2.54,-12.96,-1.68,-0.53,0.75,-3.97,
2.358,2.54,-12.96,-1.68,-0.52,0.84,-4.12,
2.363,2.54,-12.96,-1.68,-0.50,0.93,-4.28,
2.363,2.04,-12.82,-1.47,-0.50,0.93,-4.28,
2.363,2.04,-12.82,-1.47,-0.48,1.02,-4.44,
2.364,2.04,-12.82,-1.47,-0.44,1.10,-4.59,
2.368,1.44,-12.60,-1.17,-0.44,1.10,-4.59,
2.368,1.44,-12.60,-1.17,-0.39,1.19,-4.74,
2.369,1.44,-12.60,-1.17,-0.33,1.27,-4.90,
2.372,0.74,-12.33,-0.80,-0.33,1.27,-4.90,
2.372,0.74,-12.33,-0.80,-0.26,1.35,-5.04,
2.374,0.74,-12.33,-0.80,-0.18,1.43,-5.19,
2.377,0.74,-12.33,-0.80,-0.09,1.49,-5.33,
2.388,-0.14,-12.07,-0.50,-0.09,1.49,-5.33,
2.388,-0.14,-12.07,-0.50,0.00,1.55,-5.47,
2.388,-0.14,-12.07,-0.50,0.10,1.60,-5.60,
2.389,-1.11,-11.76,-0.27,0.10,1.60,-5.60,
2.389,-1.11,-11.76,-0.27,0.21,1.64,-5.73,
2.389,-1.11,-11.76,-0.27,0.32,1.67,-5.85,
2.389,-2.21,-11.41,-0.14,0.32,1.67,-5.85,
2.389,-2.21,-11.41,-0.14,0.43,1.69,-5.96,
2.393,-3.59,-11.06,-0.13,0.43,1.69,-5.96,
2.394,-3.59,-11.06,-0.13,0.54,1.70,-6.05,
2.394,-3.59,-11.06,-0.13,0.65,1.70,-6.13,
2.4,-5.16,-10.71,-0.35,0.65,1.70,-6.13,
2.4,-5.16,-10.71,-0.35,0.75,1.69,-6.20,
2.407,-5.16,-10.71,-0.35,0.84,1.68,-6.24,
2.408,-6.60,-10.26,-0.65,0.84,1.68,-6.24,
2.408,-6.60,-10.26,-0.65,0.91,1.66,-6.28,
2.408,-6.60,-10.26,-0.65,0.97,1.64,-6.29,
2.408,-6.60,-10.26,-0.65,1.02,1.62,-6.30,
2.409,-7.79,-9.73,-0.90,1.02,1.62,-6.30,
2.409,-7.79,-9.73,-0.90,1.06,1.59,-6.28,
2.413,-8.77,-9.15,-1.20,1.06,1.59,-6.28,
2.414,-8.77,-9.15,-1.20,1.09,1.55,-6.25,
2.415,-8.77,-9.15,-1.20,1.10,1.51,-6.21,
2.417,-8.77,-9.15,-1.20,1.10,1.47,-6.16,
2.417,-9.55,-8.60,-1.45,1.10,1.47,-6.16,
2.42,-9.55,-8.60,-1.45,1.09,1.42,-6.10,
2.422,-9.55,-8.60,-1.45,1.07,1.37,-6.04,
2.422,-10.14,-8.13,-1.63,1.07,1.37,-6.04,
2.424,-10.14,-8.13,-1.63,1.04,1.31,-5.97,
2.426,-10.14,-8.13,-1.63,0.99,1.25,-5.91,
2.427,-10.53,-7.75,-1.68,0.99,1.25,-5.91,
2.429,-10.53,-7.75,-1.68,0.94,1.18,-5.86,
2.432,-10.77,-7.41,-1.56,0.94,1.18,-5.86,
2.432,-10.77,-7.41,-1.56,0.88,1.11,-5.81,
2.434,-10.77,-7.41,-1.56,0.82,1.02,-5.76,
2.436,-10.77,-7.41,-1.56,0.76,0.93,-5.73,
2.437,-11.02,-7.06,-1.39,0.76,0.93,-5.73,
2.439,-11.02,-7.06,-1.39,0.69,0.84,-5.69,
2.442,-11.29,-6.68,-1.20,0.69,0.84,-5.69,
2.442,-11.29,-6.68,-1.20,0.62,0.72,-5.67,
2.445,-11.29,-6.68,-1.20,0.55,0.61,-5.64,
2.447,-11.56,-6.26,-1.08,0.55,0.61,-5.64,
2.447,-11.56,-6.26,-1.08,0.48,0.48,-5.62,
2.449,-11.56,-6.26,-1.08,0.41,0.35,-5.60,
2.451,-11.79,-5.82,-1.00,0.41,0.35,-5.60,
2.452,-11.79,-5.82,-1.00,0.33,0.22,-5.58,
2.454,-11.79,-5.82,-1.00,0.26,0.07,-5.57,
2.456,-11.79,-5.82,-1.00,0.18,-0.06,-5.55,
2.456,-11.84,-5.23,-1.00,0.18,-0.06,-5.55,
2.459,-11.84,-5.23,-1.00,0.10,-0.20,-5.53,
2.461,-11.84,-5.23,-1.00,0.03,-0.33,-5.50,
2.462,-11.73,-4.47,-1.09,0.03,-0.33,-5.50,
2.464,-11.73,-4.47,-1.09,-0.06,-0.46,-5.48,
2.47,-11.54,-3.55,-1.27,-0.06,-0.46,-5.48,
2.47,-11.54,-3.55,-1.27,-0.14,-0.57,-5.45,
2.47,-11.54,-3.55,-1.27,-0.23,-0.67,-5.41,
2.471,-11.33,-2.59,-1.47,-0.23,-0.67,-5.41,
2.472,-11.33,-2.59,-1.47,-0.32,-0.76,-5.37,
2.473,-11.33,-2.59,-1.47,-0.41,-0.85,-5.32,
2.476,-11.33,-2.59,-1.47,-0.50,-0.93,-5.27,
2.477,-11.10,-1.60,-1.63,-0.50,-0.93,-5.27,
2.481,-11.10,-1.60,-1.63,-0.60,-0.99,-5.21,
2.482,-11.10,-1.60,-1.63,-0.70,-1.05,-5.15,
2.482,-10.87,-0.62,-1.71,-0.70,-1.05,-5.15,
2.486,-10.87,-0.62,-1.71,-0.80,-1.10,-5.08,
2.486,-10.87,-0.62,-1.71,-0.90,-1.14,-5.01,
2.486,-10.53,0.31,-1.67,-0.90,-1.14,-5.01,
2.489,-10.53,0.31,-1.67,-1.00,-1.19,-4.93,
2.491,-10.10,1.12,-1.53,-1.00,-1.19,-4.93,
2.492,-10.10,1.12,-1.53,-1.10,-1.22,-4.85,
2.493,-10.10,1.12,-1.53,-1.21,-1.26,-4.77,
2.497,-9.62,1.72,-1.28,-1.21,-1.26,-4.77,
2.498,-9.62,1.72,-1.28,-1.31,-1.29,-4.70,
2.499,-9.62,1.72,-1.28,-1.40,-1.33,-4.62,
2.501,-9.22,2.13,-0.97,-1.40,-1.33,-4.62,
2.501,-9.22,2.13,-0.97,-1.50,-1.37,-4.54,
2.504,-9.22,2.13,-0.97,-1.60,-1.42,-4.46,
2.506,-9.05,2.37,-0.69,-1.60,-1.42,-4.46,
2.506,-9.05,2.37,-0.69,-1.70,-1.47,-4.38,
2.509,-9.05,2.37,-0.69,-1.79,-1.53,-4.30,
2.511,-9.05,2.37,-0.69,-1.89,-1.58,-4.21,
2.511,-8.83,2.58,-0.45,-1.89,-1.58,-4.21,
2.514,-8.83,2.58,-0.45,-1.98,-1.64,-4.12,
2.516,-8.83,2.58,-0.45,-2.07,-1.71,-4.02,
2.516,-8.68,2.85,-0.22,-2.07,-1.71,-4.02,
2.518,-8.68,2.85,-0.22,-2.16,-1.77,-3.91,
2.521,-8.71,3.17,-0.04,-2.16,-1.77,-3.91,
2.521,-8.71,3.17,-0.04,-2.25,-1.84,-3.79,
2.523,-8.71,3.17,-0.04,-2.34,-1.91,-3.66,
2.526,-8.71,3.17,-0.04,-2.43,-1.98,-3.52,
2.526,-8.76,3.54,0.06,-2.43,-1.98,-3.52,
2.528,-8.76,3.54,0.06,-2.52,-2.06,-3.36,
2.531,-8.64,3.92,0.19,-2.52,-2.06,-3.36,
2.531,-8.64,3.92,0.19,-2.60,-2.13,-3.19,
2.533,-8.64,3.92,0.19,-2.68,-2.20,-3.02,
2.536,-8.64,3.92,0.19,-2.75,-2.27,-2.84,
2.536,-8.25,4.21,0.40,-2.75,-2.27,-2.84,
2.538,-8.25,4.21,0.40,-2.81,-2.33,-2.67,
2.541,-7.68,4.33,0.58,-2.81,-2.33,-2.67,
2.541,-7.68,4.33,0.58,-2.87,-2.39,-2.49,
2.553,-7.68,4.33,0.58,-2.92,-2.44,-2.31,
2.553,-7.01,4.33,0.69,-2.92,-2.44,-2.31,
2.553,-7.01,4.33,0.69,-2.96,-2.49,-2.15,
2.553,-7.01,4.33,0.69,-3.01,-2.53,-1.98,
2.554,-6.33,4.17,0.74,-3.01,-2.53,-1.98,
2.554,-6.33,4.17,0.74,-3.05,-2.56,-1.83,
2.554,-6.33,4.17,0.74,-3.08,-2.59,-1.68,
2.555,-6.33,4.17,0.74,-3.12,-2.62,-1.54,
2.556,-5.62,3.89,0.75,-3.12,-2.62,-1.54,
2.558,-5.62,3.89,0.75,-3.15,-2.64,-1.41,
2.562,-4.88,3.58,0.73,-3.15,-2.64,-1.41,
2.562,-4.88,3.58,0.73,-3.19,-2.66,-1.29,
2.567,-4.88,3.58,0.73,-3.22,-2.68,-1.18,
2.567,-4.88,3.58,0.73,-3.25,-2.69,-1.08,
2.568,-4.17,3.27,0.67,-3.25,-2.69,-1.08,
2.568,-4.17,3.27,0.67,-3.29,-2.70,-0.99,
2.571,-4.17,3.27,0.67,-3.32,-2.70,-0.91,
2.572,-3.52,2.97,0.60,-3.32,-2.70,-0.91,
2.573,-3.52,2.97,0.60,-3.35,-2.70,-0.83,
2.576,-2.94,2.71,0.53,-3.35,-2.70,-0.83,
2.576,-2.94,2.71,0.53,-3.39,-2.69,-0.76,
2.578,-2.94,2.71,0.53,-3.42,-2.68,-0.70,
2.581,-2.44,2.51,0.49,-3.42,-2.68,-0.70,
2.584,-2.44,2.51,0.49,-3.45,-2.66,-0.64,
2.585,-2.44,2.51,0.49,-3.48,-2.64,-0.58,
2.585,-2.44,2.51,0.49,-3.51,-2.62,-0.53,
2.585,-2.05,2.40,0.47,-3.51,-2.62,-0.53,
2.588,-2.05,2.40,0.47,-3.54,-2.59,-0.48,
2.59,-2.05,2.40,0.47,-3.57,-2.56,-0.42,
2.591,-1.72,2.32,0.42,-3.57,-2.56,-0.42,
2.592,-1.72,2.32,0.42,-3.60,-2.52,-0.38,
2.597,-1.72,2.32,0.42,-3.63,-2.48,-0.33,
2.597,-1.49,2.22,0.45,-3.63,-2.48,-0.33,
2.598,-1.49,2.22,0.45,-3.66,-2.44,-0.28,
2.601,-1.49,2.22,0.45,-3.69,-2.40,-0.23,
2.601,-1.30,2.09,0.46,-3.69,-2.40,-0.23,
2.602,-1.30,2.09,0.46,-3.71,-2.35,-0.18,
2.605,-1.10,1.95,0.52,-3.71,-2.35,-0.18,
2.605,-1.10,1.95,0.52,-3.74,-2.30,-0.14,
2.607,-1.10,1.95,0.52,-3.76,-2.25,-0.10,
2.61,-1.10,1.95,0.52,-3.78,-2.19,-0.06,
2.61,-0.90,1.78,0.62,-3.78,-2.19,-0.06,
2.614,-0.90,1.78,0.62,-3.80,-2.13,-0.02,
2.615,-0.68,1.58,0.74,-3.80,-2.13,-0.02,
2.615,-0.68,1.58,0.74,-3.82,-2.08,0.01,
2.617,-0.68,1.58,0.74,-3.84,-2.02,0.04,
2.62,-0.68,1.58,0.74,-3.85,-1.96,0.06,
2.621,-0.49,1.39,0.88,-3.85,-1.96,0.06,
2.622,-0.49,1.39,0.88,-3.87,-1.89,0.09,
2.625,-0.49,1.39,0.88,-3.88,-1.83,0.11,
2.625,-0.29,1.19,1.03,-3.88,-1.83,0.11,
2.627,-0.29,1.19,1.03,-3.88,-1.76,0.12,
2.631,-0.18,0.99,1.19,-3.88,-1.76,0.12,
2.632,-0.18,0.99,1.19,-3.89,-1.69,0.13,
2.632,-0.18,0.99,1.19,-3.90,-1.62,0.14,
2.635,-0.02,0.80,1.38,-3.90,-1.62,0.14,
2.635,-0.02,0.80,1.38,-3.90,-1.55,0.14,
2.638,-0.02,0.80,1.38,-3.90,-1.48,0.14,
2.641,0.16,0.57,1.57,-3.90,-1.48,0.14,
2.641,0.16,0.57,1.57,-3.89,-1.40,0.13,
2.643,0.16,0.57,1.57,-3.89,-1.33,0.12,
2.647,0.32,0.38,1.78,-3.89,-1.33,0.12,
2.648,0.32,0.38,1.78,-3.88,-1.26,0.10,
2.648,0.32,0.38,1.78,-3.86,-1.18,0.08,
2.65,0.32,0.38,1.78,-3.85,-1.11,0.05,
2.651,0.47,0.16,2.01,-3.85,-1.11,0.05,
2.652,0.47,0.16,2.01,-3.83,-1.04,0.01,
2.655,0.47,0.16,2.01,-3.81,-0.97,-0.04,
2.655,0.67,-0.10,2.31,-3.81,-0.97,-0.04,
2.657,0.67,-0.10,2.31,-3.78,-0.91,-0.10,
2.66,0.86,-0.35,2.67,-3.78,-0.91,-0.10,
2.66,0.86,-0.35,2.67,-3.75,-0.84,-0.17,
2.666,0.86,-0.35,2.67,-3.72,-0.78,-0.24,
2.671,1.05,-0.50,3.05,-3.72,-0.78,-0.24,
2.671,1.05,-0.50,3.05,-3.68,-0.72,-0.33,
2.672,1.05,-0.50,3.05,-3.63,-0.66,-0.42,
2.672,1.05,-0.50,3.05,-3.57,-0.60,-0.51,
2.672,1.19,-0.52,3.44,-3.57,-0.60,-0.51,
2.673,1.19,-0.52,3.44,-3.51,-0.55,-0.61,
2.675,1.21,-0.43,3.84,-3.51,-0.55,-0.61,
2.675,1.21,-0.43,3.84,-3.44,-0.50,-0.71,
2.677,1.21,-0.43,3.84,-3.36,-0.44,-0.81,
2.684,1.21,-0.43,3.84,-3.28,-0.40,-0.92,
2.685,1.10,-0.25,4.23,-3.28,-0.40,-0.92,
2.685,1.10,-0.25,4.23,-3.19,-0.36,-1.02,
2.685,1.10,-0.25,4.23,-3.09,-0.31,-1.13,
2.685,0.95,0.04,4.57,-3.09,-0.31,-1.13,
2.687,0.95,0.04,4.57,-2.99,-0.27,-1.22,
2.69,0.95,0.04,4.57,-2.89,-0.24,-1.32,
2.69,0.75,0.37,4.83,-2.89,-0.24,-1.32,
2.692,0.75,0.37,4.83,-2.78,-0.20,-1.41,
2.694,0.75,0.37,4.83,-2.67,-0.17,-1.50,
2.695,0.59,0.78,4.98,-2.67,-0.17,-1.50,
2.697,0.59,0.78,4.98,-2.57,-0.13,-1.58,
2.701,0.43,1.22,5.02,-2.57,-0.13,-1.58,
2.702,0.43,1.22,5.02,-2.47,-0.09,-1.65,
2.702,0.43,1.22,5.02,-2.37,-0.04,-1.71,
2.704,0.21,1.68,4.94,-2.37,-0.04,-1.71,
2.705,0.21,1.68,4.94,-2.28,0.01,-1.77,
2.707,0.21,1.68,4.94,-2.19,0.06,-1.82,
2.721,0.21,1.68,4.94,-2.11,0.12,-1.86,
2.721,-0.03,2.11,4.89,-2.11,0.12,-1.86,
2.721,-0.03,2.11,4.89,-2.03,0.17,-1.90,
2.722,-0.03,2.11,4.89,-1.96,0.23,-1.93,
2.722,-0.29,2.48,4.86,-1.96,0.23,-1.93,
2.722,-0.29,2.48,4.86,-1.89,0.29,-1.96,
2.722,-0.57,2.80,4.86,-1.89,0.29,-1.96,
2.722,-0.57,2.80,4.86,-1.82,0.34,-1.98,
2.723,-0.57,2.80,4.86,-1.76,0.39,-2.00,
2.724,-0.57,2.80,4.86,-1.70,0.44,-2.01,
2.725,-0.93,3.07,4.91,-1.70,0.44,-2.01,
2.726,-0.93,3.07,4.91,-1.64,0.49,-2.03,
2.73,-1.30,3.33,4.99,-1.64,0.49,-2.03,
2.73,-1.30,3.33,4.99,-1.58,0.53,-2.04,
2.731,-1.30,3.33,4.99,-1.53,0.57,-2.05,
2.734,-1.30,3.33,4.99,-1.47,0.60,-2.06,
2.734,-1.70,3.56,5.13,-1.47,0.60,-2.06,
2.736,-1.70,3.56,5.13,-1.42,0.64,-2.07,
2.739,-1.70,3.56,5.13,-1.36,0.67,-2.07,
2.739,-2.23,3.77,5.25,-1.36,0.67,-2.07,
2.742,-2.23,3.77,5.25,-1.31,0.70,-2.08,
2.744,-2.23,3.77,5.25,-1.25,0.72,-2.08,
2.745,-2.85,3.99,5.35,-1.25,0.72,-2.08,
2.747,-2.85,3.99,5.35,-1.20,0.75,-2.07,
2.75,-2.85,3.99,5.35,-1.14,0.77,-2.07,
2.751,-3.47,4.20,5.49,-1.14,0.77,-2.07,
2.751,-3.47,4.20,5.49,-1.08,0.80,-2.05,
2.754,-4.04,4.43,5.62,-1.08,0.80,-2.05,
2.754,-4.04,4.43,5.62,-1.02,0.81,-2.04,
2.756,-4.04,4.43,5.62,-0.96,0.83,-2.02,
2.759,-4.04,4.43,5.62,-0.90,0.84,-2.00,
2.759,-4.54,4.67,5.72,-0.90,0.84,-2.00,
2.761,-4.54,4.67,5.72,-0.84,0.85,-1.98,
2.765,-4.54,4.67,5.72,-0.77,0.86,-1.96,
2.765,-4.98,4.89,5.80,-0.77,0.86,-1.96,
2.77,-4.98,4.89,5.80,-0.70,0.87,-1.93,
2.77,-4.98,4.89,5.80,-0.64,0.88,-1.90,
2.77,-5.49,5.06,5.87,-0.64,0.88,-1.90,
2.772,-5.49,5.06,5.87,-0.57,0.89,-1.87,
2.775,-5.49,5.06,5.87,-0.50,0.90,-1.84,
2.775,-5.95,5.14,5.90,-0.50,0.90,-1.84,
2.776,-5.95,5.14,5.90,-0.44,0.92,-1.81,
2.778,-5.95,5.14,5.90,-0.37,0.93,-1.78,
2.779,-6.36,5.23,5.93,-0.37,0.93,-1.78,
2.781,-6.36,5.23,5.93,-0.31,0.94,-1.75,
2.784,-6.74,5.27,5.98,-0.31,0.94,-1.75,
2.784,-6.74,5.27,5.98,-0.25,0.95,-1.72,
2.786,-6.74,5.27,5.98,-0.19,0.95,-1.69,
2.788,-7.09,5.37,6.03,-0.19,0.95,-1.69,
2.788,-7.09,5.37,6.03,-0.13,0.96,-1.67,
2.791,-7.09,5.37,6.03,-0.07,0.97,-1.64,
2.794,-7.45,5.48,6.10,-0.07,0.97,-1.64,
2.795,-7.45,5.48,6.10,-0.01,0.98,-1.62,
2.797,-7.45,5.48,6.10,0.05,0.98,-1.59,
2.8,-7.82,5.57,6.17,0.05,0.98,-1.59,
2.8,-7.82,5.57,6.17,0.10,0.99,-1.57,
2.802,-7.82,5.57,6.17,0.16,0.99,-1.54,
2.804,-7.82,5.57,6.17,0.21,0.99,-1.51,
2.805,-8.28,5.71,6.29,0.21,0.99,-1.51,
2.806,-8.28,5.71,6.29,0.26,0.98,-1.47,
2.809,-8.28,5.71,6.29,0.31,0.98,-1.44,
2.81,-8.79,5.89,6.28,0.31,0.98,-1.44,
2.815,-8.79,5.89,6.28,0.35,0.98,-1.39,
2.815,-8.79,5.89,6.28,0.40,0.97,-1.34,
2.815,-9.33,6.07,6.28,0.40,0.97,-1.34,
2.817,-9.33,6.07,6.28,0.44,0.97,-1.28,
2.818,-9.86,6.26,6.25,0.44,0.97,-1.28,
2.819,-9.86,6.26,6.25,0.47,0.96,-1.21,
2.821,-9.86,6.26,6.25,0.50,0.95,-1.14,
2.823,-9.86,6.26,6.25,0.53,0.95,-1.06,
2.824,-10.40,6.40,6.26,0.53,0.95,-1.06,
2.826,-10.40,6.40,6.26,0.56,0.94,-0.96,
2.828,-10.40,6.40,6.26,0.58,0.93,-0.86,
2.828,-10.96,6.43,6.23,0.58,0.93,-0.86,
2.831,-10.96,6.43,6.23,0.60,0.92,-0.76,
2.833,-10.96,6.43,6.23,0.62,0.91,-0.64,
2.834,-11.52,6.34,6.21,0.62,0.91,-0.64,
2.838,-11.52,6.34,6.21,0.64,0.90,-0.52,
2.838,-11.52,6.34,6.21,0.65,0.88,-0.40,
2.839,-11.98,6.08,6.29,0.65,0.88,-0.40,
2.841,-11.98,6.08,6.29,0.67,0.86,-0.27,
2.844,-11.98,6.08,6.29,0.68,0.84,-0.15,
2.844,-12.37,5.74,6.42,0.68,0.84,-0.15,
2.846,-12.37,5.74,6.42,0.70,0.82,-0.03,
2.849,-12.57,5.40,6.60,0.70,0.82,-0.03,
2.849,-12.57,5.40,6.60,0.72,0.78,0.09,
2.851,-12.57,5.40,6.60,0.74,0.74,0.20,
2.854,-12.57,5.40,6.60,0.77,0.70,0.31,
2.854,-12.66,5.03,6.83,0.77,0.70,0.31,
2.855,-12.66,5.03,6.83,0.81,0.66,0.41,
2.858,-12.66,5.03,6.83,0.85,0.61,0.50,
2.858,-12.68,4.73,7.08,0.85,0.61,0.50,
2.86,-12.68,4.73,7.08,0.90,0.55,0.59,
2.866,-12.68,4.73,7.08,0.95,0.49,0.68,
2.87,-12.51,4.55,7.25,0.95,0.49,0.68,
2.871,-12.21,4.45,7.34,0.95,0.49,0.68,
2.872,-12.21,4.45,7.34,1.02,0.42,0.75,
2.872,-12.21,4.45,7.34,1.08,0.35,0.83,
2.873,-12.21,4.45,7.34,1.15,0.28,0.89,
2.873,-12.21,4.45,7.34,1.22,0.19,0.96,
2.899,-11.76,4.49,7.30,1.22,0.19,0.96,
2.9,-11.76,4.49,7.30,1.30,0.11,1.01,
2.9,-11.31,4.62,7.08,1.30,0.11,1.01,
2.9,-11.31,4.62,7.08,1.37,0.04,1.07,
2.901,-11.31,4.62,7.08,1.44,-0.04,1.13,
2.901,-10.91,4.72,6.66,1.44,-0.04,1.13,
2.901,-10.91,4.72,6.66,1.51,-0.10,1.20,
2.902,-10.91,4.72,6.66,1.57,-0.16,1.27,
2.902,-10.91,4.72,6.66,1.62,-0.22,1.35,
2.902,-10.53,4.76,6.11,1.62,-0.22,1.35,
2.903,-10.53,4.76,6.11,1.66,-0.27,1.43,
2.903,-10.20,4.72,5.51,1.66,-0.27,1.43,
2.903,-10.20,4.72,5.51,1.70,-0.31,1.52,
2.904,-10.20,4.72,5.51,1.72,-0.35,1.62,
2.904,-10.20,4.72,5.51,1.74,-0.37,1.72,
2.904,-9.85,4.58,5.00,1.74,-0.37,1.72,
2.904,-9.85,4.58,5.00,1.75,-0.39,1.83,
2.905,-9.49,4.33,4.65,1.75,-0.39,1.83,
2.905,-9.49,4.33,4.65,1.76,-0.40,1.93,
2.905,-9.49,4.33,4.65,1.77,-0.40,2.05,
2.908,-9.49,4.33,4.65,1.78,-0.39,2.16,
2.909,-9.08,3.95,4.40,1.78,-0.39,2.16,
2.91,-9.08,3.95,4.40,1.79,-0.39,2.26,
2.912,-9.08,3.95,4.40,1.80,-0.38,2.37,
2.913,-8.62,3.47,4.26,1.80,-0.38,2.37,
2.915,-8.62,3.47,4.26,1.82,-0.37,2.47,
2.917,-8.62,3.47,4.26,1.84,-0.36,2.56,
2.917,-8.12,2.92,4.19,1.84,-0.36,2.56,
2.919,-8.12,2.92,4.19,1.86,-0.35,2.65,
2.922,-8.12,2.92,4.19,1.89,-0.34,2.72,
2.923,-7.63,2.32,4.17,1.89,-0.34,2.72,
2.925,-7.63,2.32,4.17,1.92,-0.32,2.79,
2.928,-7.13,1.65,4.17,1.92,-0.32,2.79,
2.928,-7.13,1.65,4.17,1.96,-0.31,2.85,
2.931,-7.13,1.65,4.17,2.01,-0.29,2.90,
2.933,-7.13,1.65,4.17,2.06,-0.27,2.93,
2.933,-6.62,1.03,4.12,2.06,-0.27,2.93,
2.936,-6.62,1.03,4.12,2.11,-0.25,2.96,
2.938,-6.62,1.03,4.12,2.16,-0.23,2.98,
2.938,-6.06,0.46,4.03,2.16,-0.23,2.98,
2.94,-6.06,0.46,4.03,2.22,-0.20,2.99,
2.942,-6.06,0.46,4.03,2.27,-0.17,3.00,
2.942,-5.56,-0.03,3.91,2.27,-0.17,3.00,
2.945,-5.56,-0.03,3.91,2.34,-0.13,3.00,
2.948,-5.07,-0.46,3.81,2.34,-0.13,3.00,
2.948,-5.07,-0.46,3.81,2.40,-0.08,3.00,
2.95,-5.07,-0.46,3.81,2.46,-0.04,2.98,
2.953,-5.07,-0.46,3.81,2.52,0.01,2.97,
2.953,-4.63,-0.81,3.66,2.52,0.01,2.97,
2.955,-4.63,-0.81,3.66,2.59,0.07,2.95,
2.958,-4.63,-0.81,3.66,2.66,0.13,2.92,
2.958,-4.23,-1.09,3.54,2.66,0.13,2.92,
2.96,-4.23,-1.09,3.54,2.73,0.19,2.90,
2.962,-4.23,-1.09,3.54,2.79,0.25,2.88,
2.962,-3.91,-1.27,3.40,2.79,0.25,2.88,
2.965,-3.91,-1.27,3.40,2.86,0.32,2.85,
2.967,-3.91,-1.27,3.40,2.93,0.39,2.83,
2.968,-3.66,-1.42,3.26,2.93,0.39,2.83,
2.973,-3.66,-1.42,3.26,3.00,0.46,2.80,
2.973,-3.66,-1.42,3.26,3.06,0.54,2.78,
2.974,-3.66,-1.42,3.26,3.12,0.62,2.77,
2.976,-3.51,-1.53,3.08,3.12,0.62,2.77,
2.977,-3.38,-1.61,2.93,3.12,0.62,2.77,
2.978,-3.38,-1.61,2.93,3.18,0.69,2.75,
2.986,-3.32,-1.70,2.82,3.18,0.69,2.75,
2.986,-3.32,-1.70,2.82,3.24,0.77,2.74,
2.986,-3.32,-1.70,2.82,3.30,0.84,2.72,
2.987,-3.32,-1.70,2.82,3.35,0.92,2.71,
2.987,-3.28,-1.77,2.70,3.35,0.92,2.71,
2.987,-3.28,-1.77,2.70,3.41,0.99,2.71,
2.989,-3.28,-1.77,2.70,3.46,1.06,2.70,
2.992,-3.28,-1.77,2.70,3.51,1.12,2.70,
2.992,-3.31,-1.82,2.60,3.51,1.12,2.70,
2.994,-3.31,-1.82,2.60,3.55,1.18,2.70,
2.997,-3.31,-1.82,2.60,3.59,1.23,2.71,
2.998,-3.31,-1.88,2.49,3.59,1.23,2.71,
3.0,-3.31,-1.88,2.49,3.63,1.29,2.72,
3.002,-3.31,-1.88,2.49,3.67,1.34,2.73,
3.002,-3.22,-1.91,2.38,3.67,1.34,2.73,
3.004,-3.22,-1.91,2.38,3.71,1.38,2.74,
3.006,-3.22,-1.91,2.38,3.74,1.43,2.75,
3.007,-3.11,-1.91,2.29,3.74,1.43,2.75,
3.009,-3.11,-1.91,2.29,3.77,1.47,2.77,
3.012,-3.11,-1.91,2.29,3.79,1.51,2.79,
3.012,-3.01,-1.93,2.16,3.79,1.51,2.79,
3.014,-3.01,-1.93,2.16,3.81,1.55,2.81,
3.017,-3.01,-1.93,2.16,3.84,1.58,2.83,
3.017,-2.89,-1.99,2.04,3.84,1.58,2.83,
3.019,-2.89,-1.99,2.04,3.85,1.61,2.85,
3.022,-2.75,-2.04,1.90,3.85,1.61,2.85,
3.022,-2.75,-2.04,1.90,3.86,1.64,2.88,
3.024,-2.75,-2.04,1.90,3.87,1.66,2.90,
3.027,-2.75,-2.04,1.90,3.87,1.68,2.92,
3.027,-2.59,-2.14,1.79,3.87,1.68,2.92,
3.029,-2.59,-2.14,1.79,3.87,1.70,2.95,
3.034,-2.41,-2.26,1.67,3.87,1.70,2.95,
3.036,-2.41,-2.26,1.67,3.87,1.72,2.97,
3.036,-2.41,-2.26,1.67,3.87,1.74,3.00,
3.037,-2.41,-2.26,1.67,3.86,1.75,3.02,
3.037,-2.20,-2.40,1.61,3.86,1.75,3.02,
3.072,-2.20,-2.40,1.61,3.85,1.76,3.04,
3.073,-2.20,-2.40,1.61,3.84,1.77,3.06,
3.073,-1.99,-2.55,1.58,3.84,1.77,3.06,
3.074,-1.99,-2.55,1.58,3.82,1.78,3.08,
3.074,-1.99,-2.55,1.58,3.80,1.78,3.10,
3.075,-1.79,-2.78,1.49,3.80,1.78,3.10,
3.075,-1.79,-2.78,1.49,3.78,1.79,3.11,
3.076,-1.58,-3.04,1.44,3.78,1.79,3.11,
3.076,-1.58,-3.04,1.44,3.76,1.78,3.12,
3.077,-1.58,-3.04,1.44,3.73,1.78,3.13,
3.077,-1.37,-3.27,1.40,3.73,1.78,3.13,
3.078,-1.37,-3.27,1.40,3.70,1.77,3.14,
3.078,-1.37,-3.27,1.40,3.67,1.77,3.15,
3.079,-1.14,-3.46,1.39,3.67,1.77,3.15,
3.079,-1.14,-3.46,1.39,3.63,1.76,3.15,
3.08,-1.14,-3.46,1.39,3.60,1.75,3.15,
3.08,-1.14,-3.46,1.39,3.57,1.74,3.15,
3.08,-0.93,-3.67,1.38,3.57,1.74,3.15,
3.081,-0.93,-3.67,1.38,3.53,1.73,3.15,
3.081,-0.93,-3.67,1.38,3.50,1.72,3.15,
3.081,-0.74,-3.86,1.38,3.50,1.72,3.15,
3.081,-0.74,-3.86,1.38,3.46,1.71,3.14,
3.082,-0.74,-3.86,1.38,3.43,1.70,3.13,
3.082,-0.60,-4.09,1.38,3.43,1.70,3.13,
3.082,-0.60,-4.09,1.38,3.39,1.68,3.13,
3.082,-0.43,-4.31,1.36,3.39,1.68,3.13,
3.083,-0.43,-4.31,1.36,3.35,1.67,3.12,
3.084,-0.43,-4.31,1.36,3.31,1.65,3.11,
3.088,-0.26,-4.50,1.35,3.31,1.65,3.11,
3.088,-0.26,-4.50,1.35,3.27,1.64,3.10,
3.088,-0.26,-4.50,1.35,3.23,1.63,3.09,
3.092,-0.26,-4.50,1.35,3.19,1.61,3.07,
3.093,-0.06,-4.69,1.31,3.19,1.61,3.07,
3.093,-0.06,-4.69,1.31,3.14,1.60,3.06,
3.097,-0.06,-4.69,1.31,3.10,1.59,3.04,
3.097,0.13,-4.87,1.30,3.10,1.59,3.04,
3.1,0.13,-4.87,1.30,3.06,1.58,3.02,
3.103,0.13,-4.87,1.30,3.01,1.57,3.00,
3.104,0.23,-5.05,1.29,3.01,1.57,3.00,
3.104,0.23,-5.05,1.29,2.97,1.56,2.98,
3.106,0.23,-5.05,1.29,2.92,1.55,2.96,
3.106,0.36,-5.20,1.27,2.92,1.55,2.96,
3.108,0.36,-5.20,1.27,2.88,1.55,2.94,
3.112,0.36,-5.20,1.27,2.83,1.54,2.91,
3.112,0.48,-5.34,1.26,2.83,1.54,2.91,
3.123,0.48,-5.34,1.26,2.78,1.54,2.89,
3.124,0.48,-5.34,1.26,2.74,1.54,2.87,
3.124,0.60,-5.48,1.26,2.74,1.54,2.87,
3.125,0.60,-5.48,1.26,2.69,1.53,2.84,
3.125,0.70,-5.61,1.32,2.69,1.53,2.84,
3.125,0.70,-5.61,1.32,2.64,1.53,2.82,
3.126,0.70,-5.61,1.32,2.60,1.53,2.79,
3.126,0.79,-5.73,1.34,2.60,1.53,2.79,
3.127,0.79,-5.73,1.34,2.55,1.53,2.76,
3.128,0.79,-5.73,1.34,2.50,1.53,2.73,
3.133,0.88,-5.83,1.36,2.50,1.53,2.73,
3.133,0.88,-5.83,1.36,2.46,1.53,2.70,
3.134,0.88,-5.83,1.36,2.41,1.53,2.67,
3.135,0.98,-5.93,1.41,2.41,1.53,2.67,
3.136,0.98,-5.93,1.41,2.36,1.52,2.64,
3.138,0.98,-5.93,1.41,2.32,1.53,2.60,
3.14,0.98,-5.93,1.41,2.27,1.53,2.57,
3.14,1.05,-6.01,1.45,2.27,1.53,2.57,
3.143,1.05,-6.01,1.45,2.22,1.53,2.54,
3.146,1.05,-6.01,1.45,2.18,1.53,2.50,
3.146,1.11,-6.09,1.49,2.18,1.53,2.50,
3.149,1.11,-6.09,1.49,2.13,1.53,2.47,
3.151,1.11,-6.09,1.49,2.08,1.53,2.43,
3.152,1.15,-6.17,1.54,2.08,1.53,2.43,
3.153,1.15,-6.17,1.54,2.03,1.53,2.39,
3.156,1.15,-6.17,1.54,1.99,1.53,2.35,
3.156,1.18,-6.21,1.59,1.99,1.53,2.35,
3.158,1.18,-6.21,1.59,1.94,1.53,2.32,
3.161,1.22,-6.24,1.65,1.94,1.53,2.32,
3.162,1.22,-6.24,1.65,1.89,1.53,2.28,
3.163,1.22,-6.24,1.65,1.83,1.53,2.24,
3.167,1.22,-6.24,1.65,1.78,1.52,2.20,
3.168,1.27,-6.25,1.68,1.78,1.52,2.20,
3.168,1.27,-6.25,1.68,1.73,1.51,2.16,
3.172,1.27,-6.25,1.68,1.67,1.50,2.12,
3.173,1.27,-6.25,1.68,1.61,1.49,2.08,
3.174,1.31,-6.24,1.72,1.61,1.49,2.08,
3.175,1.31,-6.24,1.72,1.55,1.48,2.04,
3.176,1.35,-6.19,1.77,1.55,1.48,2.04,
3.178,1.35,-6.19,1.77,1.49,1.47,2.00,
3.185,1.41,-6.10,1.79,1.49,1.47,2.00,
3.185,1.41,-6.10,1.79,1.43,1.45,1.97,
3.186,1.41,-6.10,1.79,1.37,1.44,1.93,
3.186,1.41,-6.10,1.79,1.30,1.43,1.90,
3.186,1.44,-5.97,1.86,1.30,1.43,1.90,
3.187,1.44,-5.97,1.86,1.23,1.41,1.88,
3.19,1.44,-5.97,1.86,1.17,1.40,1.85,
3.191,1.46,-5.83,1.98,1.17,1.40,1.85,
3.192,1.46,-5.83,1.98,1.10,1.38,1.83,
3.195,1.46,-5.83,1.98,1.04,1.36,1.81,
3.195,1.46,-5.68,2.12,1.04,1.36,1.81,
3.198,1.46,-5.68,2.12,0.97,1.35,1.79,
3.201,1.46,-5.68,2.12,0.91,1.33,1.78,
3.201,1.47,-5.53,2.26,0.91,1.33,1.78,
3.204,1.47,-5.53,2.26,0.84,1.30,1.77,
3.224,1.47,-5.53,2.26,0.78,1.28,1.76,
3.224,1.52,-5.42,2.43,0.78,1.28,1.76,
3.224,1.52,-5.42,2.43,0.72,1.25,1.75,
3.224,1.52,-5.42,2.43,0.65,1.22,1.74,
3.225,1.62,-5.33,2.56,0.65,1.22,1.74,
3.225,1.62,-5.33,2.56,0.59,1.19,1.73,
3.225,1.62,-5.33,2.56,0.53,1.16,1.72,
3.225,1.68,-5.24,2.68,0.53,1.16,1.72,
3.226,1.68,-5.24,2.68,0.46,1.13,1.72,
3.226,1.68,-5.24,2.68,0.40,1.10,1.72,
3.226,1.72,-5.19,2.82,0.40,1.10,1.72,
3.226,1.72,-5.19,2.82,0.34,1.07,1.71,
3.227,1.72,-5.19,2.82,0.28,1.03,1.71,
3.227,1.75,-5.14,2.95,0.28,1.03,1.71,
3.227,1.75,-5.14,2.95,0.21,1.00,1.71,
3.231,1.75,-5.14,2.95,0.15,0.96,1.71,
3.233,1.82,-5.08,3.09,0.15,0.96,1.71,
3.233,1.82,-5.08,3.09,0.09,0.93,1.72,
3.235,1.88,-5.04,3.21,0.09,0.93,1.72,
3.236,1.88,-5.04,3.21,0.03,0.88,1.72,
3.237,1.88,-5.04,3.21,-0.03,0.85,1.73,
3.24,1.88,-5.04,3.21,-0.09,0.80,1.73,
3.24,1.95,-5.04,3.31,-0.09,0.80,1.73,
3.242,1.95,-5.04,3.31,-0.15,0.76,1.74,
3.245,1.95,-5.04,3.31,-0.20,0.71,1.75,
3.245,1.97,-5.12,3.42,-0.20,0.71,1.75,
3.248,1.97,-5.12,3.42,-0.26,0.67,1.75,
3.251,1.97,-5.12,3.42,-0.31,0.62,1.76,
3.252,1.99,-5.22,3.53,-0.31,0.62,1.76,
3.253,1.99,-5.22,3.53,-0.37,0.57,1.77,
3.254,1.99,-5.22,3.53,-0.42,0.52,1.78,
3.255,1.98,-5.39,3.65,-0.42,0.52,1.78,
3.257,1.98,-5.39,3.65,-0.47,0.47,1.79,
3.26,1.98,-5.39,3.65,-0.52,0.42,1.80,
3.26,1.99,-5.56,3.75,-0.52,0.42,1.80,
3.262,1.99,-5.56,3.75,-0.56,0.37,1.80,
3.266,2.07,-5.73,3.84,-0.56,0.37,1.80,
3.266,2.07,-5.73,3.84,-0.61,0.32,1.81,
3.267,2.07,-5.73,3.84,-0.65,0.27,1.81,
3.269,2.07,-5.73,3.84,-0.69,0.22,1.81,
3.271,2.10,-5.94,3.90,-0.69,0.22,1.81,
3.272,2.10,-5.94,3.90,-0.72,0.17,1.81,
3.274,2.10,-5.94,3.90,-0.76,0.12,1.81,
3.274,2.09,-6.18,3.93,-0.76,0.12,1.81,
3.277,2.09,-6.18,3.93,-0.79,0.08,1.81,
3.279,2.09,-6.18,3.93,-0.83,0.04,1.81,
3.279,2.09,-6.50,3.95,-0.83,0.04,1.81,
3.287,2.09,-6.50,3.95,-0.86,-0.01,1.80,
3.288,2.09,-6.50,3.95,-0.89,-0.05,1.80,
3.288,2.14,-6.78,3.93,-0.89,-0.05,1.80,
3.288,2.14,-6.78,3.93,-0.92,-0.09,1.79,
3.291,2.23,-7.03,3.93,-0.92,-0.09,1.79,
3.291,2.23,-7.03,3.93,-0.95,-0.13,1.77,
3.292,2.23,-7.03,3.93,-0.98,-0.17,1.75,
3.295,2.36,-7.20,3.95,-0.98,-0.17,1.75,
3.295,2.36,-7.20,3.95,-1.01,-0.21,1.73,
3.297,2.36,-7.20,3.95,-1.04,-0.25,1.71,
3.299,2.36,-7.20,3.95,-1.06,-0.29,1.69,
3.3,2.54,-7.36,3.95,-1.06,-0.29,1.69,
3.302,2.54,-7.36,3.95,-1.08,-0.33,1.66,
3.305,2.54,-7.36,3.95,-1.10,-0.36,1.63,
3.305,2.76,-7.44,3.92,-1.10,-0.36,1.63,
3.307,2.76,-7.44,3.92,-1.12,-0.39,1.60,
3.309,2.76,-7.44,3.92,-1.14,-0.42,1.56,
3.309,3.00,-7.52,3.87,-1.14,-0.42,1.56,
3.312,3.00,-7.52,3.87,-1.15,-0.45,1.53,
3.314,3.00,-7.52,3.87,-1.17,-0.47,1.49,
3.314,3.14,-7.64,3.87,-1.17,-0.47,1.49,
3.319,3.14,-7.64,3.87,-1.18,-0.50,1.46,
3.319,3.14,-7.64,3.87,-1.20,-0.52,1.42,
3.319,3.28,-7.77,3.82,-1.20,-0.52,1.42,
3.321,3.28,-7.77,3.82,-1.21,-0.54,1.39,
3.324,3.28,-7.77,3.82,-1.22,-0.55,1.35,
3.324,3.30,-7.94,3.78,-1.22,-0.55,1.35,
3.326,3.30,-7.94,3.78,-1.23,-0.57,1.32,
3.329,3.30,-7.94,3.78,-1.24,-0.59,1.29,
3.329,3.22,-8.23,3.76,-1.24,-0.59,1.29,
3.332,3.22,-8.23,3.76,-1.25,-0.61,1.26,
3.334,3.22,-8.23,3.76,-1.25,-0.63,1.24,
3.334,3.07,-8.54,3.65,-1.25,-0.63,1.24,
3.336,3.07,-8.54,3.65,-1.26,-0.65,1.22,
3.339,3.07,-8.54,3.65,-1.27,-0.67,1.20,
3.339,2.88,-8.97,3.54,-1.27,-0.67,1.20,
3.341,2.88,-8.97,3.54,-1.28,-0.68,1.19,
3.344,2.88,-8.97,3.54,-1.28,-0.70,1.17,
3.344,2.72,-9.52,3.45,-1.28,-0.70,1.17,
3.346,2.72,-9.52,3.45,-1.29,-0.72,1.15,
3.349,2.61,-10.13,3.34,-1.29,-0.72,1.15,
3.351,2.61,-10.13,3.34,-1.29,-0.74,1.13,
3.351,2.61,-10.13,3.34,-1.29,-0.77,1.12,
3.354,2.61,-10.13,3.34,-1.29,-0.79,1.09,
3.354,2.51,-10.77,3.22,-1.29,-0.79,1.09,
3.356,2.51,-10.77,3.22,-1.29,-0.82,1.06,
3.358,2.51,-10.77,3.22,-1.29,-0.84,1.03,
3.359,2.53,-11.36,3.05,-1.29,-0.84,1.03,
3.361,2.53,-11.36,3.05,-1.29,-0.86,0.99,
3.374,2.53,-11.36,3.05,-1.29,-0.89,0.94,
3.374,2.78,-11.89,2.87,-1.29,-0.89,0.94,
3.378,2.78,-11.89,2.87,-1.28,-0.91,0.89,
3.379,2.78,-11.89,2.87,-1.28,-0.94,0.82,
3.397,3.24,-12.30,2.66,-1.28,-0.94,0.82,
3.397,3.24,-12.30,2.66,-1.28,-0.97,0.74,
3.397,3.95,-12.51,2.42,-1.28,-0.97,0.74,
3.398,3.95,-12.51,2.42,-1.27,-1.00,0.66,
3.398,3.95,-12.51,2.42,-1.27,-1.02,0.56,
3.398,4.79,-12.56,2.11,-1.27,-1.02,0.56,
3.398,4.79,-12.56,2.11,-1.27,-1.04,0.45,
3.399,4.79,-12.56,2.11,-1.27,-1.05,0.34,
3.399,5.61,-12.50,1.81,-1.27,-1.05,0.34,
3.399,5.61,-12.50,1.81,-1.26,-1.04,0.21,
3.399,5.61,-12.50,1.81,-1.26,-1.04,0.08,
3.4,5.61,-12.50,1.81,-1.25,-1.03,-0.06,
3.4,6.33,-12.41,1.59,-1.25,-1.03,-0.06,
3.4,6.33,-12.41,1.59,-1.24,-1.01,-0.22,
3.401,6.33,-12.41,1.59,-1.23,-0.99,-0.37,
3.401,6.97,-12.21,1.46,-1.23,-0.99,-0.37,
3.401,6.97,-12.21,1.46,-1.21,-0.96,-0.54,
3.401,7.41,-11.89,1.45,-1.21,-0.96,-0.54,
3.401,7.41,-11.89,1.45,-1.18,-0.93,-0.71,
3.402,7.41,-11.89,1.45,-1.15,-0.90,-0.88,
3.406,7.41,-11.89,1.45,-1.12,-0.87,-1.05,
3.406,7.57,-11.45,1.48,-1.12,-0.87,-1.05,
3.407,7.57,-11.45,1.48,-1.08,-0.84,-1.22,
3.409,7.57,-11.45,1.48,-1.04,-0.81,-1.38,
3.41,7.38,-10.96,1.52,-1.04,-0.81,-1.38,
3.412,7.38,-10.96,1.52,-0.99,-0.78,-1.54,
3.414,7.38,-10.96,1.52,-0.93,-0.76,-1.68,
3.415,6.94,-10.45,1.61,-0.93,-0.76,-1.68,
3.42,6.94,-10.45,1.61,-0.88,-0.75,-1.82,
3.42,6.94,-10.45,1.61,-0.82,-0.74,-1.94,
3.421,6.41,-9.96,1.61,-0.82,-0.74,-1.94,
3.421,6.41,-9.96,1.61,-0.76,-0.74,-2.05,
3.423,6.41,-9.96,1.61,-0.70,-0.73,-2.16,
3.423,5.75,-9.52,1.54,-0.70,-0.73,-2.16,
3.425,5.75,-9.52,1.54,-0.64,-0.73,-2.25,
3.428,5.75,-9.52,1.54,-0.58,-0.74,-2.33,
3.428,4.98,-9.11,1.36,-0.58,-0.74,-2.33,
3.432,4.98,-9.11,1.36,-0.53,-0.74,-2.39,
3.433,4.19,-8.74,1.09,-0.53,-0.74,-2.39,
3.433,4.19,-8.74,1.09,-0.47,-0.75,-2.45,
3.435,4.19,-8.74,1.09,-0.42,-0.75,-2.50,
3.438,4.19,-8.74,1.09,-0.37,-0.74,-2.53,
3.438,3.41,-8.38,0.71,-0.37,-0.74,-2.53,
3.44,3.41,-8.38,0.71,-0.32,-0.73,-2.56,
3.443,3.41,-8.38,0.71,-0.27,-0.72,-2.58,
3.443,2.68,-8.03,0.27,-0.27,-0.72,-2.58,
3.446,2.68,-8.03,0.27,-0.22,-0.70,-2.60,
3.448,2.03,-7.69,-0.26,-0.22,-0.70,-2.60,
3.449,2.03,-7.69,-0.26,-0.18,-0.67,-2.60,
3.45,2.03,-7.69,-0.26,-0.13,-0.64,-2.61,
3.453,1.46,-7.44,-0.78,-0.13,-0.64,-2.61,
3.453,1.46,-7.44,-0.78,-0.09,-0.60,-2.60,
3.455,1.46,-7.44,-0.78,-0.05,-0.56,-2.60,
3.458,0.96,-7.25,-1.31,-0.05,-0.56,-2.60,
3.458,0.96,-7.25,-1.31,-0.01,-0.51,-2.59,
3.46,0.96,-7.25,-1.31,0.03,-0.45,-2.58,
3.463,0.96,-7.25,-1.31,0.07,-0.38,-2.57,
3.464,0.54,-7.02,-1.84,0.07,-0.38,-2.57,
3.478,0.54,-7.02,-1.84,0.10,-0.31,-2.56,
3.481,0.28,-6.87,-2.33,0.10,-0.31,-2.56,
3.481,0.28,-6.87,-2.33,0.14,-0.23,-2.56,
3.481,0.28,-6.87,-2.33,0.18,-0.15,-2.55,
3.481,0.28,-6.87,-2.33,0.22,-0.06,-2.54,
3.481,0.13,-6.71,-2.80,0.22,-0.06,-2.54,
3.481,0.13,-6.71,-2.80,0.26,0.04,-2.54,
3.482,-0.01,-6.57,-3.23,0.26,0.04,-2.54,
3.482,-0.01,-6.57,-3.23,0.30,0.14,-2.55,
3.482,-0.01,-6.57,-3.23,0.33,0.25,-2.56,
3.487,-0.12,-6.46,-3.64,0.33,0.25,-2.56,
3.488,-0.12,-6.46,-3.64,0.37,0.36,-2.57,
3.488,-0.12,-6.46,-3.64,0.40,0.47,-2.58,
3.488,-0.12,-6.46,-3.64,0.42,0.57,-2.60,
3.489,-0.26,-6.31,-3.96,0.42,0.57,-2.60,
3.492,-0.26,-6.31,-3.96,0.44,0.68,-2.61,
3.493,-0.26,-6.31,-3.96,0.45,0.79,-2.63,
3.493,-0.42,-6.09,-4.22,0.45,0.79,-2.63,
3.496,-0.42,-6.09,-4.22,0.45,0.90,-2.64,
3.499,-0.63,-5.80,-4.36,0.45,0.90,-2.64,
3.5,-0.63,-5.80,-4.36,0.44,1.00,-2.65,
3.501,-0.63,-5.80,-4.36,0.43,1.09,-2.66,
3.504,-0.63,-5.80,-4.36,0.41,1.18,-2.67,
3.505,-0.80,-5.49,-4.40,0.41,1.18,-2.67,
3.505,-0.80,-5.49,-4.40,0.38,1.25,-2.68,
3.507,-0.80,-5.49,-4.40,0.35,1.31,-2.68,
3.508,-0.93,-5.12,-4.27,0.35,1.31,-2.68,
3.51,-0.93,-5.12,-4.27,0.31,1.36,-2.68,
3.513,-0.93,-5.12,-4.27,0.27,1.40,-2.68,
3.513,-1.08,-4.78,-4.04,0.27,1.40,-2.68,
3.515,-1.08,-4.78,-4.04,0.22,1.43,-2.68,
3.518,-1.19,-4.41,-3.72,0.22,1.43,-2.68,
3.518,-1.19,-4.41,-3.72,0.16,1.45,-2.68,
3.52,-1.19,-4.41,-3.72,0.10,1.45,-2.68,
3.522,-1.23,-4.08,-3.31,0.10,1.45,-2.68,
3.522,-1.23,-4.08,-3.31,0.04,1.44,-2.68,
3.524,-1.23,-4.08,-3.31,-0.02,1.42,-2.68,
3.527,-1.23,-4.08,-3.31,-0.09,1.38,-2.67,
3.527,-1.25,-3.80,-2.88,-0.09,1.38,-2.67,
3.529,-1.25,-3.80,-2.88,-0.16,1.33,-2.67,
3.532,-1.25,-3.80,-2.88,-0.24,1.27,-2.67,
3.533,-1.23,-3.53,-2.47,-0.24,1.27,-2.67,
3.562,-1.23,-3.53,-2.47,-0.31,1.21,-2.68,
3.562,-1.23,-3.53,-2.47,-0.38,1.13,-2.68,
3.562,-1.18,-3.27,-2.06,-0.38,1.13,-2.68,
3.563,-1.18,-3.27,-2.06,-0.45,1.05,-2.69,
3.563,-1.14,-3.05,-1.69,-0.45,1.05,-2.69,
3.563,-1.14,-3.05,-1.69,-0.52,0.96,-2.70,
3.563,-1.14,-3.05,-1.69,-0.59,0.87,-2.71,
3.564,-1.10,-2.84,-1.35,-0.59,0.87,-2.71,
3.564,-1.10,-2.84,-1.35,-0.66,0.77,-2.72,
3.564,-1.10,-2.84,-1.35,-0.72,0.67,-2.73,
3.564,-1.10,-2.84,-1.35,-0.79,0.56,-2.75,
3.565,-1.11,-2.65,-1.06,-0.79,0.56,-2.75,
3.565,-1.11,-2.65,-1.06,-0.84,0.45,-2.76,
3.565,-1.11,-2.65,-1.06,-0.90,0.34,-2.78,
3.565,-1.10,-2.48,-0.88,-0.90,0.34,-2.78,
3.566,-1.10,-2.48,-0.88,-0.95,0.22,-2.80,
3.566,-1.10,-2.48,-0.88,-1.01,0.11,-2.82,
3.566,-1.13,-2.34,-0.75,-1.01,0.11,-2.82,
3.566,-1.13,-2.34,-0.75,-1.05,-0.00,-2.85,
3.568,-1.13,-2.34,-0.75,-1.10,-0.11,-2.87,
3.569,-1.17,-2.18,-0.69,-1.10,-0.11,-2.87,
3.57,-1.17,-2.18,-0.69,-1.14,-0.21,-2.90,
3.572,-1.17,-2.18,-0.69,-1.18,-0.30,-2.92,
3.572,-1.19,-2.01,-0.71,-1.18,-0.30,-2.92,
3.575,-1.19,-2.01,-0.71,-1.21,-0.38,-2.95,
3.578,-1.19,-2.01,-0.71,-1.23,-0.45,-2.97,
3.578,-1.19,-1.78,-0.71,-1.23,-0.45,-2.97,
3.58,-1.19,-1.78,-0.71,-1.25,-0.51,-3.00,
3.583,-1.19,-1.78,-0.71,-1.27,-0.57,-3.02,
3.584,-1.25,-1.55,-0.72,-1.27,-0.57,-3.02,
3.585,-1.25,-1.55,-0.72,-1.28,-0.62,-3.04,
3.587,-1.25,-1.55,-0.72,-1.28,-0.66,-3.07,
3.587,-1.34,-1.34,-0.79,-1.28,-0.66,-3.07,
3.589,-1.34,-1.34,-0.79,-1.29,-0.69,-3.09,
3.592,-1.34,-1.34,-0.79,-1.29,-0.72,-3.11,
3.592,-1.48,-1.19,-0.87,-1.29,-0.72,-3.11,
3.594,-1.48,-1.19,-0.87,-1.29,-0.74,-3.13,
3.597,-1.48,-1.19,-0.87,-1.28,-0.74,-3.14,
3.597,-1.64,-1.02,-0.92,-1.28,-0.74,-3.14,
3.605,-1.64,-1.02,-0.92,-1.27,-0.75,-3.16,
3.606,-1.64,-1.02,-0.92,-1.26,-0.74,-3.17,
3.607,-1.83,-0.83,-0.90,-1.26,-0.74,-3.17,
3.607,-1.83,-0.83,-0.90,-1.24,-0.73,-3.19,
3.607,-2.05,-0.59,-0.84,-1.24,-0.73,-3.19,
3.608,-2.05,-0.59,-0.84,-1.22,-0.72,-3.20,
3.624,-2.05,-0.59,-0.84,-1.19,-0.71,-3.20,
3.624,-2.30,-0.35,-0.76,-1.19,-0.71,-3.20,
3.625,-2.59,-0.08,-0.71,-1.19,-0.71,-3.20,
3.625,-2.59,-0.08,-0.71,-1.15,-0.69,-3.21,
3.625,-2.59,-0.08,-0.71,-1.11,-0.68,-3.21,
3.625,-2.59,-0.08,-0.71,-1.07,-0.66,-3.22,
3.626,-2.59,-0.08,-0.71,-1.02,-0.64,-3.22,
3.626,-2.86,0.21,-0.71,-1.02,-0.64,-3.22,
3.626,-2.86,0.21,-0.71,-0.97,-0.62,-3.22,
3.627,-2.86,0.21,-0.71,-0.92,-0.60,-3.21,
3.627,-2.86,0.21,-0.71,-0.88,-0.58,-3.20,
3.627,-3.14,0.52,-0.78,-0.88,-0.58,-3.20,
3.629,-3.14,0.52,-0.78,-0.84,-0.55,-3.19,
3.632,-3.45,0.79,-0.90,-0.84,-0.55,-3.19,
3.632,-3.45,0.79,-0.90,-0.80,-0.53,-3.17,
3.636,-3.45,0.79,-0.90,-0.76,-0.50,-3.15,
3.636,-3.45,0.79,-0.90,-0.73,-0.48,-3.12,
3.636,-3.68,1.05,-1.05,-0.73,-0.48,-3.12,
3.639,-3.68,1.05,-1.05,-0.71,-0.45,-3.09,
3.641,-3.68,1.05,-1.05,-0.69,-0.42,-3.05,
3.641,-3.83,1.25,-1.15,-0.69,-0.42,-3.05,
3.643,-3.83,1.25,-1.15,-0.67,-0.39,-3.02,
3.646,-3.83,1.25,-1.15,-0.66,-0.35,-2.98,
3.646,-3.95,1.43,-1.21,-0.66,-0.35,-2.98,
3.649,-3.95,1.43,-1.21,-0.65,-0.32,-2.95,
3.651,-3.95,1.43,-1.21,-0.65,-0.29,-2.91,
3.651,-4.05,1.55,-1.19,-0.65,-0.29,-2.91,
3.653,-4.05,1.55,-1.19,-0.65,-0.26,-2.88,
3.656,-4.05,1.55,-1.19,-0.65,-0.23,-2.85,
3.656,-4.15,1.63,-1.11,-0.65,-0.23,-2.85,
3.658,-4.15,1.63,-1.11,-0.65,-0.21,-2.82,
3.661,-4.21,1.76,-0.99,-0.65,-0.21,-2.82,
3.661,-4.21,1.76,-0.99,-0.65,-0.19,-2.78,
3.663,-4.21,1.76,-0.99,-0.66,-0.17,-2.76,
3.67,-4.25,1.87,-0.81,-0.66,-0.17,-2.76,
3.671,-4.25,1.87,-0.81,-0.67,-0.16,-2.73,
3.671,-4.25,1.87,-0.81,-0.67,-0.14,-2.71,
3.672,-4.30,1.94,-0.61,-0.67,-0.14,-2.71,
3.672,-4.30,1.94,-0.61,-0.67,-0.13,-2.68,
3.673,-4.30,1.94,-0.61,-0.68,-0.13,-2.66,
3.676,-4.30,1.94,-0.61,-0.68,-0.12,-2.64,
3.676,-4.36,2.03,-0.41,-0.68,-0.12,-2.64,
3.678,-4.36,2.03,-0.41,-0.68,-0.11,-2.62,
3.691,-4.36,2.03,-0.41,-0.68,-0.11,-2.61,
3.692,-4.48,2.11,-0.20,-0.68,-0.11,-2.61,
3.692,-4.48,2.11,-0.20,-0.68,-0.11,-2.59,
3.692,-4.48,2.11,-0.20,-0.68,-0.11,-2.57,
3.692,-4.59,2.28,-0.03,-0.68,-0.11,-2.57,
3.693,-4.59,2.28,-0.03,-0.68,-0.10,-2.56,
3.693,-4.59,2.28,-0.03,-0.68,-0.11,-2.54,
3.693,-4.76,2.45,0.16,-0.68,-0.11,-2.54,
3.694,-4.76,2.45,0.16,-0.67,-0.11,-2.52,
3.696,-4.76,2.45,0.16,-0.67,-0.12,-2.51,
3.696,-4.89,2.64,0.32,-0.67,-0.12,-2.51,
3.698,-4.89,2.64,0.32,-0.66,-0.13,-2.49,
3.718,-4.89,2.64,0.32,-0.65,-0.13,-2.47,
3.718,-5.00,2.84,0.47,-0.65,-0.13,-2.47,
3.718,-5.00,2.84,0.47,-0.64,-0.14,-2.45,
3.718,-5.07,3.10,0.56,-0.64,-0.14,-2.45,
3.719,-5.07,3.10,0.56,-0.63,-0.15,-2.42,
3.719,-5.07,3.10,0.56,-0.62,-0.16,-2.40,
3.719,-5.17,3.39,0.67,-0.62,-0.16,-2.40,
3.719,-5.17,3.39,0.67,-0.61,-0.17,-2.38,
3.72,-5.17,3.39,0.67,-0.60,-0.18,-2.36,
3.72,-5.29,3.69,0.76,-0.60,-0.18,-2.36,
3.72,-5.29,3.69,0.76,-0.58,-0.18,-2.33,
3.72,-5.29,3.69,0.76,-0.57,-0.19,-2.30,
3.721,-5.35,4.00,0.83,-0.57,-0.19,-2.30,
3.721,-5.35,4.00,0.83,-0.56,-0.20,-2.27,
3.723,-5.35,4.00,0.83,-0.55,-0.20,-2.23,
3.726,-5.41,4.32,0.87,-0.55,-0.20,-2.23,
3.726,-5.41,4.32,0.87,-0.53,-0.21,-2.20,
3.728,-5.41,4.32,0.87,-0.52,-0.22,-2.16,
3.731,-5.50,4.64,0.90,-0.52,-0.22,-2.16,
3.731,-5.50,4.64,0.90,-0.51,-0.23,-2.12,
3.733,-5.50,4.64,0.90,-0.49,-0.24,-2.08,
3.735,-5.50,4.64,0.90,-0.47,-0.25,-2.04,
3.735,-5.57,4.96,0.93,-0.47,-0.25,-2.04,
3.738,-5.57,4.96,0.93,-0.46,-0.26,-1.99,
3.742,-5.57,4.96,0.93,-0.45,-0.27,-1.95,
3.743,-5.58,5.26,0.88,-0.45,-0.27,-1.95,
3.744,-5.58,5.26,0.88,-0.43,-0.27,-1.90,
3.746,-5.58,5.26,0.88,-0.43,-0.28,-1.85,
3.747,-5.57,5.49,0.81,-0.43,-0.28,-1.85,
3.751,-5.57,5.49,0.81,-0.42,-0.29,-1.80,
3.751,-5.57,5.49,0.81,-0.41,-0.29,-1.75,
3.751,-5.55,5.69,0.75,-0.41,-0.29,-1.75,
3.752,-5.55,5.69,0.75,-0.40,-0.29,-1.70,
3.755,-5.50,5.84,0.67,-0.40,-0.29,-1.70,
3.756,-5.50,5.84,0.67,-0.39,-0.29,-1.65,
3.758,-5.50,5.84,0.67,-0.39,-0.28,-1.60,
3.761,-5.43,5.98,0.62,-0.39,-0.28,-1.60,
3.762,-5.43,5.98,0.62,-0.39,-0.27,-1.55,
3.762,-5.43,5.98,0.62,-0.38,-0.26,-1.50,
3.768,-5.39,6.07,0.59,-0.38,-0.26,-1.50,
3.775,-5.39,6.07,0.59,-0.38,-0.25,-1.45,
3.775,-5.39,6.07,0.59,-0.38,-0.24,-1.40,
3.775,-5.39,6.07,0.59,-0.37,-0.23,-1.34,
3.775,-5.37,6.08,0.58,-0.37,-0.23,-1.34,
3.776,-5.35,6.08,0.64,-0.37,-0.23,-1.34,
3.777,-5.35,6.08,0.64,-0.37,-0.21,-1.30,
3.777,-5.35,6.08,0.64,-0.36,-0.20,-1.25,
3.778,-5.35,6.08,0.64,-0.35,-0.19,-1.20,
3.782,-5.34,6.03,0.69,-0.35,-0.19,-1.20,
3.783,-5.34,6.03,0.69,-0.34,-0.17,-1.16,
3.783,-5.34,6.03,0.69,-0.33,-0.16,-1.12,
3.785,-5.34,6.03,0.69,-0.32,-0.15,-1.07,
3.785,-5.38,5.96,0.77,-0.32,-0.15,-1.07,
3.787,-5.38,5.96,0.77,-0.30,-0.13,-1.03,
3.79,-5.38,5.96,0.77,-0.29,-0.12,-1.00,
3.79,-5.43,5.83,0.86,-0.29,-0.12,-1.00,
3.792,-5.43,5.83,0.86,-0.27,-0.10,-0.96,
3.795,-5.43,5.83,0.86,-0.25,-0.09,-0.92,
3.795,-5.49,5.72,0.94,-0.25,-0.09,-0.92,
3.797,-5.49,5.72,0.94,-0.24,-0.07,-0.89,
3.8,-5.49,5.72,0.94,-0.21,-0.05,-0.85,
3.803,-5.57,5.60,1.02,-0.21,-0.05,-0.85,
3.803,-5.57,5.60,1.02,-0.19,-0.04,-0.82,
3.805,-5.57,5.60,1.02,-0.17,-0.03,-0.79,
3.805,-5.65,5.53,1.11,-0.17,-0.03,-0.79,
3.807,-5.65,5.53,1.11,-0.15,-0.01,-0.76,
3.811,-5.65,5.53,1.11,-0.13,-0.00,-0.73,
3.811,-5.75,5.47,1.16,-0.13,-0.00,-0.73,
3.813,-5.75,5.47,1.16,-0.10,0.01,-0.70,
3.815,-5.84,5.41,1.18,-0.10,0.01,-0.70,
3.815,-5.84,5.41,1.18,-0.08,0.02,-0.67,
3.818,-5.84,5.41,1.18,-0.06,0.03,-0.64,
3.82,-5.91,5.38,1.18,-0.06,0.03,-0.64,
3.82,-5.91,5.38,1.18,-0.05,0.04,-0.61,
3.822,-5.91,5.38,1.18,-0.04,0.05,-0.58,
3.825,-5.95,5.34,1.19,-0.04,0.05,-0.58,
3.825,-5.95,5.34,1.19,-0.03,0.06,-0.55,
3.827,-5.95,5.34,1.19,-0.03,0.06,-0.52,
3.83,-6.03,5.32,1.22,-0.03,0.06,-0.52,
3.83,-6.03,5.32,1.22,-0.03,0.07,-0.49,
3.833,-6.03,5.32,1.22,-0.03,0.07,-0.46,
3.835,-6.13,5.35,1.28,-0.03,0.07,-0.46,
3.836,-6.13,5.35,1.28,-0.03,0.07,-0.43,
3.837,-6.13,5.35,1.28,-0.04,0.07,-0.40,
3.839,-6.13,5.35,1.28,-0.05,0.07,-0.36,
3.84,-6.20,5.35,1.34,-0.05,0.07,-0.36,
3.842,-6.20,5.35,1.34,-0.07,0.07,-0.33,
3.844,-6.20,5.35,1.34,-0.08,0.07,-0.29,
3.844,-6.34,5.32,1.45,-0.08,0.07,-0.29,
3.847,-6.34,5.32,1.45,-0.10,0.06,-0.25,
3.85,-6.58,5.16,1.57,-0.10,0.06,-0.25,
3.85,-6.58,5.16,1.57,-0.12,0.05,-0.20,
3.852,-6.58,5.16,1.57,-0.15,0.05,-0.16,
3.854,-6.77,4.97,1.72,-0.15,0.05,-0.16,
3.855,-6.77,4.97,1.72,-0.17,0.04,-0.11,
3.857,-6.77,4.97,1.72,-0.19,0.02,-0.06,
3.859,-6.77,4.97,1.72,-0.21,0.01,-0.01,
3.859,-7.02,4.71,1.92,-0.21,0.01,-0.01,
3.862,-7.02,4.71,1.92,-0.23,-0.00,0.04,
3.864,-7.02,4.71,1.92,-0.25,-0.01,0.09,
3.886,-7.23,4.39,2.15,-0.25,-0.01,0.09,
3.886,-7.23,4.39,2.15,-0.27,-0.03,0.14,
3.886,-7.54,3.98,2.36,-0.27,-0.03,0.14,
3.887,-7.54,3.98,2.36,-0.29,-0.05,0.19,
3.887,-7.54,3.98,2.36,-0.30,-0.07,0.24,
3.887,-7.86,3.53,2.57,-0.30,-0.07,0.24,
3.887,-7.86,3.53,2.57,-0.31,-0.08,0.28,
3.888,-7.86,3.53,2.57,-0.31,-0.10,0.33,
3.888,-8.06,3.11,2.79,-0.31,-0.10,0.33,
3.888,-8.06,3.11,2.79,-0.32,-0.12,0.37,
3.888,-8.06,3.11,2.79,-0.31,-0.14,0.40,
3.889,-8.06,3.11,2.79,-0.30,-0.16,0.44,
3.889,-8.18,2.75,3.00,-0.30,-0.16,0.44,
3.889,-8.18,2.75,3.00,-0.29,-0.17,0.47,
3.889,-8.18,2.75,3.00,-0.27,-0.19,0.49,
3.89,-8.20,2.48,3.22,-0.27,-0.19,0.49,
3.896,-8.20,2.48,3.22,-0.24,-0.21,0.51,
3.897,-8.20,2.48,3.22,-0.21,-0.22,0.52,
3.898,-8.20,2.30,3.40,-0.21,-0.22,0.52,
3.898,-8.20,2.30,3.40,-0.17,-0.24,0.53,
3.914,-8.20,2.30,3.40,-0.13,-0.25,0.54,
3.915,-8.17,2.23,3.56,-0.13,-0.25,0.54,
3.915,-8.17,2.23,3.56,-0.08,-0.26,0.54,
3.915,-8.17,2.23,3.56,-0.03,-0.27,0.55,
3.915,-8.11,2.28,3.66,-0.03,-0.27,0.55,
3.915,-8.11,2.28,3.66,0.03,-0.27,0.55,
3.915,-8.11,2.28,3.66,0.09,-0.27,0.56,
3.916,-7.99,2.43,3.73,0.09,-0.27,0.56,
3.916,-7.99,2.43,3.73,0.15,-0.26,0.58,
3.916,-7.83,2.66,3.72,0.15,-0.26,0.58,
3.916,-7.83,2.66,3.72,0.21,-0.25,0.59,
3.918,-7.83,2.66,3.72,0.28,-0.23,0.61,
3.92,-7.71,2.95,3.69,0.28,-0.23,0.61,
3.92,-7.71,2.95,3.69,0.34,-0.20,0.64,
3.921,-7.71,2.95,3.69,0.41,-0.17,0.68,
3.923,-7.71,2.95,3.69,0.47,-0.14,0.72,
3.924,-7.56,3.25,3.65,0.47,-0.14,0.72,
3.926,-7.56,3.25,3.65,0.54,-0.11,0.78,
3.928,-7.56,3.25,3.65,0.60,-0.07,0.83,
3.929,-7.38,3.42,3.62,0.60,-0.07,0.83,
3.931,-7.38,3.42,3.62,0.66,-0.03,0.89,
3.934,-7.38,3.42,3.62,0.72,0.01,0.96,
3.934,-7.22,3.50,3.55,0.72,0.01,0.96,
3.936,-7.22,3.50,3.55,0.78,0.05,1.03,
3.939,-7.22,3.50,3.55,0.84,0.09,1.10,
3.939,-6.97,3.50,3.54,0.84,0.09,1.10,
3.941,-6.97,3.50,3.54,0.89,0.13,1.18,
3.945,-6.73,3.42,3.57,0.89,0.13,1.18,
3.945,-6.73,3.42,3.57,0.95,0.18,1.25,
3.946,-6.73,3.42,3.57,1.00,0.22,1.33,
3.949,-6.73,3.42,3.57,1.06,0.26,1.41,
3.95,-6.47,3.23,3.58,1.06,0.26,1.41,
3.952,-6.47,3.23,3.58,1.12,0.30,1.49,
3.954,-6.47,3.23,3.58,1.18,0.34,1.56,
3.954,-6.14,2.97,3.63,1.18,0.34,1.56,
3.957,-6.14,2.97,3.63,1.25,0.38,1.63,
3.959,-6.14,2.97,3.63,1.31,0.42,1.70,
3.959,-5.77,2.63,3.64,1.31,0.42,1.70,
3.961,-5.77,2.63,3.64,1.37,0.46,1.76,
3.963,-5.77,2.63,3.64,1.44,0.50,1.81,
3.963,-5.42,2.21,3.64,1.44,0.50,1.81,
3.966,-5.42,2.21,3.64,1.51,0.54,1.86,
3.969,-5.42,2.21,3.64,1.57,0.57,1.91,
3.969,-5.11,1.82,3.60,1.57,0.57,1.91,
3.971,-5.11,1.82,3.60,1.64,0.61,1.95,
3.973,-5.11,1.82,3.60,1.70,0.65,1.99,
3.973,-4.84,1.43,3.56,1.70,0.65,1.99,
3.976,-4.84,1.43,3.56,1.77,0.69,2.02,
3.978,-4.84,1.43,3.56,1.84,0.72,2.05,
3.978,-4.54,1.08,3.48,1.84,0.72,2.05,
3.98,-4.54,1.08,3.48,1.90,0.76,2.07,
3.985,-4.23,0.79,3.36,1.90,0.76,2.07,
3.985,-4.23,0.79,3.36,1.96,0.80,2.10,
3.987,-4.23,0.79,3.36,2.02,0.83,2.11,
3.991,-4.23,0.79,3.36,2.08,0.86,2.13,
3.991,-3.93,0.50,3.23,2.08,0.86,2.13,
3.991,-3.93,0.50,3.23,2.13,0.89,2.14,
3.995,-3.93,0.50,3.23,2.19,0.92,2.15,
3.996,-3.70,0.28,3.13,2.19,0.92,2.15,
3.996,-3.70,0.28,3.13,2.23,0.95,2.15,
4.0,-3.46,0.07,2.98,2.23,0.95,2.15,
4.001,-3.46,0.07,2.98,2.28,0.97,2.16,
4.001,-3.46,0.07,2.98,2.32,1.00,2.16,
4.003,-3.29,-0.08,2.81,2.32,1.00,2.16,
4.003,-3.29,-0.08,2.81,2.36,1.02,2.16,
4.005,-3.29,-0.08,2.81,2.39,1.05,2.16,
4.008,-3.29,-0.08,2.81,2.42,1.07,2.17,
4.008,-3.14,-0.19,2.66,2.42,1.07,2.17,
4.01,-3.14,-0.19,2.66,2.45,1.09,2.17,
4.013,-3.14,-0.19,2.66,2.47,1.12,2.18,
4.013,-3.00,-0.26,2.51,2.47,1.12,2.18,
4.016,-3.00,-0.26,2.51,2.49,1.13,2.18,
4.018,-2.92,-0.31,2.39,2.49,1.13,2.18,
4.019,-2.92,-0.31,2.39,2.51,1.15,2.19,
4.02,-2.92,-0.31,2.39,2.52,1.17,2.20,
4.023,-2.85,-0.36,2.29,2.52,1.17,2.20,
4.023,-2.85,-0.36,2.29,2.53,1.18,2.21,
4.027,-2.85,-0.36,2.29,2.54,1.19,2.22,
4.028,-2.78,-0.41,2.18,2.54,1.19,2.22,
4.028,-2.78,-0.41,2.18,2.54,1.20,2.23,
4.045,-2.78,-0.41,2.18,2.54,1.20,2.25,
4.045,-2.69,-0.45,2.08,2.54,1.20,2.25,
4.046,-2.69,-0.45,2.08,2.54,1.21,2.26,
4.046,-2.69,-0.45,2.08,2.54,1.21,2.28,
4.046,-2.59,-0.48,2.01,2.54,1.21,2.28,
4.046,-2.59,-0.48,2.01,2.53,1.21,2.29,
4.047,-2.48,-0.49,1.91,2.53,1.21,2.29,
4.047,-2.48,-0.49,1.91,2.52,1.21,2.31,
4.047,-2.48,-0.49,1.91,2.50,1.21,2.33,
4.053,-2.48,-0.49,1.91,2.49,1.20,2.35,
4.053,-2.48,-0.49,1.91,2.47,1.19,2.37,
4.053,-2.48,-0.49,1.91,2.45,1.18,2.39,
4.054,-2.37,-0.52,1.85,2.45,1.18,2.39,
4.055,-2.24,-0.55,1.79,2.45,1.18,2.39,
4.056,-2.24,-0.55,1.79,2.43,1.17,2.42,
4.056,-2.24,-0.55,1.79,2.41,1.16,2.44,
4.058,-2.24,-0.55,1.79,2.38,1.15,2.46,
4.058,-2.09,-0.57,1.73,2.38,1.15,2.46,
4.06,-2.09,-0.57,1.73,2.36,1.13,2.49,
4.063,-2.09,-0.57,1.73,2.33,1.11,2.51,
4.063,-1.95,-0.63,1.68,2.33,1.11,2.51,
4.072,-1.95,-0.63,1.68,2.30,1.10,2.53,
4.073,-1.95,-0.63,1.68,2.27,1.08,2.56,
4.074,-1.79,-0.67,1.61,2.27,1.08,2.56,
4.074,-1.79,-0.67,1.61,2.24,1.06,2.59,
4.074,-1.62,-0.77,1.61,2.24,1.06,2.59,
4.075,-1.62,-0.77,1.61,2.21,1.04,2.61,
4.075,-1.62,-0.77,1.61,2.18,1.02,2.64,
4.078,-1.44,-0.87,1.59,2.18,1.02,2.64,
4.078,-1.44,-0.87,1.59,2.14,1.00,2.66,
4.087,-1.44,-0.87,1.59,2.11,0.98,2.68,
4.088,-1.24,-1.00,1.58,2.11,0.98,2.68,
4.088,-1.24,-1.00,1.58,2.08,0.95,2.71,
4.088,-1.24,-1.00,1.58,2.05,0.93,2.73,
4.089,-1.08,-1.16,1.57,2.05,0.93,2.73,
4.089,-1.08,-1.16,1.57,2.02,0.90,2.75,
4.09,-1.08,-1.16,1.57,1.98,0.88,2.77,
4.092,-0.91,-1.32,1.59,1.98,0.88,2.77,
4.092,-0.91,-1.32,1.59,1.95,0.85,2.79,
4.095,-0.91,-1.32,1.59,1.92,0.83,2.81,
4.097,-0.72,-1.51,1.58,1.92,0.83,2.81,
4.097,-0.72,-1.51,1.58,1.89,0.80,2.83,
4.101,-0.72,-1.51,1.58,1.86,0.78,2.85,
4.103,-0.54,-1.72,1.59,1.86,0.78,2.85,
4.104,-0.54,-1.72,1.59,1.83,0.76,2.86,
4.104,-0.54,-1.72,1.59,1.80,0.73,2.88,
4.107,-0.54,-1.72,1.59,1.78,0.71,2.89,
4.107,-0.37,-1.97,1.57,1.78,0.71,2.89,
4.109,-0.37,-1.97,1.57,1.75,0.69,2.90,
4.112,-0.37,-1.97,1.57,1.73,0.66,2.91,
4.112,-0.19,-2.21,1.58,1.73,0.66,2.91,
4.116,-0.19,-2.21,1.58,1.71,0.64,2.92,
4.117,-0.03,-2.50,1.58,1.71,0.64,2.92,
4.117,-0.03,-2.50,1.58,1.69,0.62,2.93,
4.119,-0.03,-2.50,1.58,1.67,0.61,2.93,
4.123,0.17,-2.77,1.60,1.67,0.61,2.93,
4.123,0.17,-2.77,1.60,1.65,0.59,2.93,
4.125,0.17,-2.77,1.60,1.63,0.58,2.93,
4.128,0.37,-3.01,1.58,1.63,0.58,2.93,
4.128,0.37,-3.01,1.58,1.62,0.57,2.93,
4.13,0.37,-3.01,1.58,1.60,0.56,2.93,
4.132,0.37,-3.01,1.58,1.59,0.55,2.92,
4.133,0.58,-3.24,1.60,1.59,0.55,2.92,
4.135,0.58,-3.24,1.60,1.58,0.55,2.91,
4.137,0.58,-3.24,1.60,1.58,0.55,2.90,
4.137,0.79,-3.48,1.60,1.58,0.55,2.90,
4.139,0.79,-3.48,1.60,1.57,0.55,2.89,
4.142,0.79,-3.48,1.60,1.57,0.55,2.88,
4.144,1.00,-3.70,1.64,1.57,0.55,2.88,
4.144,1.00,-3.70,1.64,1.57,0.55,2.86,
4.148,1.00,-3.70,1.64,1.56,0.56,2.84,
4.148,1.20,-3.95,1.62,1.56,0.56,2.84,
4.149,1.20,-3.95,1.62,1.56,0.57,2.82,
4.152,1.39,-4.13,1.59,1.56,0.57,2.82,
4.152,1.39,-4.13,1.59,1.56,0.58,2.80,
4.154,1.39,-4.13,1.59,1.56,0.59,2.78,
4.157,1.39,-4.13,1.59,1.55,0.60,2.75,
4.157,1.62,-4.26,1.58,1.55,0.60,2.75,
4.159,1.62,-4.26,1.58,1.55,0.61,2.73,
4.162,1.62,-4.26,1.58,1.55,0.63,2.70,
4.162,1.75,-4.41,1.55,1.55,0.63,2.70,
4.164,1.75,-4.41,1.55,1.55,0.64,2.67,
4.167,1.86,-4.53,1.56,1.55,0.64,2.67,
4.167,1.86,-4.53,1.56,1.55,0.66,2.65,
4.169,1.86,-4.53,1.56,1.54,0.68,2.62,
4.172,1.86,-4.53,1.56,1.54,0.70,2.60,
4.172,1.96,-4.64,1.55,1.54,0.70,2.60,
4.174,1.96,-4.64,1.55,1.53,0.71,2.57,
4.177,2.06,-4.74,1.55,1.53,0.71,2.57,
4.177,2.06,-4.74,1.55,1.53,0.73,2.54,
4.179,2.06,-4.74,1.55,1.52,0.75,2.52,
4.182,2.06,-4.74,1.55,1.51,0.76,2.49,
4.182,2.14,-4.83,1.57,1.51,0.76,2.49,
4.186,2.14,-4.83,1.57,1.50,0.77,2.46,
4.187,2.20,-4.93,1.59,1.50,0.77,2.46,
4.188,2.20,-4.93,1.59,1.49,0.79,2.43,
4.192,2.20,-4.93,1.59,1.48,0.80,2.40,
4.192,2.20,-4.93,1.59,1.47,0.81,2.37,
4.192,2.27,-4.99,1.63,1.47,0.81,2.37,
4.194,2.27,-4.99,1.63,1.46,0.82,2.35,
4.216,2.27,-4.99,1.63,1.45,0.83,2.32,
4.217,2.32,-5.08,1.65,1.45,0.83,2.32,
4.217,2.38,-5.15,1.70,1.45,0.83,2.32,
4.217,2.38,-5.15,1.70,1.43,0.84,2.28,
4.218,2.38,-5.15,1.70,1.41,0.84,2.25,
4.218,2.38,-5.15,1.70,1.39,0.84,2.22,
4.218,2.43,-5.21,1.71,1.39,0.84,2.22,
4.218,2.43,-5.21,1.71,1.37,0.84,2.19,
4.219,2.43,-5.21,1.71,1.35,0.84,2.16,
4.219,2.43,-5.21,1.71,1.32,0.84,2.13,
4.219,2.44,-5.26,1.73,1.32,0.84,2.13,
4.22,2.44,-5.26,1.73,1.29,0.83,2.09,
4.22,2.44,-5.26,1.73,1.26,0.83,2.06,
4.22,2.44,-5.30,1.75,1.26,0.83,2.06,
4.22,2.44,-5.30,1.75,1.24,0.82,2.03,
4.224,2.44,-5.30,1.75,1.20,0.81,2.00,
4.225,2.45,-5.34,1.77,1.20,0.81,2.00,
4.225,2.45,-5.34,1.77,1.17,0.80,1.97,
4.226,2.45,-5.34,1.77,1.14,0.79,1.94,
4.227,2.44,-5.38,1.80,1.14,0.79,1.94,
4.228,2.44,-5.38,1.80,1.10,0.78,1.91,
4.232,2.44,-5.38,1.80,1.06,0.77,1.88,
4.232,2.45,-5.40,1.86,1.06,0.77,1.88,
4.234,2.45,-5.40,1.86,1.03,0.75,1.85,
4.237,2.45,-5.40,1.86,0.99,0.73,1.82,
4.237,2.47,-5.41,1.91,0.99,0.73,1.82,
4.239,2.47,-5.41,1.91,0.95,0.71,1.79,
4.241,2.47,-5.41,1.91,0.91,0.69,1.77,
4.241,2.49,-5.38,1.95,0.91,0.69,1.77,
4.243,2.49,-5.38,1.95,0.87,0.67,1.74,
4.246,2.49,-5.38,1.95,0.83,0.65,1.72,
4.246,2.51,-5.33,2.01,0.83,0.65,1.72,
4.249,2.51,-5.33,2.01,0.79,0.62,1.69,
4.251,2.51,-5.33,2.01,0.75,0.59,1.67,
4.251,2.51,-5.30,2.08,0.75,0.59,1.67,
4.253,2.51,-5.30,2.08,0.71,0.56,1.65,
4.256,2.51,-5.30,2.08,0.66,0.53,1.63,
4.256,2.51,-5.28,2.12,0.66,0.53,1.63,
4.259,2.51,-5.28,2.12,0.62,0.50,1.61,
4.261,2.51,-5.28,2.12,0.57,0.47,1.60,
4.261,2.52,-5.25,2.16,0.57,0.47,1.60,
4.263,2.52,-5.25,2.16,0.53,0.43,1.58,
4.267,2.54,-5.22,2.20,0.53,0.43,1.58,
4.267,2.54,-5.22,2.20,0.48,0.40,1.57,
4.268,2.54,-5.22,2.20,0.43,0.36,1.55,
4.271,2.54,-5.22,2.20,0.39,0.32,1.54,
4.271,2.54,-5.22,2.24,0.39,0.32,1.54,
4.273,2.54,-5.22,2.24,0.34,0.28,1.53,
4.276,2.54,-5.22,2.24,0.29,0.24,1.52,
4.276,2.61,-5.24,2.27,0.29,0.24,1.52,
4.278,2.61,-5.24,2.27,0.24,0.19,1.51,
4.281,2.61,-5.24,2.27,0.19,0.15,1.50,
4.281,2.69,-5.28,2.29,0.19,0.15,1.50,
4.285,2.69,-5.28,2.29,0.15,0.11,1.49,
4.286,2.69,-5.28,2.29,0.10,0.07,1.47,
4.287,2.80,-5.33,2.30,0.10,0.07,1.47,
4.29,2.80,-5.33,2.30,0.05,0.02,1.46,
4.291,2.80,-5.33,2.30,-0.00,-0.02,1.45,
4.291,2.90,-5.42,2.32,-0.00,-0.02,1.45,
4.293,2.90,-5.42,2.32,-0.05,-0.06,1.44,
4.296,2.90,-5.42,2.32,-0.09,-0.09,1.42,
4.296,2.97,-5.53,2.32,-0.09,-0.09,1.42,
4.302,2.97,-5.53,2.32,-0.13,-0.13,1.41,
4.302,3.02,-5.63,2.37,-0.13,-0.13,1.41,
4.302,3.02,-5.63,2.37,-0.17,-0.17,1.39,
4.303,3.02,-5.63,2.37,-0.21,-0.21,1.38,
4.306,3.02,-5.63,2.37,-0.25,-0.24,1.36,
4.308,3.02,-5.63,2.37,-0.28,-0.27,1.34,
4.308,3.09,-5.78,2.40,-0.28,-0.27,1.34,
4.311,3.09,-5.78,2.40,-0.31,-0.31,1.32,
4.311,3.16,-5.97,2.41,-0.31,-0.31,1.32,
4.313,3.16,-5.97,2.41,-0.34,-0.34,1.30,
4.316,3.16,-5.97,2.41,-0.37,-0.37,1.28,
4.317,3.20,-6.15,2.40,-0.37,-0.37,1.28,
4.318,3.20,-6.15,2.40,-0.39,-0.40,1.25,
4.32,3.20,-6.15,2.40,-0.41,-0.42,1.23,
4.321,3.26,-6.35,2.38,-0.41,-0.42,1.23,
4.322,3.26,-6.35,2.38,-0.43,-0.45,1.20,
4.325,3.26,-6.35,2.38,-0.45,-0.47,1.17,
4.325,3.34,-6.56,2.34,-0.45,-0.47,1.17,
4.328,3.34,-6.56,2.34,-0.47,-0.49,1.14,
4.33,3.34,-6.56,2.34,-0.48,-0.51,1.10,
4.33,3.42,-6.74,2.28,-0.48,-0.51,1.10,
4.333,3.42,-6.74,2.28,-0.50,-0.52,1.06,
4.335,3.42,-6.74,2.28,-0.51,-0.54,1.02,
4.335,3.54,-6.86,2.23,-0.51,-0.54,1.02,
4.337,3.54,-6.86,2.23,-0.52,-0.56,0.98,
4.34,3.54,-6.86,2.23,-0.53,-0.57,0.94,
4.34,3.68,-6.99,2.15,-0.53,-0.57,0.94,
4.342,3.68,-6.99,2.15,-0.54,-0.58,0.90,
4.345,3.68,-6.99,2.15,-0.54,-0.59,0.85,
4.345,3.81,-7.07,2.08,-0.54,-0.59,0.85,
4.347,3.81,-7.07,2.08,-0.55,-0.59,0.80,
4.351,3.81,-7.07,2.08,-0.55,-0.60,0.75,
4.351,3.96,-7.09,1.99,-0.55,-0.60,0.75,
4.352,3.96,-7.09,1.99,-0.56,-0.60,0.70,
4.355,3.96,-7.09,1.99,-0.56,-0.60,0.65,
4.355,4.12,-7.10,1.91,-0.56,-0.60,0.65,
4.357,4.12,-7.10,1.91,-0.57,-0.59,0.60,
4.361,4.12,-7.10,1.91,-0.57,-0.59,0.54,
4.383,4.31,-7.09,1.85,-0.57,-0.59,0.54,
4.384,4.31,-7.09,1.85,-0.57,-0.58,0.49,
4.384,4.31,-7.09,1.85,-0.57,-0.57,0.43,
4.384,4.46,-7.07,1.80,-0.57,-0.57,0.43,
4.384,4.46,-7.07,1.80,-0.57,-0.56,0.37,
4.385,4.46,-7.07,1.80,-0.58,-0.55,0.32,
4.385,4.57,-7.00,1.74,-0.58,-0.55,0.32,
4.385,4.57,-7.00,1.74,-0.57,-0.54,0.26,
4.385,4.58,-6.92,1.79,-0.57,-0.54,0.26,
4.386,4.58,-6.92,1.79,-0.57,-0.52,0.21,
4.386,4.58,-6.92,1.79,-0.56,-0.51,0.15,
4.386,4.58,-6.92,1.79,-0.55,-0.49,0.10,
4.386,4.47,-6.94,1.85,-0.55,-0.49,0.10,
4.387,4.47,-6.94,1.85,-0.53,-0.48,0.05,
4.387,4.47,-6.94,1.85,-0.51,-0.47,-0.00,
4.387,4.34,-7.02,1.91,-0.51,-0.47,-0.00,
4.393,4.34,-7.02,1.91,-0.49,-0.47,-0.06,
4.396,4.34,-7.02,1.91,-0.47,-0.46,-0.11,
4.396,4.22,-7.12,1.92,-0.47,-0.46,-0.11,
4.397,4.22,-7.12,1.92,-0.45,-0.46,-0.16,
4.397,4.22,-7.12,1.92,-0.42,-0.47,-0.22,
4.414,4.11,-7.24,1.89,-0.42,-0.47,-0.22,
4.415,4.11,-7.24,1.89,-0.40,-0.47,-0.28,
4.415,4.11,-7.24,1.89,-0.38,-0.48,-0.34,
4.415,3.99,-7.36,1.83,-0.38,-0.48,-0.34,
4.415,3.99,-7.36,1.83,-0.35,-0.48,-0.41,
4.415,3.99,-7.36,1.83,-0.32,-0.48,-0.47,
4.416,3.80,-7.46,1.68,-0.32,-0.48,-0.47,
4.416,3.80,-7.46,1.68,-0.30,-0.49,-0.53,
4.416,3.57,-7.56,1.50,-0.30,-0.49,-0.53,
4.416,3.57,-7.56,1.50,-0.27,-0.49,-0.59,
4.416,3.57,-7.56,1.50,-0.24,-0.49,-0.66,
4.416,3.21,-7.67,1.22,-0.24,-0.49,-0.66,
4.417,3.21,-7.67,1.22,-0.21,-0.49,-0.72,
4.417,3.21,-7.67,1.22,-0.18,-0.48,-0.78,
4.42,3.21,-7.67,1.22,-0.15,-0.47,-0.84,
4.42,2.78,-7.83,0.91,-0.15,-0.47,-0.84,
4.422,2.78,-7.83,0.91,-0.13,-0.45,-0.90,
4.427,2.78,-7.83,0.91,-0.11,-0.44,-0.95,
4.427,2.23,-7.94,0.58,-0.11,-0.44,-0.95,
4.427,2.23,-7.94,0.58,-0.09,-0.42,-1.01,
4.429,2.23,-7.94,0.58,-0.08,-0.40,-1.06,
4.429,1.78,-8.03,0.25,-0.08,-0.40,-1.06,
4.432,1.78,-8.03,0.25,-0.07,-0.38,-1.11,
4.437,1.78,-8.03,0.25,-0.07,-0.36,-1.17,
4.437,1.53,-8.03,-0.10,-0.07,-0.36,-1.17,
4.438,1.53,-8.03,-0.10,-0.07,-0.35,-1.22,
4.44,1.53,-8.03,-0.10,-0.08,-0.33,-1.28,
4.441,1.44,-7.94,-0.44,-0.08,-0.33,-1.28,
4.444,1.44,-7.94,-0.44,-0.09,-0.30,-1.34,
4.444,1.44,-7.94,-0.44,-0.11,-0.28,-1.39,
4.446,1.46,-7.78,-0.71,-0.11,-0.28,-1.39,
4.447,1.46,-7.78,-0.71,-0.13,-0.25,-1.45,
4.45,1.46,-7.78,-0.71,-0.16,-0.22,-1.51,
4.45,1.54,-7.47,-0.94,-0.16,-0.22,-1.51,
4.452,1.54,-7.47,-0.94,-0.19,-0.19,-1.57,
4.454,1.54,-7.47,-0.94,-0.22,-0.16,-1.63,
4.454,1.59,-7.10,-1.05,-0.22,-0.16,-1.63,
4.456,1.59,-7.10,-1.05,-0.26,-0.13,-1.69,
4.459,1.59,-7.10,-1.05,-0.29,-0.10,-1.75,
4.459,1.50,-6.70,-1.06,-0.29,-0.10,-1.75,
4.462,1.50,-6.70,-1.06,-0.32,-0.07,-1.80,
4.464,1.50,-6.70,-1.06,-0.35,-0.05,-1.85,
4.465,1.37,-6.27,-0.95,-0.35,-0.05,-1.85,
4.468,1.37,-6.27,-0.95,-0.37,-0.03,-1.89,
4.47,1.22,-5.82,-0.78,-0.37,-0.03,-1.89,
4.471,1.22,-5.82,-0.78,-0.39,-0.02,-1.93,
4.472,1.22,-5.82,-0.78,-0.41,-0.01,-1.97,
4.474,1.22,-5.82,-0.78,-0.43,-0.01,-2.01,
4.474,1.01,-5.44,-0.60,-0.43,-0.01,-2.01,
4.476,1.01,-5.44,-0.60,-0.44,-0.01,-2.04,
4.479,1.01,-5.44,-0.60,-0.45,-0.01,-2.07,
4.479,0.75,-5.07,-0.42,-0.45,-0.01,-2.07,
4.481,0.75,-5.07,-0.42,-0.46,-0.02,-2.09,
4.488,0.46,-4.73,-0.29,-0.46,-0.02,-2.09,
4.489,0.46,-4.73,-0.29,-0.46,-0.03,-2.11,
4.489,0.46,-4.73,-0.29,-0.46,-0.04,-2.13,
4.49,0.20,-4.43,-0.18,-0.46,-0.04,-2.13,
4.49,0.20,-4.43,-0.18,-0.45,-0.06,-2.14,
4.491,0.20,-4.43,-0.18,-0.44,-0.08,-2.15,
4.499,0.20,-4.43,-0.18,-0.43,-0.10,-2.16,
4.5,0.01,-4.20,-0.11,-0.43,-0.10,-2.16,
4.501,0.01,-4.20,-0.11,-0.41,-0.13,-2.17,
4.501,-0.16,-4.01,-0.10,-0.41,-0.13,-2.17,
4.512,-0.16,-4.01,-0.10,-0.40,-0.16,-2.18,
4.513,-0.16,-4.01,-0.10,-0.38,-0.19,-2.19,
4.513,-0.28,-3.84,-0.15,-0.38,-0.19,-2.19,
4.514,-0.28,-3.84,-0.15,-0.35,-0.22,-2.20,
4.514,-0.28,-3.84,-0.15,-0.33,-0.24,-2.21,
4.514,-0.28,-3.84,-0.15,-0.30,-0.27,-2.22,
4.514,-0.36,-3.72,-0.28,-0.30,-0.27,-2.22,
4.515,-0.36,-3.72,-0.28,-0.28,-0.29,-2.23,
4.515,-0.36,-3.72,-0.28,-0.25,-0.31,-2.25,
4.515,-0.44,-3.58,-0.46,-0.25,-0.31,-2.25,
4.52,-0.55,-3.48,-0.73,-0.25,-0.31,-2.25,
4.522,-0.55,-3.48,-0.73,-0.23,-0.33,-2.26,
4.522,-0.55,-3.48,-0.73,-0.20,-0.35,-2.27,
4.524,-0.70,-3.35,-1.05,-0.20,-0.35,-2.27,
4.527,-0.70,-3.35,-1.05,-0.18,-0.36,-2.29,
4.527,-0.70,-3.35,-1.05,-0.15,-0.37,-2.30,
4.543,-0.70,-3.35,-1.05,-0.13,-0.38,-2.31,
4.543,-0.70,-3.35,-1.05,-0.11,-0.37,-2.32,
4.544,-0.82,-3.24,-1.38,-0.11,-0.37,-2.32,
4.544,-0.82,-3.24,-1.38,-0.09,-0.37,-2.33,
4.544,-0.82,-3.24,-1.38,-0.07,-0.36,-2.34,
4.544,-0.95,-3.09,-1.69,-0.07,-0.36,-2.34,
4.544,-0.95,-3.09,-1.69,-0.05,-0.34,-2.35,
4.545,-1.05,-2.93,-1.98,-0.05,-0.34,-2.35,
4.545,-1.05,-2.93,-1.98,-0.04,-0.32,-2.36,
4.545,-1.05,-2.93,-1.98,-0.02,-0.29,-2.37,
4.545,-1.05,-2.93,-1.98,-0.01,-0.26,-2.37,
4.546,-1.13,-2.76,-2.25,-0.01,-0.26,-2.37,
4.546,-1.13,-2.76,-2.25,0.00,-0.23,-2.38,
4.548,-1.24,-2.62,-2.47,0.00,-0.23,-2.38,
4.549,-1.24,-2.62,-2.47,0.01,-0.19,-2.39,
4.551,-1.24,-2.62,-2.47,0.01,-0.15,-2.39,
4.553,-1.39,-2.39,-2.68,0.01,-0.15,-2.39,
4.554,-1.39,-2.39,-2.68,0.01,-0.11,-2.40,
4.555,-1.39,-2.39,-2.68,0.01,-0.08,-2.40,
4.558,-1.39,-2.39,-2.68,-0.00,-0.04,-2.41,
4.558,-1.45,-2.11,-2.82,-0.00,-0.04,-2.41,
4.561,-1.45,-2.11,-2.82,-0.01,0.00,-2.41,
4.563,-1.45,-2.11,-2.82,-0.03,0.04,-2.41,
4.563,-1.50,-1.77,-2.91,-0.03,0.04,-2.41,
4.565,-1.50,-1.77,-2.91,-0.05,0.08,-2.40,
4.568,-1.56,-1.39,-2.94,-0.05,0.08,-2.40,
4.569,-1.56,-1.39,-2.94,-0.07,0.11,-2.40,
4.571,-1.56,-1.39,-2.94,-0.10,0.14,-2.39,
4.573,-1.56,-1.39,-2.94,-0.13,0.17,-2.38,
4.573,-1.63,-1.01,-2.96,-0.13,0.17,-2.38,
4.576,-1.63,-1.01,-2.96,-0.16,0.19,-2.36,
4.579,-1.69,-0.60,-2.89,-0.16,0.19,-2.36,
4.58,-1.69,-0.60,-2.89,-0.20,0.21,-2.34,
4.582,-1.69,-0.60,-2.89,-0.24,0.23,-2.32,
4.588,-1.77,-0.20,-2.78,-0.24,0.23,-2.32,
4.589,-1.77,-0.20,-2.78,-0.28,0.23,-2.30,
4.59,-1.77,-0.20,-2.78,-0.32,0.23,-2.27,
4.591,-1.82,0.17,-2.63,-0.32,0.23,-2.27,
4.592,-1.82,0.17,-2.63,-0.36,0.23,-2.24,
4.592,-1.82,0.17,-2.63,-0.41,0.22,-2.21,
4.594,-1.88,0.53,-2.49,-0.41,0.22,-2.21,
4.595,-1.88,0.53,-2.49,-0.45,0.20,-2.17,
4.597,-1.88,0.53,-2.49,-0.50,0.18,-2.13,
4.609,-1.86,0.88,-2.40,-0.50,0.18,-2.13,
4.61,-1.78,1.17,-2.37,-0.50,0.18,-2.13,
4.61,-1.78,1.17,-2.37,-0.55,0.15,-2.09,
4.611,-1.78,1.17,-2.37,-0.60,0.12,-2.05,
4.611,-1.78,1.17,-2.37,-0.66,0.09,-2.01,
4.611,-1.78,1.17,-2.37,-0.73,0.06,-1.96,
4.611,-1.64,1.43,-2.33,-0.73,0.06,-1.96,
4.612,-1.64,1.43,-2.33,-0.80,0.03,-1.92,
4.613,-1.64,1.43,-2.33,-0.87,-0.01,-1.87,
4.614,-1.64,1.43,-2.33,-0.95,-0.04,-1.83,
4.614,-1.48,1.58,-2.30,-0.95,-0.04,-1.83,
4.615,-1.48,1.58,-2.30,-1.03,-0.08,-1.78,
4.618,-1.48,1.58,-2.30,-1.12,-0.11,-1.74,
4.618,-1.27,1.70,-2.25,-1.12,-0.11,-1.74,
4.622,-1.27,1.70,-2.25,-1.21,-0.15,-1.69,
4.623,-1.27,1.70,-2.25,-1.30,-0.19,-1.65,
4.623,-1.08,1.77,-2.12,-1.30,-0.19,-1.65,
4.625,-1.08,1.77,-2.12,-1.38,-0.23,-1.60,
4.628,-0.87,1.75,-1.95,-1.38,-0.23,-1.60,
4.628,-0.87,1.75,-1.95,-1.47,-0.27,-1.56,
4.63,-0.87,1.75,-1.95,-1.55,-0.31,-1.53,
4.632,-0.67,1.73,-1.69,-1.55,-0.31,-1.53,
4.633,-0.67,1.73,-1.69,-1.63,-0.35,-1.50,
4.636,-0.67,1.73,-1.69,-1.71,-0.40,-1.47,
4.638,-0.45,1.67,-1.44,-1.71,-0.40,-1.47,
4.638,-0.45,1.67,-1.44,-1.78,-0.44,-1.45,
4.64,-0.45,1.67,-1.44,-1.85,-0.49,-1.43,
4.642,-0.45,1.67,-1.44,-1.92,-0.53,-1.41,
4.643,-0.31,1.60,-1.23,-1.92,-0.53,-1.41,
4.645,-0.31,1.60,-1.23,-1.98,-0.58,-1.40,
4.647,-0.31,1.60,-1.23,-2.05,-0.62,-1.39,
4.647,-0.21,1.51,-1.02,-2.05,-0.62,-1.39,
4.65,-0.21,1.51,-1.02,-2.10,-0.66,-1.38,
4.653,-0.15,1.41,-0.85,-2.10,-0.66,-1.38,
4.654,-0.15,1.41,-0.85,-2.16,-0.70,-1.37,
4.655,-0.15,1.41,-0.85,-2.21,-0.74,-1.36,
4.657,-0.15,1.41,-0.85,-2.26,-0.77,-1.36,
4.658,-0.13,1.33,-0.66,-2.26,-0.77,-1.36,
4.66,-0.13,1.33,-0.66,-2.30,-0.80,-1.35,
4.662,-0.14,1.29,-0.47,-2.30,-0.80,-1.35,
4.663,-0.14,1.29,-0.47,-2.35,-0.83,-1.34,
4.665,-0.14,1.29,-0.47,-2.38,-0.85,-1.34,
4.667,-0.14,1.29,-0.47,-2.41,-0.87,-1.34,
4.668,-0.12,1.27,-0.26,-2.41,-0.87,-1.34,
4.671,-0.12,1.27,-0.26,-2.43,-0.88,-1.33,
4.672,-0.12,1.27,-0.26,-2.46,-0.90,-1.33,
4.672,-0.16,1.21,-0.06,-2.46,-0.90,-1.33,
4.675,-0.16,1.21,-0.06,-2.47,-0.91,-1.33,
4.677,-0.16,1.21,-0.06,-2.48,-0.92,-1.33,
4.678,-0.21,1.17,0.12,-2.48,-0.92,-1.33,
4.68,-0.21,1.17,0.12,-2.49,-0.92,-1.32,
4.682,-0.21,1.17,0.12,-2.49,-0.92,-1.32,
4.683,-0.28,1.13,0.27,-2.49,-0.92,-1.32,
4.689,-0.28,1.13,0.27,-2.50,-0.92,-1.32,
4.691,-0.28,1.13,0.27,-2.50,-0.91,-1.32,
4.692,-0.34,1.10,0.39,-2.50,-0.91,-1.32,
4.693,-0.34,1.10,0.39,-2.50,-0.91,-1.32,
4.738,-0.34,1.10,0.39,-2.49,-0.90,-1.31,
4.738,-0.43,1.05,0.50,-2.49,-0.90,-1.31,
4.739,-0.43,1.05,0.50,-2.49,-0.88,-1.31,
4.739,-0.50,0.99,0.66,-2.49,-0.88,-1.31,
4.739,-0.50,0.99,0.66,-2.48,-0.87,-1.31,
4.74,-0.60,0.96,0.79,-2.48,-0.87,-1.31,
4.74,-0.60,0.96,0.79,-2.47,-0.85,-1.31,
4.74,-0.60,0.96,0.79,-2.46,-0.83,-1.31,
4.741,-0.60,0.96,0.79,-2.44,-0.81,-1.31,
4.741,-0.68,0.96,0.95,-2.44,-0.81,-1.31,
4.741,-0.68,0.96,0.95,-2.42,-0.79,-1.32,
4.741,-0.68,0.96,0.95,-2.40,-0.77,-1.32,
4.742,-0.81,0.96,1.08,-2.40,-0.77,-1.32,
4.742,-0.81,0.96,1.08,-2.37,-0.75,-1.32,
4.742,-0.81,0.96,1.08,-2.35,-0.73,-1.33,
4.742,-0.95,0.98,1.21,-2.35,-0.73,-1.33,
4.743,-0.95,0.98,1.21,-2.31,-0.70,-1.33,
4.743,-0.95,0.98,1.21,-2.28,-0.68,-1.34,
4.743,-1.12,1.00,1.31,-2.28,-0.68,-1.34,
4.743,-1.12,1.00,1.31,-2.25,-0.66,-1.34,
4.744,-1.12,1.00,1.31,-2.21,-0.63,-1.35,
4.744,-1.33,1.02,1.36,-2.21,-0.63,-1.35,
4.744,-1.33,1.02,1.36,-2.18,-0.61,-1.35,
4.744,-1.33,1.02,1.36,-2.14,-0.58,-1.35,
4.744,-1.33,1.02,1.36,-2.10,-0.55,-1.36,
4.745,-1.54,1.06,1.38,-2.10,-0.55,-1.36,
4.745,-1.54,1.06,1.38,-2.06,-0.52,-1.36,
4.745,-1.76,1.07,1.41,-2.06,-0.52,-1.36,
4.745,-1.76,1.07,1.41,-2.03,-0.49,-1.37,
4.746,-1.76,1.07,1.41,-1.99,-0.46,-1.37,
4.746,-1.76,1.07,1.41,-1.95,-0.43,-1.38,
4.746,-1.98,1.12,1.44,-1.95,-0.43,-1.38,
4.746,-1.98,1.12,1.44,-1.90,-0.40,-1.39,
4.747,-2.24,1.21,1.50,-1.90,-0.40,-1.39,
4.747,-2.24,1.21,1.50,-1.86,-0.37,-1.39,
4.749,-2.24,1.21,1.50,-1.82,-0.34,-1.40,
4.752,-2.24,1.21,1.50,-1.77,-0.31,-1.40,
4.752,-2.41,1.35,1.50,-1.77,-0.31,-1.40,
4.754,-2.41,1.35,1.50,-1.73,-0.28,-1.41,
4.757,-2.56,1.50,1.48,-1.73,-0.28,-1.41,
4.757,-2.56,1.50,1.48,-1.69,-0.25,-1.42,
4.759,-2.56,1.50,1.48,-1.65,-0.22,-1.43,
4.762,-2.71,1.67,1.50,-1.65,-0.22,-1.43,
4.762,-2.71,1.67,1.50,-1.61,-0.19,-1.44,
4.764,-2.71,1.67,1.50,-1.57,-0.16,-1.45,
4.768,-2.85,1.89,1.51,-1.57,-0.16,-1.45,
4.768,-2.85,1.89,1.51,-1.54,-0.13,-1.45,
4.769,-2.85,1.89,1.51,-1.50,-0.10,-1.46,
4.773,-3.05,2.17,1.54,-1.50,-0.10,-1.46,
4.774,-3.05,2.17,1.54,-1.46,-0.06,-1.47,
4.775,-3.05,2.17,1.54,-1.43,-0.03,-1.47,
4.778,-3.05,2.17,1.54,-1.39,-0.01,-1.47,
4.778,-3.23,2.45,1.64,-1.39,-0.01,-1.47,
4.78,-3.23,2.45,1.64,-1.35,0.01,-1.48,
4.783,-3.23,2.45,1.64,-1.32,0.04,-1.47,
4.783,-3.39,2.74,1.76,-1.32,0.04,-1.47,
4.786,-3.39,2.74,1.76,-1.28,0.06,-1.47,
4.788,-3.59,3.06,1.89,-1.28,0.06,-1.47,
4.789,-3.59,3.06,1.89,-1.24,0.07,-1.46,
4.791,-3.59,3.06,1.89,-1.20,0.09,-1.46,
4.792,-3.59,3.06,1.89,-1.16,0.10,-1.45,
4.792,-3.77,3.36,2.02,-1.16,0.10,-1.45,
4.794,-3.77,3.36,2.02,-1.12,0.11,-1.43,
4.796,-3.92,3.64,2.15,-1.12,0.11,-1.43,
4.797,-3.92,3.64,2.15,-1.08,0.12,-1.42,
4.799,-3.92,3.64,2.15,-1.03,0.12,-1.40,
4.805,-3.92,3.64,2.15,-0.99,0.13,-1.39,
4.806,-4.06,3.90,2.24,-0.99,0.13,-1.39,
4.807,-4.06,3.90,2.24,-0.94,0.14,-1.37,
4.807,-4.06,3.90,2.24,-0.89,0.14,-1.35,
4.807,-4.22,4.16,2.34,-0.89,0.14,-1.35,
4.809,-4.22,4.16,2.34,-0.84,0.15,-1.33,
4.811,-4.22,4.16,2.34,-0.79,0.16,-1.30,
4.811,-4.39,4.41,2.41,-0.79,0.16,-1.30,
4.813,-4.39,4.41,2.41,-0.73,0.16,-1.28,
4.816,-4.39,4.41,2.41,-0.67,0.17,-1.25,
4.816,-4.52,4.67,2.50,-0.67,0.17,-1.25,
4.819,-4.52,4.67,2.50,-0.61,0.17,-1.22,
4.821,-4.52,4.67,2.50,-0.54,0.18,-1.19,
4.821,-4.67,4.86,2.55,-0.54,0.18,-1.19,
4.823,-4.67,4.86,2.55,-0.47,0.19,-1.16,
4.826,-4.67,4.86,2.55,-0.40,0.20,-1.12,
4.826,-4.84,5.01,2.54,-0.40,0.20,-1.12,
4.828,-4.84,5.01,2.54,-0.33,0.21,-1.09,
4.831,-4.84,5.01,2.54,-0.26,0.22,-1.05,
4.831,-5.02,5.11,2.48,-0.26,0.22,-1.05,
4.834,-5.02,5.11,2.48,-0.19,0.23,-1.01,
4.836,-5.19,5.16,2.38,-0.19,0.23,-1.01,
4.836,-5.19,5.16,2.38,-0.12,0.25,-0.96,
4.84,-5.19,5.16,2.38,-0.06,0.27,-0.92,
4.846,-5.36,5.20,2.23,-0.06,0.27,-0.92,
4.846,-5.36,5.20,2.23,0.01,0.28,-0.88,
4.846,-5.50,5.19,2.06,0.01,0.28,-0.88,
4.846,-5.50,5.19,2.06,0.07,0.31,-0.83,
4.847,-5.50,5.19,2.06,0.13,0.33,-0.78,
4.848,-5.50,5.19,2.06,0.19,0.35,-0.73,
4.851,-5.67,5.13,1.91,0.19,0.35,-0.73,
4.852,-5.67,5.13,1.91,0.24,0.38,-0.68,
4.854,-5.67,5.13,1.91,0.29,0.40,-0.64,
4.856,-5.74,5.12,1.76,0.29,0.40,-0.64,
4.879,-5.74,5.12,1.76,0.33,0.43,-0.59,
4.879,-5.74,5.12,1.76,0.38,0.45,-0.54,
4.879,-5.77,5.10,1.65,0.38,0.45,-0.54,
4.881,-5.77,5.10,1.65,0.42,0.47,-0.50,
4.884,-5.77,5.10,1.65,0.45,0.48,-0.46,
4.884,-5.77,5.10,1.65,0.49,0.50,-0.42,
4.884,-5.79,5.04,1.52,0.49,0.50,-0.42,
4.884,-5.79,5.04,1.52,0.51,0.52,-0.38,
4.885,-5.79,5.02,1.40,0.51,0.52,-0.38,
4.885,-5.79,5.02,1.40,0.54,0.53,-0.34,
4.885,-5.79,5.02,1.40,0.56,0.54,-0.30,
4.886,-5.79,5.02,1.40,0.57,0.56,-0.26,
4.886,-5.80,5.00,1.32,0.57,0.56,-0.26,
4.886,-5.80,5.00,1.32,0.58,0.56,-0.21,
4.886,-5.80,5.00,1.32,0.59,0.57,-0.17,
4.887,-5.84,4.98,1.26,0.59,0.57,-0.17,
4.887,-5.84,4.98,1.26,0.60,0.58,-0.13,
4.887,-5.96,4.89,1.23,0.60,0.58,-0.13,
4.887,-5.96,4.89,1.23,0.60,0.58,-0.09,
4.888,-5.96,4.89,1.23,0.59,0.57,-0.04,
4.89,-5.96,4.89,1.23,0.59,0.57,0.00,
4.891,-6.12,4.66,1.24,0.59,0.57,0.00,
4.893,-6.12,4.66,1.24,0.58,0.56,0.05,
4.895,-6.12,4.66,1.24,0.56,0.54,0.09,
4.896,-6.27,4.34,1.28,0.56,0.54,0.09,
4.897,-6.27,4.34,1.28,0.55,0.52,0.13,
4.905,-6.27,4.34,1.28,0.54,0.50,0.17,
4.906,-6.38,4.06,1.38,0.54,0.50,0.17,
4.906,-6.38,4.06,1.38,0.52,0.47,0.20,
4.907,-6.38,4.06,1.38,0.51,0.44,0.23,
4.907,-6.49,3.77,1.48,0.51,0.44,0.23,
4.908,-6.49,3.77,1.48,0.50,0.41,0.26,
4.911,-6.59,3.52,1.54,0.50,0.41,0.26,
4.911,-6.59,3.52,1.54,0.48,0.38,0.29,
4.913,-6.59,3.52,1.54,0.47,0.35,0.31,
4.915,-6.59,3.52,1.54,0.46,0.32,0.34,
4.916,-6.70,3.26,1.56,0.46,0.32,0.34,
4.921,-6.70,3.26,1.56,0.45,0.29,0.36,
4.921,-6.70,3.26,1.56,0.44,0.26,0.38,
4.921,-6.78,3.02,1.53,0.44,0.26,0.38,
4.922,-6.78,3.02,1.53,0.42,0.23,0.40,
4.925,-6.78,3.02,1.53,0.41,0.20,0.42,
4.925,-6.86,2.78,1.54,0.41,0.20,0.42,
4.928,-6.86,2.78,1.54,0.40,0.18,0.44,
4.93,-6.86,2.78,1.54,0.39,0.16,0.46,
4.93,-6.92,2.61,1.57,0.39,0.16,0.46,
4.932,-6.92,2.61,1.57,0.38,0.15,0.48,
