
time,ax,ay,az,wx,wy,wz,
0.003,0.01,0.02,-0.07,0.01,0.00,-0.01,
0.003,0.01,0.02,-0.07,0.01,0.00,-0.01,
0.004,0.04,0.02,-0.07,0.01,0.00,-0.01,
0.004,0.04,0.02,-0.07,0.01,0.00,-0.01,
0.004,0.06,0.02,-0.07,0.01,0.00,-0.01,
0.004,0.06,0.02,-0.07,0.01,0.00,-0.01,
0.004,0.06,0.02,-0.07,0.00,0.00,-0.01,
0.004,0.08,0.03,-0.05,0.00,0.00,-0.01,
0.004,0.08,0.03,-0.05,0.00,0.00,-0.01,
0.004,0.08,0.03,-0.05,0.00,0.00,-0.01,
0.005,0.08,0.03,-0.05,-0.00,0.01,-0.01,
0.005,0.06,-0.00,-0.04,-0.00,0.01,-0.01,
0.006,0.06,-0.00,-0.04,-0.00,0.01,-0.01,
0.01,0.04,-0.01,-0.03,-0.00,0.01,-0.01,
0.01,0.04,-0.01,-0.03,-0.00,0.01,-0.01,
0.011,0.04,-0.01,-0.03,-0.00,0.01,-0.01,
0.013,0.04,-0.01,-0.03,-0.00,0.01,-0.01,
0.014,0.00,0.01,-0.04,-0.00,0.01,-0.01,
0.016,0.00,0.01,-0.04,-0.00,0.00,-0.01,
0.018,0.00,0.01,-0.04,-0.00,0.01,-0.01,
0.02,0.01,-0.00,-0.03,-0.00,0.01,-0.01,
0.022,0.01,-0.00,-0.03,-0.00,0.00,-0.01,
0.023,-0.01,0.00,-0.02,-0.00,0.00,-0.01,
0.024,-0.01,0.00,-0.02,-0.00,0.00,-0.02,
0.026,-0.01,0.00,-0.02,-0.00,0.00,-0.01,
0.03,-0.01,-0.01,-0.02,-0.00,0.00,-0.01,
0.03,-0.01,-0.01,-0.02,-0.00,0.00,-0.01,
0.031,-0.01,-0.01,-0.02,-0.01,0.00,-0.01,
0.034,-0.02,-0.02,0.01,-0.01,0.00,-0.01,
0.034,-0.02,-0.02,0.01,-0.01,0.00,-0.01,
0.036,-0.02,-0.02,0.01,-0.00,0.00,-0.01,
0.039,-0.02,-0.02,0.01,-0.01,0.00,-0.01,
0.04,-0.03,-0.00,0.06,-0.01,0.00,-0.01,
0.041,-0.03,-0.00,0.06,-0.00,0.00,-0.01,
0.043,-0.03,-0.00,0.06,-0.00,-0.00,-0.01,
0.044,-0.01,-0.01,0.09,-0.00,-0.00,-0.01,
0.045,-0.01,-0.01,0.09,-0.00,-0.00,-0.01,
0.049,-0.01,-0.01,0.09,0.00,-0.00,-0.01,
0.049,0.00,-0.02,0.08,0.00,-0.00,-0.01,
0.05,0.00,-0.02,0.08,0.00,-0.01,-0.01,
0.053,0.00,-0.02,0.08,0.00,-0.01,-0.01,
0.053,-0.01,-0.02,0.01,0.00,-0.01,-0.01,
0.056,-0.01,-0.02,0.01,0.00,-0.00,-0.01,
0.058,-0.01,-0.02,0.01,0.00,-0.01,-0.01,
0.058,-0.01,-0.01,0.02,0.00,-0.01,-0.01,
0.06,-0.01,-0.01,0.02,0.00,-0.01,-0.01,
0.063,-0.01,-0.01,0.02,0.00,-0.01,-0.01,
0.063,-0.02,0.01,0.01,0.00,-0.01,-0.01,
0.065,-0.02,0.01,0.01,0.00,-0.01,-0.01,
0.068,-0.02,0.03,0.03,0.00,-0.01,-0.01,
0.069,-0.02,0.03,0.03,0.00,-0.00,-0.01,
0.07,-0.02,0.03,0.03,0.00,-0.01,-0.01,
0.073,-0.02,0.03,0.03,0.01,-0.00,-0.01,
0.073,-0.00,0.03,0.05,0.01,-0.00,-0.01,
0.075,-0.00,0.03,0.05,0.01,-0.00,-0.01,
0.078,-0.00,0.03,0.05,0.01,-0.00,-0.01,
0.078,-0.00,0.01,0.03,0.01,-0.00,-0.01,
0.08,-0.00,0.01,0.03,0.01,-0.00,-0.01,
0.083,-0.00,0.01,0.03,0.01,-0.00,-0.01,
0.083,-0.03,-0.02,0.00,0.01,-0.00,-0.01,
0.085,-0.03,-0.02,0.00,0.01,-0.00,-0.01,
0.088,-0.03,-0.03,-0.01,0.01,-0.00,-0.01,
0.089,-0.03,-0.03,-0.01,0.01,-0.00,-0.01,
0.09,-0.03,-0.03,-0.01,0.01,-0.00,-0.01,
0.093,-0.06,-0.01,-0.02,0.01,-0.00,-0.01,
0.093,-0.06,-0.01,-0.02,0.01,0.00,-0.01,
0.095,-0.06,-0.01,-0.02,0.01,0.00,-0.01,
0.098,-0.06,-0.01,-0.02,0.01,0.00,-0.01,
0.098,-0.02,0.00,-0.01,0.01,0.00,-0.01,
0.1,-0.02,0.00,-0.01,0.01,-0.00,-0.01,
0.103,0.02,0.03,0.02,0.01,-0.00,-0.01,
0.104,0.02,0.03,0.02,0.01,-0.00,-0.01,
0.105,0.02,0.03,0.02,0.01,-0.01,-0.00,
0.107,0.02,0.03,0.02,0.01,-0.01,-0.01,
0.108,0.04,0.01,0.01,0.01,-0.01,-0.01,
0.11,0.04,0.01,0.01,0.01,-0.01,-0.01,
0.113,0.07,-0.01,-0.01,0.01,-0.01,-0.01,
0.113,0.07,-0.01,-0.01,0.01,-0.01,-0.01,
0.115,0.07,-0.01,-0.01,0.01,-0.01,-0.01,
0.117,0.07,-0.01,-0.01,0.01,-0.01,-0.01,
0.117,0.06,-0.01,-0.02,0.01,-0.01,-0.01,
0.12,0.06,-0.01,-0.02,0.01,-0.01,-0.01,
0.122,0.06,-0.01,-0.02,0.01,-0.01,-0.01,
0.123,0.03,0.02,-0.00,0.01,-0.01,-0.01,
0.125,0.03,0.02,-0.00,0.01,-0.01,-0.01,
0.128,0.02,0.02,-0.01,0.01,-0.01,-0.01,
0.128,0.02,0.02,-0.01,0.01,-0.01,-0.01,
0.132,0.02,0.02,-0.01,0.01,-0.01,-0.01,
0.132,0.00,0.02,0.02,0.01,-0.01,-0.01,
0.132,0.00,0.02,0.02,0.01,-0.01,-0.01,
0.137,0.00,0.02,0.02,0.01,-0.01,-0.01,
0.137,0.00,0.02,0.02,0.01,-0.02,-0.01,
0.139,-0.02,0.02,0.01,0.01,-0.02,-0.01,
0.14,-0.02,0.02,0.01,0.00,-0.02,-0.01,
0.142,-0.02,0.02,0.01,0.00,-0.02,-0.01,
0.142,0.00,-0.00,0.03,0.00,-0.02,-0.01,
0.146,0.00,-0.00,0.03,0.01,-0.02,-0.01,
0.147,0.01,-0.01,0.05,0.01,-0.02,-0.01,
0.148,0.01,-0.01,0.05,0.01,-0.02,-0.01,
0.149,0.01,-0.01,0.05,0.01,-0.01,-0.01,
0.164,0.02,-0.00,0.07,0.01,-0.01,-0.01,
0.164,0.02,-0.00,0.07,0.01,-0.01,-0.01,
0.165,0.02,-0.00,0.07,0.01,-0.01,-0.01,
0.165,0.02,-0.02,0.05,0.01,-0.01,-0.01,
0.165,0.02,-0.02,0.05,0.01,-0.01,-0.01,
0.165,0.02,-0.02,0.05,0.01,-0.01,-0.01,
0.165,-0.01,-0.01,0.04,0.01,-0.01,-0.01,
0.166,-0.01,-0.01,0.04,0.01,-0.01,-0.01,
0.166,-0.01,-0.01,0.04,0.01,-0.01,-0.01,
0.167,-0.05,-0.00,0.02,0.01,-0.01,-0.01,
0.168,-0.05,-0.00,0.02,0.01,-0.01,-0.01,
0.17,-0.05,-0.00,0.02,0.01,-0.01,-0.01,
0.172,-0.04,-0.00,0.01,0.01,-0.01,-0.01,
0.172,-0.04,-0.00,0.01,0.01,-0.01,-0.01,
0.174,-0.04,-0.00,0.01,0.01,-0.01,-0.01,
0.177,0.00,0.02,0.01,0.01,-0.01,-0.01,
0.177,0.00,0.02,0.01,0.01,-0.01,-0.01,
0.18,0.00,0.02,0.01,0.01,-0.01,-0.01,
0.182,0.00,0.02,0.01,0.01,-0.01,-0.01,
0.182,0.01,-0.01,-0.02,0.01,-0.01,-0.01,
0.186,0.01,-0.01,-0.02,0.01,-0.01,-0.01,
0.187,0.01,-0.01,-0.02,0.01,-0.01,-0.01,
0.187,0.04,-0.01,-0.04,0.01,-0.01,-0.01,
0.189,0.04,-0.01,-0.04,0.01,-0.01,-0.01,
0.193,0.08,-0.01,-0.02,0.01,-0.01,-0.01,
0.193,0.08,-0.01,-0.02,0.01,-0.01,-0.01,
0.197,0.08,-0.01,-0.02,0.01,-0.01,-0.02,
0.197,0.11,-0.02,-0.00,0.01,-0.01,-0.02,
0.197,0.11,-0.02,-0.00,0.01,-0.01,-0.02,
0.199,0.11,-0.02,-0.00,0.01,-0.00,-0.02,
0.202,0.10,-0.03,0.01,0.01,-0.00,-0.02,
0.202,0.10,-0.03,0.01,0.01,0.00,-0.02,
0.204,0.10,-0.03,0.01,0.01,0.00,-0.02,
0.207,0.10,-0.03,0.01,0.01,0.01,-0.02,
0.207,0.09,-0.02,0.02,0.01,0.01,-0.02,
0.209,0.09,-0.02,0.02,0.01,0.01,-0.03,
0.211,0.09,-0.02,0.02,0.01,0.01,-0.03,
0.212,0.05,-0.01,0.02,0.01,0.01,-0.03,
0.214,0.05,-0.01,0.02,0.01,0.01,-0.03,
0.217,0.01,-0.02,0.03,0.01,0.01,-0.03,
0.217,0.01,-0.02,0.03,0.01,0.02,-0.02,
0.219,0.01,-0.02,0.03,0.01,0.02,-0.02,
0.222,0.01,-0.02,0.03,0.01,0.01,-0.02,
0.222,-0.03,0.02,0.04,0.01,0.01,-0.02,
0.224,-0.03,0.02,0.04,0.01,0.01,-0.02,
0.227,-0.06,0.00,0.07,0.01,0.01,-0.02,
0.227,-0.06,0.00,0.07,0.01,0.01,-0.02,
0.229,-0.06,0.00,0.07,0.01,0.01,-0.02,
0.232,-0.08,-0.01,0.05,0.01,0.01,-0.02,
0.232,-0.08,-0.01,0.05,0.01,0.01,-0.02,
0.234,-0.08,-0.01,0.05,0.01,0.01,-0.02,
0.237,-0.08,-0.01,0.05,0.01,0.01,-0.02,
0.238,-0.11,-0.02,0.03,0.01,0.01,-0.02,
0.239,-0.11,-0.02,0.03,0.01,0.01,-0.02,
0.241,-0.11,-0.02,0.03,0.02,0.01,-0.01,
0.242,-0.13,-0.02,0.05,0.02,0.01,-0.01,
0.244,-0.13,-0.02,0.05,0.02,0.01,-0.01,
0.246,-0.11,-0.01,0.08,0.02,0.01,-0.01,
0.247,-0.11,-0.01,0.08,0.02,0.00,-0.01,
0.249,-0.11,-0.01,0.08,0.02,0.00,-0.01,
0.251,-0.03,0.00,0.05,0.02,0.00,-0.01,
0.252,-0.03,0.00,0.05,0.02,-0.00,-0.01,
0.254,-0.03,0.00,0.05,0.02,-0.00,-0.01,
0.257,0.02,0.04,0.02,0.02,-0.00,-0.01,
0.257,0.02,0.04,0.02,0.02,-0.01,-0.01,
0.259,0.02,0.04,0.02,0.02,-0.01,-0.01,
0.261,0.02,0.04,0.02,0.02,-0.01,-0.01,
0.262,0.01,0.02,0.03,0.02,-0.01,-0.01,
0.264,0.01,0.02,0.03,0.02,-0.01,-0.00,
0.266,-0.00,-0.01,0.07,0.02,-0.01,-0.00,
0.266,-0.00,-0.01,0.07,0.03,-0.01,-0.01,
0.269,-0.00,-0.01,0.07,0.03,-0.01,-0.01,
0.272,-0.02,-0.04,0.01,0.03,-0.01,-0.01,
0.273,-0.02,-0.04,0.01,0.03,-0.01,-0.01,
0.274,-0.02,-0.04,0.01,0.03,-0.01,-0.01,
0.276,-0.02,-0.04,0.01,0.03,-0.01,-0.01,
0.276,-0.03,-0.04,-0.06,0.03,-0.01,-0.01,
0.279,-0.03,-0.04,-0.06,0.03,-0.01,-0.01,
0.281,0.00,0.00,-0.09,0.03,-0.01,-0.01,
0.282,0.00,0.00,-0.09,0.03,-0.02,-0.01,
0.283,0.00,0.00,-0.09,0.02,-0.02,-0.01,
0.287,0.09,0.03,-0.06,0.02,-0.02,-0.01,
0.288,0.09,0.03,-0.06,0.02,-0.02,-0.01,
0.289,0.09,0.03,-0.06,0.02,-0.02,-0.01,
0.291,0.09,0.03,-0.06,0.02,-0.02,-0.01,
0.291,0.18,0.03,0.02,0.02,-0.02,-0.01,
0.294,0.18,0.03,0.02,0.02,-0.03,-0.01,
0.296,0.18,0.03,0.02,0.02,-0.02,-0.02,
0.296,0.21,0.03,0.04,0.02,-0.02,-0.02,
0.299,0.21,0.03,0.04,0.03,-0.02,-0.02,
0.301,0.21,0.03,0.04,0.03,-0.01,-0.02,
0.301,0.21,0.02,0.03,0.03,-0.01,-0.02,
0.305,0.21,0.02,0.03,0.03,-0.01,-0.02,
0.306,0.21,-0.01,-0.02,0.03,-0.01,-0.02,
0.306,0.21,-0.01,-0.02,0.03,-0.01,-0.03,
0.309,0.21,-0.01,-0.02,0.03,-0.01,-0.03,
0.311,0.11,-0.03,-0.06,0.03,-0.01,-0.03,
0.311,0.11,-0.03,-0.06,0.03,-0.00,-0.04,
0.314,0.11,-0.03,-0.06,0.03,0.00,-0.04,
0.316,-0.00,-0.02,-0.05,0.03,0.00,-0.04,
0.327,-0.00,-0.02,-0.05,0.03,0.00,-0.04,
0.327,-0.00,-0.02,-0.05,0.03,0.01,-0.04,
0.327,-0.00,-0.02,-0.05,0.03,0.01,-0.03,
0.328,-0.11,-0.00,-0.01,0.03,0.01,-0.03,
0.328,-0.11,-0.00,-0.01,0.03,0.00,-0.03,
0.328,-0.11,-0.00,-0.01,0.03,0.00,-0.03,
0.328,-0.15,0.01,-0.03,0.03,0.00,-0.03,
0.328,-0.15,0.01,-0.03,0.03,-0.00,-0.03,
0.331,-0.15,0.01,-0.03,0.03,-0.01,-0.03,
0.331,-0.17,0.02,-0.02,0.03,-0.01,-0.03,
0.333,-0.17,0.02,-0.02,0.03,-0.01,-0.02,
0.336,-0.13,0.02,0.00,0.03,-0.01,-0.02,
0.336,-0.13,0.02,0.00,0.03,-0.02,-0.02,
0.339,-0.13,0.02,0.00,0.03,-0.02,-0.02,
0.341,-0.09,0.00,0.01,0.03,-0.02,-0.02,
0.341,-0.09,0.00,0.01,0.03,-0.02,-0.02,
0.344,-0.09,0.00,0.01,0.03,-0.03,-0.02,
0.346,-0.09,0.00,0.01,0.03,-0.03,-0.02,
0.346,-0.05,-0.02,0.03,0.03,-0.03,-0.02,
0.348,-0.05,-0.02,0.03,0.04,-0.02,-0.02,
0.35,0.03,0.00,0.06,0.04,-0.02,-0.02,
0.351,0.03,0.00,0.06,0.04,-0.02,-0.02,
0.354,0.03,0.00,0.06,0.04,-0.02,-0.02,
0.356,0.03,0.00,0.06,0.04,-0.02,-0.02,
0.356,0.09,-0.02,0.04,0.04,-0.02,-0.02,
0.358,0.09,-0.02,0.04,0.04,-0.01,-0.02,
0.362,0.09,-0.02,0.04,0.04,-0.01,-0.02,
0.362,0.13,-0.04,-0.04,0.04,-0.01,-0.02,
0.363,0.13,-0.04,-0.04,0.04,-0.01,-0.03,
0.365,0.13,-0.04,-0.04,0.04,-0.01,-0.03,
0.365,0.11,-0.05,-0.07,0.04,-0.01,-0.03,
0.368,0.11,-0.05,-0.07,0.04,-0.00,-0.03,
0.371,0.03,-0.02,0.03,0.04,-0.00,-0.03,
0.371,0.03,-0.02,0.03,0.04,-0.00,-0.03,
0.374,0.03,-0.02,0.03,0.04,-0.00,-0.03,
0.375,0.03,-0.02,0.03,0.04,-0.00,-0.03,
0.375,-0.03,-0.04,0.06,0.04,-0.00,-0.03,
0.378,-0.03,-0.04,0.06,0.04,-0.00,-0.03,
0.38,-0.03,-0.04,0.06,0.04,-0.01,-0.02,
0.38,-0.09,0.02,0.08,0.04,-0.01,-0.02,
0.383,-0.09,0.02,0.08,0.04,-0.01,-0.02,
0.385,-0.09,0.02,0.08,0.04,-0.02,-0.02,
0.385,-0.15,0.01,0.10,0.04,-0.02,-0.02,
0.388,-0.15,0.01,0.10,0.05,-0.02,-0.02,
0.39,-0.15,0.01,0.10,0.05,-0.03,-0.02,
0.39,-0.14,-0.01,0.06,0.05,-0.03,-0.02,
0.393,-0.14,-0.01,0.06,0.05,-0.03,-0.02,
0.395,-0.14,-0.01,0.06,0.05,-0.04,-0.02,
0.395,-0.08,-0.04,0.08,0.05,-0.04,-0.02,
0.398,-0.08,-0.04,0.08,0.05,-0.04,-0.02,
0.4,-0.08,-0.04,0.08,0.05,-0.04,-0.02,
0.4,0.08,-0.01,0.16,0.05,-0.04,-0.02,
0.403,0.08,-0.01,0.16,0.05,-0.04,-0.02,
0.405,0.18,0.01,0.19,0.05,-0.04,-0.02,
0.406,0.18,0.01,0.19,0.05,-0.03,-0.03,
0.407,0.18,0.01,0.19,0.05,-0.03,-0.03,
0.41,0.28,0.02,0.14,0.05,-0.03,-0.03,
0.41,0.28,0.02,0.14,0.06,-0.02,-0.03,
0.412,0.28,0.02,0.14,0.06,-0.02,-0.04,
0.415,0.35,-0.02,0.10,0.06,-0.02,-0.04,
0.415,0.35,-0.02,0.10,0.06,-0.02,-0.04,
0.417,0.35,-0.02,0.10,0.06,-0.01,-0.04,
0.421,0.35,-0.02,0.10,0.06,-0.00,-0.05,
0.421,0.29,-0.03,0.03,0.06,-0.00,-0.05,
0.422,0.29,-0.03,0.03,0.06,0.00,-0.05,
0.425,0.15,-0.01,-0.00,0.06,0.00,-0.05,
0.425,0.15,-0.01,-0.00,0.07,0.01,-0.05,
0.43,0.15,-0.01,-0.00,0.06,0.01,-0.05,
0.43,-0.06,0.04,-0.05,0.06,0.01,-0.05,
0.43,-0.06,0.04,-0.05,0.06,0.01,-0.05,
0.434,-0.06,0.04,-0.05,0.06,0.01,-0.05,
0.436,-0.21,0.10,-0.07,0.06,0.01,-0.05,
0.436,-0.21,0.10,-0.07,0.06,0.01,-0.05,
0.438,-0.21,0.10,-0.07,0.06,0.01,-0.05,
0.44,-0.26,0.10,-0.09,0.06,0.01,-0.05,
0.44,-0.26,0.10,-0.09,0.06,0.01,-0.04,
0.442,-0.26,0.10,-0.09,0.05,0.00,-0.04,
0.445,-0.19,0.04,-0.12,0.05,0.00,-0.04,
0.445,-0.19,0.04,-0.12,0.05,-0.00,-0.04,
0.447,-0.19,0.04,-0.12,0.05,-0.00,-0.04,
0.45,-0.06,-0.05,-0.10,0.05,-0.00,-0.04,
0.45,-0.06,-0.05,-0.10,0.05,-0.00,-0.03,
0.452,-0.06,-0.05,-0.10,0.05,-0.00,-0.03,
0.455,-0.06,-0.05,-0.10,0.05,0.00,-0.04,
0.455,0.06,-0.10,-0.06,0.05,0.00,-0.04,
0.458,0.06,-0.10,-0.06,0.05,0.01,-0.04,
0.46,0.15,-0.14,0.02,0.05,0.01,-0.04,
0.46,0.15,-0.14,0.02,0.05,0.02,-0.04,
0.462,0.15,-0.14,0.02,0.05,0.02,-0.04,
0.465,0.21,-0.12,0.06,0.05,0.02,-0.04,
0.465,0.21,-0.12,0.06,0.05,0.03,-0.04,
0.467,0.21,-0.12,0.06,0.05,0.04,-0.05,
0.469,0.21,-0.12,0.06,0.05,0.05,-0.05,
0.47,0.12,-0.06,0.02,0.05,0.05,-0.05,
0.474,0.12,-0.06,0.02,0.05,0.06,-0.05,
0.475,0.10,0.02,0.05,0.05,0.06,-0.05,
0.475,0.10,0.02,0.05,0.05,0.07,-0.05,
0.477,0.10,0.02,0.05,0.05,0.07,-0.05,
0.479,0.10,0.02,0.05,0.05,0.08,-0.05,
0.48,0.01,0.07,0.02,0.05,0.08,-0.05,
0.494,0.01,0.07,0.02,0.05,0.08,-0.05,
0.495,0.01,0.07,0.02,0.05,0.08,-0.05,
0.495,-0.06,0.03,0.05,0.05,0.08,-0.05,
0.495,-0.06,0.03,0.05,0.05,0.07,-0.05,
0.495,-0.09,-0.04,0.06,0.05,0.07,-0.05,
0.495,-0.09,-0.04,0.06,0.05,0.07,-0.05,
0.496,-0.09,-0.04,0.06,0.06,0.06,-0.05,
0.496,-0.08,-0.07,0.06,0.06,0.06,-0.05,
0.496,-0.08,-0.07,0.06,0.06,0.06,-0.05,
0.499,-0.08,-0.07,0.06,0.06,0.06,-0.04,
0.5,-0.11,-0.06,-0.00,0.06,0.06,-0.04,
0.5,-0.11,-0.06,-0.00,0.06,0.05,-0.04,
0.502,-0.11,-0.06,-0.00,0.06,0.05,-0.04,
0.505,-0.11,-0.06,-0.00,0.05,0.05,-0.04,
0.505,-0.13,-0.05,-0.01,0.05,0.05,-0.04,
0.507,-0.13,-0.05,-0.01,0.05,0.05,-0.04,
0.509,-0.12,-0.02,0.04,0.05,0.05,-0.04,
0.51,-0.12,-0.02,0.04,0.06,0.04,-0.04,
0.512,-0.12,-0.02,0.04,0.05,0.04,-0.03,
0.514,-0.13,0.00,0.06,0.05,0.04,-0.03,
0.514,-0.13,0.00,0.06,0.06,0.03,-0.03,
0.516,-0.13,0.00,0.06,0.06,0.02,-0.03,
0.519,-0.13,0.00,0.06,0.06,0.01,-0.03,
0.52,-0.08,-0.01,0.04,0.06,0.01,-0.03,
0.522,-0.08,-0.01,0.04,0.06,0.01,-0.03,
0.525,0.02,-0.04,-0.01,0.06,0.01,-0.03,
0.525,0.02,-0.04,-0.01,0.06,0.00,-0.03,
0.527,0.02,-0.04,-0.01,0.06,0.00,-0.03,
0.529,0.02,-0.04,-0.01,0.06,0.00,-0.03,
0.529,0.11,-0.02,-0.05,0.06,0.00,-0.03,
0.531,0.11,-0.02,-0.05,0.05,0.01,-0.03,
0.534,0.11,-0.02,-0.05,0.05,0.01,-0.03,
0.534,0.15,-0.03,-0.03,0.05,0.01,-0.03,
0.536,0.15,-0.03,-0.03,0.05,0.01,-0.04,
0.54,0.15,-0.03,-0.03,0.05,0.01,-0.04,
0.54,0.22,-0.08,-0.04,0.05,0.01,-0.04,
0.542,0.22,-0.08,-0.04,0.05,0.02,-0.05,
0.544,0.22,-0.08,-0.04,0.06,0.02,-0.05,
0.544,0.29,-0.08,0.09,0.06,0.02,-0.05,
0.546,0.29,-0.08,0.09,0.06,0.03,-0.06,
0.549,0.29,-0.08,0.09,0.06,0.04,-0.05,
0.549,0.14,-0.03,-0.00,0.06,0.04,-0.05,
0.551,0.14,-0.03,-0.00,0.06,0.05,-0.05,
0.555,-0.01,0.03,-0.19,0.06,0.05,-0.05,
0.555,-0.01,0.03,-0.19,0.06,0.05,-0.05,
0.557,-0.01,0.03,-0.19,0.06,0.06,-0.05,
0.559,-0.01,0.03,-0.19,0.05,0.06,-0.05,
0.559,-0.19,0.06,-0.20,0.05,0.06,-0.05,
0.561,-0.19,0.06,-0.20,0.05,0.05,-0.04,
0.564,-0.19,0.06,-0.20,0.05,0.04,-0.04,
0.564,-0.28,0.05,-0.11,0.05,0.04,-0.04,
0.566,-0.28,0.05,-0.11,0.05,0.03,-0.04,
0.569,-0.28,0.05,-0.11,0.05,0.02,-0.03,
0.569,-0.31,0.02,0.04,0.05,0.02,-0.03,
0.572,-0.31,0.02,0.04,0.05,0.01,-0.03,
0.574,-0.31,0.02,0.04,0.05,-0.00,-0.03,
0.574,-0.29,-0.03,0.17,0.05,-0.00,-0.03,
0.577,-0.29,-0.03,0.17,0.06,-0.01,-0.02,
0.579,-0.29,-0.03,0.17,0.06,-0.02,-0.02,
0.579,-0.23,-0.08,0.26,0.06,-0.02,-0.02,
0.581,-0.23,-0.08,0.26,0.07,-0.03,-0.02,
0.584,-0.23,-0.08,0.26,0.07,-0.04,-0.02,
0.584,-0.15,-0.10,0.30,0.07,-0.04,-0.02,
0.586,-0.15,-0.10,0.30,0.07,-0.05,-0.02,
0.589,-0.02,-0.04,0.29,0.07,-0.05,-0.02,
0.59,-0.02,-0.04,0.29,0.08,-0.05,-0.01,
0.592,-0.02,-0.04,0.29,0.08,-0.06,-0.02,
0.594,-0.02,-0.04,0.29,0.09,-0.06,-0.02,
0.594,0.11,0.01,0.24,0.09,-0.06,-0.02,
0.596,0.11,0.01,0.24,0.09,-0.06,-0.02,
0.599,0.20,0.09,0.20,0.09,-0.06,-0.02,
0.6,0.20,0.09,0.20,0.10,-0.05,-0.02,
0.601,0.20,0.09,0.20,0.10,-0.04,-0.03,
0.604,0.20,0.09,0.20,0.11,-0.04,-0.03,
0.606,0.20,0.13,0.12,0.11,-0.04,-0.03,
0.608,0.20,0.13,0.12,0.11,-0.03,-0.03,
0.609,0.20,0.13,0.12,0.11,-0.03,-0.03,
0.609,0.15,0.13,0.10,0.11,-0.03,-0.03,
0.611,0.15,0.13,0.10,0.11,-0.03,-0.03,
0.614,0.15,0.13,0.10,0.11,-0.03,-0.04,
0.614,0.04,0.09,0.03,0.11,-0.03,-0.04,
0.616,0.04,0.09,0.03,0.12,-0.03,-0.03,
0.619,-0.06,0.06,-0.05,0.12,-0.03,-0.03,
0.619,-0.06,0.06,-0.05,0.11,-0.03,-0.03,
0.624,-0.06,0.06,-0.05,0.11,-0.03,-0.03,
0.624,-0.06,0.02,-0.12,0.11,-0.03,-0.03,
0.625,-0.06,0.02,-0.12,0.11,-0.03,-0.03,
0.631,-0.06,0.02,-0.12,0.11,-0.03,-0.03,
0.631,-0.06,0.02,-0.12,0.10,-0.03,-0.03,
0.631,0.01,-0.01,-0.20,0.10,-0.03,-0.03,
0.632,0.01,-0.01,-0.20,0.10,-0.03,-0.03,
0.633,0.01,-0.01,-0.20,0.10,-0.02,-0.03,
0.634,0.07,-0.03,-0.22,0.10,-0.02,-0.03,
0.636,0.07,-0.03,-0.22,0.09,-0.02,-0.03,
0.64,0.07,-0.03,-0.22,0.09,-0.01,-0.04,
0.641,0.16,-0.01,-0.25,0.09,-0.01,-0.04,
0.645,0.24,0.01,-0.24,0.09,-0.01,-0.04,
0.645,0.24,0.01,-0.24,0.09,-0.01,-0.04,
0.645,0.24,0.01,-0.24,0.08,0.00,-0.04,
0.645,0.24,0.01,-0.24,0.08,0.01,-0.05,
0.668,0.24,0.01,-0.24,0.08,0.02,-0.05,
0.668,0.21,0.05,-0.22,0.08,0.02,-0.05,
0.669,0.21,0.05,-0.22,0.08,0.03,-0.05,
0.669,0.21,0.05,-0.22,0.08,0.04,-0.05,
0.669,0.09,0.03,-0.14,0.08,0.04,-0.05,
0.669,0.09,0.03,-0.14,0.08,0.05,-0.05,
0.669,0.09,0.03,-0.14,0.08,0.05,-0.05,
0.669,-0.09,0.01,-0.10,0.08,0.05,-0.05,
0.669,-0.09,0.01,-0.10,0.08,0.06,-0.05,
0.67,-0.09,0.01,-0.10,0.08,0.05,-0.04,
0.67,-0.28,0.02,-0.07,0.08,0.05,-0.04,
0.67,-0.28,0.02,-0.07,0.07,0.05,-0.04,
0.67,-0.28,0.02,-0.07,0.07,0.04,-0.03,
0.67,-0.39,0.03,-0.05,0.07,0.04,-0.03,
0.67,-0.39,0.03,-0.05,0.07,0.02,-0.03,
0.675,-0.39,0.03,-0.05,0.07,0.01,-0.02,
0.675,-0.41,0.04,-0.02,0.07,0.01,-0.02,
0.676,-0.41,0.04,-0.02,0.07,-0.02,-0.01,
0.678,-0.41,0.04,-0.02,0.07,-0.04,-0.01,
0.679,-0.40,0.04,0.03,0.07,-0.04,-0.01,
0.68,-0.40,0.04,0.03,0.07,-0.06,-0.00,
0.683,-0.40,0.04,0.03,0.07,-0.07,0.00,
0.683,-0.39,0.04,0.02,0.07,-0.07,0.00,
0.685,-0.39,0.04,0.02,0.07,-0.09,0.01,
0.69,-0.39,0.04,0.02,0.07,-0.10,0.01,
0.691,-0.31,0.03,0.03,0.07,-0.10,0.01,
0.691,-0.31,0.03,0.03,0.07,-0.11,0.01,
0.693,-0.31,0.03,0.03,0.07,-0.12,0.02,
0.693,-0.20,-0.03,-0.02,0.07,-0.12,0.02,
0.695,-0.20,-0.03,-0.02,0.07,-0.12,0.02,
0.698,-0.20,-0.03,-0.02,0.07,-0.12,0.02,
0.698,-0.10,-0.07,-0.07,0.07,-0.12,0.02,
0.7,-0.10,-0.07,-0.07,0.07,-0.12,0.02,
0.703,-0.10,-0.07,-0.07,0.07,-0.12,0.02,
0.703,-0.01,-0.09,-0.08,0.07,-0.12,0.02,
0.705,-0.01,-0.09,-0.08,0.07,-0.12,0.03,
0.708,-0.01,-0.09,-0.08,0.06,-0.12,0.03,
0.708,0.03,-0.08,-0.08,0.06,-0.12,0.03,
0.711,0.03,-0.08,-0.08,0.06,-0.12,0.03,
0.713,0.03,-0.08,-0.08,0.06,-0.12,0.03,
0.714,0.09,0.01,-0.05,0.06,-0.12,0.03,
0.716,0.09,0.01,-0.05,0.06,-0.12,0.03,
0.719,0.09,0.01,-0.05,0.06,-0.12,0.03,
0.719,0.09,0.05,-0.00,0.06,-0.12,0.03,
0.72,0.09,0.05,-0.00,0.06,-0.12,0.02,
0.729,0.12,0.05,-0.02,0.06,-0.12,0.02,
0.73,0.13,0.02,-0.05,0.06,-0.12,0.02,
0.73,0.13,0.02,-0.05,0.06,-0.11,0.02,
0.73,0.13,0.02,-0.05,0.06,-0.10,0.02,
0.73,0.13,0.02,-0.05,0.06,-0.10,0.02,
0.73,0.13,0.02,-0.05,0.06,-0.09,0.01,
0.733,0.13,0.02,-0.05,0.06,-0.08,0.01,
0.733,0.09,-0.02,-0.06,0.06,-0.08,0.01,
0.735,0.09,-0.02,-0.06,0.06,-0.08,0.01,
0.74,0.02,-0.06,-0.04,0.06,-0.08,0.01,
0.74,0.02,-0.06,-0.04,0.06,-0.07,0.01,
0.741,0.02,-0.06,-0.04,0.06,-0.06,0.01,
0.742,0.02,-0.06,-0.04,0.06,-0.06,0.01,
0.743,0.00,-0.07,-0.02,0.06,-0.06,0.01,
0.745,0.00,-0.07,-0.02,0.06,-0.06,0.01,
0.747,0.00,-0.07,-0.02,0.06,-0.06,0.01,
0.747,0.11,0.03,-0.04,0.06,-0.06,0.01,
0.75,0.11,0.03,-0.04,0.06,-0.06,0.01,
0.753,0.19,0.11,-0.03,0.06,-0.06,0.01,
0.753,0.19,0.11,-0.03,0.06,-0.06,0.01,
0.756,0.19,0.11,-0.03,0.06,-0.05,0.00,
0.757,0.28,0.05,-0.02,0.06,-0.05,0.00,
0.758,0.28,0.05,-0.02,0.06,-0.05,-0.00,
0.76,0.28,0.05,-0.02,0.06,-0.04,-0.01,
0.762,0.28,-0.12,-0.04,0.06,-0.04,-0.01,
0.763,0.28,-0.12,-0.04,0.06,-0.04,-0.01,
0.765,0.28,-0.12,-0.04,0.06,-0.04,-0.02,
0.767,0.28,-0.12,-0.04,0.05,-0.04,-0.02,
0.768,0.29,-0.23,-0.00,0.05,-0.04,-0.02,
0.77,0.29,-0.23,-0.00,0.05,-0.03,-0.02,
0.774,0.29,-0.23,-0.00,0.06,-0.02,-0.03,
0.775,0.42,-0.14,0.02,0.06,-0.02,-0.03,
0.775,0.42,-0.14,0.02,0.05,-0.02,-0.03,
0.778,0.11,0.01,-0.00,0.05,-0.02,-0.03,
0.778,0.11,0.01,-0.00,0.05,-0.02,-0.03,
0.78,0.11,0.01,-0.00,0.05,-0.02,-0.03,
0.782,-0.16,0.10,0.04,0.05,-0.02,-0.03,
0.783,-0.16,0.10,0.04,0.05,-0.01,-0.03,
0.785,-0.16,0.10,0.04,0.06,-0.00,-0.03,
0.787,-0.16,0.10,0.04,0.06,-0.01,-0.02,
0.787,-0.18,0.07,0.01,0.06,-0.01,-0.02,
0.79,-0.18,0.07,0.01,0.06,-0.01,-0.02,
0.793,-0.18,0.07,0.01,0.06,-0.02,-0.02,
0.794,-0.19,0.12,-0.08,0.06,-0.02,-0.02,
0.795,-0.19,0.12,-0.08,0.05,-0.03,-0.02,
0.797,-0.24,0.16,-0.11,0.05,-0.03,-0.02,
0.798,-0.24,0.16,-0.11,0.05,-0.04,-0.01,
0.8,-0.24,0.16,-0.11,0.05,-0.05,-0.01,
0.802,-0.24,0.16,-0.11,0.05,-0.05,-0.01,
0.803,-0.23,0.15,-0.09,0.05,-0.05,-0.01,
0.805,-0.23,0.15,-0.09,0.05,-0.05,-0.00,
0.807,-0.14,0.08,-0.11,0.05,-0.05,-0.00,
0.808,-0.14,0.08,-0.11,0.04,-0.05,-0.00,
0.81,-0.14,0.08,-0.11,0.04,-0.06,0.00,
0.813,-0.03,-0.01,-0.04,0.04,-0.06,0.00,
0.834,-0.03,-0.01,-0.04,0.04,-0.06,0.00,
0.834,-0.03,-0.01,-0.04,0.04,-0.06,0.00,
0.834,-0.03,-0.01,-0.04,0.04,-0.05,-0.00,
0.834,0.03,-0.15,-0.11,0.04,-0.05,-0.00,
0.834,0.03,-0.15,-0.11,0.04,-0.04,-0.00,
0.835,-0.00,-0.31,-0.04,0.04,-0.04,-0.00,
0.835,-0.00,-0.31,-0.04,0.04,-0.04,-0.00,
0.835,-0.00,-0.31,-0.04,0.04,-0.04,-0.00,
0.835,-0.00,-0.31,-0.04,0.04,-0.05,0.00,
0.836,-0.08,-0.39,0.17,0.04,-0.05,0.00,
0.836,-0.08,-0.39,0.17,0.05,-0.06,0.00,
0.836,-0.08,-0.39,0.17,0.05,-0.06,0.00,
0.836,-0.15,-0.38,0.09,0.05,-0.06,0.00,
0.837,-0.15,-0.38,0.09,0.05,-0.06,0.00,
0.837,-0.33,-0.39,-0.03,0.05,-0.06,0.00,
0.837,-0.33,-0.39,-0.03,0.05,-0.04,0.01,
0.846,-0.33,-0.39,-0.03,0.05,-0.06,0.02,
0.847,-0.33,-0.39,-0.03,0.05,-0.09,0.03,
0.847,-0.45,-0.43,0.27,0.05,-0.09,0.03,
0.847,-0.45,-0.43,0.27,0.05,-0.13,0.03,
0.849,-0.45,-0.43,0.27,0.06,-0.17,0.03,
0.85,-0.45,-0.43,0.27,0.07,-0.21,0.03,
0.85,-0.64,-0.16,0.59,0.07,-0.21,0.03,
0.852,-0.72,0.11,0.42,0.07,-0.21,0.03,
0.852,-0.72,0.11,0.42,0.07,-0.22,0.04,
0.854,-0.72,0.11,0.42,0.07,-0.23,0.05,
0.858,-0.49,0.22,0.10,0.07,-0.23,0.05,
0.859,-0.49,0.22,0.10,0.07,-0.23,0.05,
0.86,-0.49,0.22,0.10,0.07,-0.22,0.06,
0.862,-0.49,0.22,0.10,0.07,-0.21,0.07,
0.863,-0.17,0.15,-0.18,0.07,-0.21,0.07,
0.865,-0.17,0.15,-0.18,0.07,-0.19,0.07,
0.868,-0.17,0.15,-0.18,0.06,-0.17,0.08,
0.868,0.23,-0.05,-0.29,0.06,-0.17,0.08,
0.87,0.23,-0.05,-0.29,0.06,-0.14,0.08,
0.875,0.23,-0.05,-0.29,0.05,-0.11,0.07,
0.875,0.23,-0.05,-0.29,0.05,-0.07,0.06,
0.876,0.70,-0.10,-0.36,0.05,-0.07,0.06,
0.877,0.70,-0.10,-0.36,0.04,-0.04,0.04,
0.877,1.08,-0.01,-0.19,0.04,-0.04,0.04,
0.879,1.08,-0.01,-0.19,0.05,-0.01,0.03,
0.881,1.08,-0.01,-0.19,0.05,0.01,0.01,
0.882,1.17,0.18,-0.05,0.05,0.01,0.01,
0.883,1.17,0.18,-0.05,0.05,0.04,-0.00,
0.886,1.17,0.18,-0.05,0.05,0.07,-0.01,
0.886,1.03,0.30,-0.15,0.05,0.07,-0.01,
0.89,1.03,0.30,-0.15,0.04,0.10,-0.02,
0.891,1.03,0.30,-0.15,0.05,0.12,-0.03,
0.892,0.64,0.50,-0.16,0.05,0.12,-0.03,
0.893,0.64,0.50,-0.16,0.04,0.14,-0.04,
0.896,0.64,0.50,-0.16,0.05,0.14,-0.04,
0.897,0.27,0.56,0.10,0.05,0.14,-0.04,
0.899,0.27,0.56,0.10,0.04,0.12,-0.04,
0.901,0.27,0.56,0.10,0.05,0.11,-0.05,
0.902,0.04,0.66,0.15,0.05,0.11,-0.05,
0.903,0.04,0.66,0.15,0.05,0.09,-0.05,
0.908,-0.11,0.56,0.09,0.05,0.09,-0.05,
0.908,-0.11,0.56,0.09,0.06,0.07,-0.05,
0.909,-0.11,0.56,0.09,0.06,0.07,-0.04,
0.911,0.09,0.71,-0.13,0.06,0.07,-0.04,
0.912,0.09,0.71,-0.13,0.06,0.07,-0.04,
0.913,0.09,0.71,-0.13,0.06,0.07,-0.04,
0.916,0.09,0.71,-0.13,0.06,0.08,-0.05,
0.917,0.60,0.35,-0.16,0.06,0.08,-0.05,
0.918,0.60,0.35,-0.16,0.06,0.10,-0.07,
0.921,0.60,0.35,-0.16,0.05,0.10,-0.10,
0.921,0.88,-0.45,-0.16,0.05,0.10,-0.10,
0.93,0.88,-0.45,-0.16,0.05,0.09,-0.12,
0.931,0.44,-0.71,-0.08,0.05,0.09,-0.12,
0.931,0.44,-0.71,-0.08,0.05,0.07,-0.13,
0.931,0.44,-0.71,-0.08,0.05,0.06,-0.14,
0.936,-0.23,-0.65,-0.18,0.05,0.06,-0.14,
0.936,-0.23,-0.65,-0.18,0.04,0.07,-0.12,
0.937,-0.23,-0.65,-0.18,0.04,0.09,-0.10,
0.937,-0.23,-0.65,-0.18,0.04,0.09,-0.08,
0.938,-0.68,-0.33,-0.02,0.04,0.09,-0.08,
0.944,-0.68,-0.33,-0.02,0.04,0.09,-0.06,
0.945,-0.68,-0.33,-0.02,0.05,0.07,-0.05,
0.945,-0.62,-0.07,0.24,0.05,0.07,-0.05,
0.945,-0.62,-0.07,0.24,0.05,0.03,-0.05,
0.946,-0.62,-0.07,0.24,0.05,0.00,-0.05,
0.946,-0.46,-0.09,0.18,0.05,0.00,-0.05,
0.948,-0.46,-0.09,0.18,0.05,-0.02,-0.05,
0.951,-0.46,-0.09,0.18,0.05,-0.04,-0.04,
0.951,-0.50,0.03,-0.12,0.05,-0.04,-0.04,
0.953,-0.50,0.03,-0.12,0.04,-0.04,-0.03,
0.957,-0.50,0.03,-0.12,0.03,-0.04,-0.02,
0.958,-0.33,-0.03,-0.38,0.03,-0.04,-0.02,
0.958,-0.33,-0.03,-0.38,0.03,-0.04,-0.01,
0.961,-0.33,-0.03,-0.38,0.03,-0.05,-0.00,
0.961,-0.13,-0.23,-0.03,0.03,-0.05,-0.00,
0.963,-0.13,-0.23,-0.03,0.03,-0.06,-0.00,
0.966,-0.13,-0.23,-0.03,0.03,-0.07,-0.01,
0.966,0.12,-0.23,0.08,0.03,-0.07,-0.01,
0.975,0.12,-0.23,0.08,0.04,-0.08,-0.02,
0.975,0.12,-0.23,0.08,0.04,-0.08,-0.02,
0.975,0.12,-0.23,0.08,0.04,-0.08,-0.02,
0.976,0.27,0.09,0.06,0.04,-0.08,-0.02,
0.976,0.27,0.09,0.06,0.04,-0.07,-0.03,
0.976,0.32,0.61,-0.05,0.04,-0.07,-0.03,
1.002,0.32,0.61,-0.05,0.04,-0.05,-0.03,
1.002,0.32,0.61,-0.05,0.04,-0.03,-0.03,
1.003,0.30,0.73,-0.02,0.04,-0.03,-0.03,
1.003,0.30,0.73,-0.02,0.04,-0.03,-0.04,
1.003,0.30,0.73,-0.02,0.04,-0.04,-0.03,
1.004,-0.04,0.24,0.28,0.04,-0.04,-0.03,
1.004,-0.04,0.24,0.28,0.05,-0.08,-0.02,
1.005,-0.04,0.24,0.28,0.05,-0.11,-0.01,
1.005,-0.31,-0.40,0.40,0.05,-0.11,-0.01,
1.006,-0.31,-0.40,0.40,0.06,-0.12,-0.01,
1.006,-0.31,-0.40,0.40,0.06,-0.09,-0.02,
1.007,-0.19,-0.25,0.11,0.06,-0.09,-0.02,
1.007,-0.19,-0.25,0.11,0.07,-0.02,-0.02,
1.008,-0.19,-0.25,0.11,0.07,0.07,-0.03,
1.008,0.00,0.20,0.09,0.07,0.07,-0.03,
1.008,0.00,0.20,0.09,0.08,0.14,-0.04,
1.009,0.11,0.16,0.48,0.08,0.14,-0.04,
1.009,0.11,0.16,0.48,0.08,0.15,-0.04,
1.011,0.11,0.16,0.48,0.09,0.13,-0.03,
1.012,0.09,-0.12,0.47,0.09,0.13,-0.03,
1.012,0.09,-0.12,0.47,0.09,0.10,-0.03,
1.014,0.09,-0.12,0.47,0.10,0.07,-0.03,
1.015,0.01,-0.27,0.21,0.10,0.07,-0.03,
1.015,0.01,-0.27,0.21,0.10,0.05,-0.03,
1.017,0.01,-0.27,0.21,0.10,0.05,-0.03,
1.02,0.01,-0.27,0.21,0.11,0.04,-0.03,
1.02,-0.11,-0.35,0.14,0.11,0.04,-0.03,
1.024,-0.11,-0.35,0.14,0.11,0.04,-0.02,
1.025,-0.11,-0.35,0.14,0.11,0.04,-0.02,
1.025,-0.14,-0.29,0.22,0.11,0.04,-0.02,
1.027,-0.14,-0.29,0.22,0.11,0.04,-0.02,
1.03,-0.14,-0.29,0.22,0.12,0.03,-0.02,
1.031,-0.18,-0.16,0.42,0.12,0.03,-0.02,
1.036,-0.18,-0.16,0.42,0.12,0.02,-0.01,
1.036,-0.18,-0.16,0.42,0.13,0.01,-0.02,
1.036,-0.16,-0.04,0.55,0.13,0.01,-0.02,
1.037,-0.16,-0.04,0.55,0.14,-0.00,-0.02,
1.042,-0.17,-0.02,0.58,0.14,-0.00,-0.02,
1.043,-0.17,-0.02,0.58,0.15,-0.01,-0.01,
1.043,-0.17,-0.02,0.58,0.16,-0.03,-0.01,
1.045,-0.23,-0.06,0.49,0.16,-0.03,-0.01,
1.045,-0.23,-0.06,0.49,0.16,-0.04,-0.01,
1.047,-0.23,-0.06,0.49,0.17,-0.05,-0.01,
1.051,-0.19,-0.07,0.34,0.17,-0.05,-0.01,
1.051,-0.19,-0.07,0.34,0.17,-0.06,-0.01,
1.057,-0.19,-0.07,0.34,0.18,-0.07,-0.00,
1.058,-0.19,-0.07,0.34,0.18,-0.07,-0.00,
1.058,-0.11,-0.05,0.22,0.18,-0.07,-0.00,
1.059,-0.11,-0.05,0.22,0.18,-0.08,0.00,
1.061,-0.11,-0.05,0.22,0.19,-0.08,0.00,
1.061,-0.02,-0.01,0.13,0.19,-0.08,0.00,
1.063,-0.02,-0.01,0.13,0.19,-0.07,0.00,
1.066,0.10,-0.04,0.03,0.19,-0.07,0.00,
1.067,0.10,-0.04,0.03,0.19,-0.07,0.00,
1.069,0.10,-0.04,0.03,0.19,-0.07,0.00,
1.071,0.10,-0.04,0.03,0.19,-0.06,0.00,
1.075,0.18,-0.08,-0.01,0.19,-0.06,0.00,
1.076,0.18,-0.08,-0.01,0.19,-0.05,-0.00,
1.084,0.22,-0.08,0.04,0.19,-0.05,-0.00,
1.084,0.26,-0.02,0.14,0.19,-0.05,-0.00,
1.084,0.26,-0.02,0.14,0.19,-0.04,-0.00,
1.084,0.26,-0.02,0.14,0.19,-0.03,-0.01,
1.084,0.26,-0.02,0.14,0.19,-0.03,-0.01,
1.084,0.26,-0.02,0.14,0.20,-0.02,-0.02,
1.084,0.23,0.03,0.12,0.20,-0.02,-0.02,
1.085,0.23,0.03,0.12,0.20,-0.02,-0.02,
1.091,0.23,0.03,0.12,0.21,-0.01,-0.02,
1.091,0.23,0.03,0.12,0.21,-0.00,-0.02,
1.091,0.15,0.06,0.02,0.21,-0.00,-0.02,
1.095,0.15,0.06,0.02,0.21,0.00,-0.03,
1.096,0.15,0.06,0.02,0.21,0.01,-0.03,
1.096,0.09,0.05,-0.09,0.21,0.01,-0.03,
1.097,0.09,0.05,-0.09,0.21,0.01,-0.02,
1.1,0.04,-0.01,-0.07,0.21,0.01,-0.02,
1.1,0.04,-0.01,-0.07,0.21,0.02,-0.03,
1.102,0.04,-0.01,-0.07,0.21,0.02,-0.03,
1.105,0.04,-0.05,0.06,0.21,0.02,-0.03,
1.105,0.04,-0.05,0.06,0.21,0.03,-0.03,
1.108,0.04,-0.05,0.06,0.21,0.03,-0.03,
1.11,-0.03,-0.05,0.11,0.21,0.03,-0.03,
1.111,-0.03,-0.05,0.11,0.21,0.02,-0.03,
1.114,-0.03,-0.05,0.11,0.22,0.02,-0.03,
1.116,-0.03,-0.05,0.11,0.22,0.03,-0.03,
1.117,-0.03,-0.05,0.11,0.21,0.04,-0.02,
1.117,-0.06,0.01,-0.05,0.21,0.04,-0.02,
1.12,-0.06,0.01,-0.05,0.21,0.04,-0.02,
1.121,-0.03,0.06,0.02,0.21,0.04,-0.02,
1.125,-0.03,0.06,0.02,0.21,0.03,-0.02,
1.126,-0.03,0.06,0.02,0.21,0.01,-0.02,
1.126,-0.07,0.06,0.11,0.21,0.01,-0.02,
1.127,-0.07,0.06,0.11,0.21,-0.01,-0.02,
1.13,-0.07,0.06,0.11,0.22,-0.02,-0.02,
1.13,-0.24,-0.02,0.10,0.22,-0.02,-0.02,
1.132,-0.24,-0.02,0.10,0.22,-0.02,-0.02,
1.135,-0.33,-0.08,0.02,0.22,-0.02,-0.02,
1.135,-0.33,-0.08,0.02,0.22,-0.03,-0.01,
1.137,-0.33,-0.08,0.02,0.22,-0.04,-0.01,
1.145,-0.33,-0.10,-0.04,0.22,-0.04,-0.01,
1.146,-0.33,-0.10,-0.04,0.23,-0.04,-0.00,
1.146,-0.33,-0.10,-0.04,0.22,-0.05,0.00,
1.157,-0.27,-0.12,-0.07,0.22,-0.05,0.00,
1.157,-0.27,-0.12,-0.07,0.23,-0.06,0.01,
1.157,-0.27,-0.12,-0.07,0.23,-0.06,0.01,
1.157,-0.27,-0.12,-0.07,0.22,-0.07,0.02,
1.157,-0.16,-0.06,-0.10,0.22,-0.07,0.02,
1.158,-0.16,-0.06,-0.10,0.22,-0.07,0.02,
1.158,-0.16,-0.06,-0.10,0.22,-0.07,0.02,
1.158,-0.11,-0.03,-0.11,0.22,-0.07,0.02,
1.158,-0.11,-0.03,-0.11,0.22,-0.07,0.02,
1.159,-0.11,-0.03,-0.11,0.22,-0.07,0.02,
1.16,-0.06,-0.00,-0.11,0.22,-0.07,0.02,
1.161,-0.06,-0.00,-0.11,0.22,-0.07,0.02,
1.164,-0.03,-0.01,-0.08,0.22,-0.07,0.02,
1.164,-0.03,-0.01,-0.08,0.22,-0.07,0.02,
1.166,-0.03,-0.01,-0.08,0.22,-0.07,0.03,
1.171,-0.04,-0.03,-0.04,0.22,-0.07,0.03,
1.172,-0.04,-0.03,-0.04,0.22,-0.07,0.03,
1.172,-0.04,-0.03,-0.04,0.22,-0.07,0.03,
1.175,-0.04,-0.03,-0.04,0.22,-0.07,0.03,
1.175,-0.04,-0.05,-0.04,0.22,-0.07,0.03,
1.177,-0.04,-0.05,-0.04,0.22,-0.07,0.03,
1.181,-0.04,-0.05,-0.04,0.22,-0.07,0.03,
1.181,-0.04,-0.04,-0.01,0.22,-0.07,0.03,
1.183,-0.04,-0.04,-0.01,0.23,-0.06,0.03,
1.184,-0.04,-0.04,-0.01,0.23,-0.06,0.04,
1.184,-0.04,-0.04,-0.01,0.23,-0.06,0.04,
1.186,-0.04,-0.04,-0.01,0.23,-0.06,0.04,
1.192,-0.04,-0.04,-0.01,0.23,-0.05,0.04,
1.193,-0.04,-0.04,-0.01,0.23,-0.05,0.04,
1.193,-0.07,-0.02,-0.01,0.23,-0.05,0.04,
1.195,-0.07,-0.02,-0.01,0.23,-0.05,0.04,
1.195,-0.14,-0.01,-0.03,0.23,-0.05,0.04,
1.196,-0.14,-0.01,-0.03,0.23,-0.05,0.05,
1.199,-0.21,0.02,-0.04,0.23,-0.05,0.05,
1.2,-0.21,0.02,-0.04,0.23,-0.04,0.05,
1.201,-0.21,0.02,-0.04,0.23,-0.04,0.06,
1.204,-0.26,0.00,-0.09,0.23,-0.04,0.06,
1.204,-0.26,0.00,-0.09,0.24,-0.04,0.06,
1.208,-0.26,0.00,-0.09,0.24,-0.05,0.07,
1.209,-0.30,-0.00,-0.09,0.24,-0.05,0.07,
1.209,-0.30,-0.00,-0.09,0.24,-0.05,0.07,
1.211,-0.30,-0.00,-0.09,0.24,-0.05,0.08,
1.214,-0.30,-0.00,-0.09,0.24,-0.06,0.08,
1.215,-0.31,0.01,-0.15,0.24,-0.06,0.08,
1.218,-0.31,0.01,-0.15,0.24,-0.06,0.09,
1.219,-0.31,0.01,-0.15,0.24,-0.07,0.09,
1.219,-0.25,-0.01,-0.16,0.24,-0.07,0.09,
1.221,-0.25,-0.01,-0.16,0.24,-0.07,0.10,
1.224,-0.25,-0.01,-0.16,0.24,-0.07,0.10,
1.224,-0.20,-0.03,-0.13,0.24,-0.07,0.10,
1.227,-0.20,-0.03,-0.13,0.24,-0.08,0.10,
1.229,-0.20,-0.03,-0.13,0.24,-0.08,0.11,
1.229,-0.16,-0.03,-0.09,0.24,-0.08,0.11,
1.231,-0.16,-0.03,-0.09,0.24,-0.08,0.11,
1.233,-0.16,-0.03,-0.09,0.24,-0.09,0.11,
1.234,-0.05,-0.04,-0.03,0.24,-0.09,0.11,
1.236,-0.05,-0.04,-0.03,0.24,-0.09,0.11,
1.239,-0.05,-0.04,-0.03,0.24,-0.09,0.11,
1.24,0.06,-0.03,-0.02,0.24,-0.09,0.11,
1.242,0.06,-0.03,-0.02,0.25,-0.10,0.11,
1.244,0.15,-0.04,-0.06,0.25,-0.10,0.11,
1.245,0.15,-0.04,-0.06,0.25,-0.10,0.11,
1.246,0.15,-0.04,-0.06,0.24,-0.10,0.11,
1.249,0.15,-0.04,-0.06,0.24,-0.10,0.11,
1.249,0.18,-0.03,-0.05,0.24,-0.10,0.11,
1.251,0.18,-0.03,-0.05,0.24,-0.10,0.10,
1.253,0.18,-0.03,-0.05,0.24,-0.09,0.10,
1.253,0.19,0.01,-0.05,0.24,-0.09,0.10,
1.256,0.19,0.01,-0.05,0.24,-0.09,0.10,
1.259,0.19,0.02,0.00,0.24,-0.09,0.10,
1.259,0.19,0.02,0.00,0.24,-0.09,0.10,
1.261,0.19,0.02,0.00,0.24,-0.08,0.10,
1.263,0.19,0.02,0.00,0.24,-0.08,0.09,
1.263,0.19,0.02,0.02,0.24,-0.08,0.09,
1.266,0.19,0.02,0.02,0.24,-0.07,0.09,
1.269,0.19,0.02,0.02,0.24,-0.07,0.09,
1.269,0.17,0.02,0.03,0.24,-0.07,0.09,
1.27,0.17,0.02,0.03,0.24,-0.07,0.09,
1.275,0.12,0.02,0.07,0.24,-0.07,0.09,
1.275,0.12,0.02,0.07,0.24,-0.06,0.09,
1.275,0.12,0.02,0.07,0.24,-0.06,0.09,
1.278,0.06,0.03,0.11,0.24,-0.06,0.09,
1.278,0.06,0.03,0.11,0.24,-0.05,0.09,
1.28,0.06,0.03,0.11,0.24,-0.05,0.09,
1.283,0.06,0.03,0.11,0.24,-0.05,0.09,
1.283,0.02,0.05,0.16,0.24,-0.05,0.09,
1.285,0.02,0.05,0.16,0.24,-0.04,0.08,
1.288,0.02,0.05,0.16,0.24,-0.04,0.09,
1.289,0.02,0.06,0.15,0.24,-0.04,0.09,
1.292,0.02,0.06,0.15,0.24,-0.04,0.09,
1.293,0.02,0.06,0.15,0.24,-0.04,0.08,
1.293,0.06,0.04,0.13,0.24,-0.04,0.08,
1.295,0.06,0.04,0.13,0.24,-0.04,0.08,
1.298,0.06,0.04,0.13,0.24,-0.05,0.08,
1.298,0.06,0.03,0.11,0.24,-0.05,0.08,
1.3,0.06,0.03,0.11,0.24,-0.05,0.08,
1.303,0.06,0.03,0.11,0.24,-0.05,0.08,
1.303,0.12,0.01,0.11,0.24,-0.05,0.08,
1.307,0.12,0.01,0.11,0.24,-0.05,0.08,
1.309,0.12,-0.03,0.09,0.24,-0.05,0.08,
1.335,0.12,-0.03,0.09,0.24,-0.05,0.08,
1.335,0.13,-0.06,0.06,0.24,-0.05,0.08,
1.335,0.13,-0.06,0.06,0.24,-0.05,0.07,
1.335,0.13,-0.06,0.06,0.24,-0.05,0.07,
1.335,0.13,-0.06,0.06,0.24,-0.05,0.07,
1.336,0.13,-0.06,0.06,0.24,-0.04,0.07,
1.336,0.13,-0.06,0.06,0.24,-0.04,0.07,
1.336,0.11,-0.06,0.01,0.24,-0.04,0.07,
1.336,0.08,-0.02,0.01,0.24,-0.04,0.07,
1.336,0.08,-0.02,0.01,0.24,-0.04,0.07,
1.336,0.07,-0.01,-0.01,0.24,-0.04,0.07,
1.336,0.07,-0.01,-0.01,0.24,-0.04,0.07,
1.337,0.07,-0.01,-0.01,0.24,-0.04,0.07,
1.337,0.07,-0.01,-0.01,0.24,-0.03,0.07,
1.337,0.07,-0.01,-0.01,0.24,-0.03,0.07,
1.337,0.04,-0.00,0.02,0.24,-0.03,0.07,
1.337,0.04,-0.00,0.02,0.24,-0.03,0.07,
1.341,0.04,-0.00,0.02,0.24,-0.03,0.07,
1.341,0.04,-0.00,0.02,0.25,-0.03,0.07,
1.341,0.01,-0.00,0.03,0.25,-0.03,0.07,
1.344,0.01,-0.00,0.03,0.25,-0.03,0.07,
1.344,0.00,0.00,0.05,0.25,-0.03,0.07,
1.345,0.00,0.00,0.05,0.25,-0.03,0.07,
1.348,0.00,0.00,0.05,0.25,-0.03,0.07,
1.348,-0.02,0.00,0.06,0.25,-0.03,0.07,
1.351,-0.02,0.00,0.06,0.25,-0.03,0.07,
1.353,-0.04,-0.06,0.03,0.25,-0.03,0.07,
1.354,-0.04,-0.06,0.03,0.25,-0.03,0.07,
1.357,-0.04,-0.06,0.03,0.26,-0.03,0.07,
1.362,-0.07,-0.10,-0.04,0.26,-0.03,0.07,
1.362,-0.07,-0.10,-0.04,0.26,-0.03,0.07,
1.362,-0.07,-0.10,-0.04,0.26,-0.03,0.08,
1.365,-0.10,-0.10,-0.08,0.26,-0.03,0.08,
1.365,-0.10,-0.10,-0.08,0.26,-0.03,0.08,
1.365,-0.10,-0.10,-0.08,0.26,-0.03,0.08,
1.367,-0.10,-0.10,-0.08,0.26,-0.04,0.08,
1.368,-0.12,-0.10,-0.06,0.26,-0.04,0.08,
1.372,-0.12,-0.10,-0.06,0.26,-0.04,0.09,
1.375,-0.12,-0.10,-0.06,0.26,-0.05,0.09,
1.375,-0.11,-0.07,-0.02,0.26,-0.05,0.09,
1.377,-0.11,-0.07,-0.02,0.26,-0.05,0.09,
1.377,-0.11,-0.07,-0.02,0.26,-0.06,0.09,
1.377,-0.08,-0.06,0.02,0.26,-0.06,0.09,
1.38,-0.08,-0.06,0.02,0.26,-0.06,0.09,
1.382,-0.08,-0.06,0.02,0.26,-0.07,0.09,
1.382,-0.04,-0.07,0.05,0.26,-0.07,0.09,
1.385,-0.04,-0.07,0.05,0.26,-0.07,0.09,
1.388,-0.04,-0.07,0.05,0.26,-0.07,0.09,
1.388,-0.02,-0.05,-0.02,0.26,-0.07,0.09,
1.393,-0.02,-0.05,-0.02,0.26,-0.08,0.09,
1.393,-0.04,0.01,-0.04,0.26,-0.08,0.09,
1.393,-0.04,0.01,-0.04,0.26,-0.08,0.09,
1.395,-0.04,0.01,-0.04,0.26,-0.08,0.10,
1.397,-0.04,0.01,-0.04,0.26,-0.08,0.10,
1.397,0.03,-0.03,-0.08,0.26,-0.08,0.10,
1.4,0.03,-0.03,-0.08,0.26,-0.09,0.10,
1.402,0.08,-0.06,-0.10,0.26,-0.09,0.10,
1.402,0.08,-0.06,-0.10,0.26,-0.09,0.10,
1.404,0.08,-0.06,-0.10,0.26,-0.08,0.09,
1.408,0.10,-0.03,-0.05,0.26,-0.08,0.09,
1.408,0.10,-0.03,-0.05,0.25,-0.08,0.09,
1.41,0.10,-0.03,-0.05,0.25,-0.08,0.09,
1.412,0.11,0.02,0.04,0.25,-0.08,0.09,
1.412,0.11,0.02,0.04,0.26,-0.08,0.09,
1.414,0.11,0.02,0.04,0.26,-0.08,0.09,
1.417,0.10,0.05,0.07,0.26,-0.08,0.09,
1.417,0.10,0.05,0.07,0.26,-0.08,0.08,
1.419,0.10,0.05,0.07,0.26,-0.07,0.08,
1.422,0.10,0.05,0.07,0.26,-0.07,0.08,
1.422,0.06,0.04,0.03,0.26,-0.07,0.08,
1.43,0.06,0.04,0.03,0.25,-0.07,0.08,
1.431,0.06,0.04,0.03,0.25,-0.06,0.08,
1.431,0.09,-0.03,0.02,0.25,-0.06,0.08,
1.431,0.09,-0.03,0.02,0.25,-0.06,0.08,
1.432,0.09,-0.03,0.02,0.24,-0.06,0.08,
1.432,0.09,-0.06,0.04,0.24,-0.06,0.08,
1.434,0.09,-0.06,0.04,0.24,-0.05,0.08,
1.437,0.09,-0.06,0.04,0.24,-0.05,0.07,
1.437,0.11,-0.03,0.11,0.24,-0.05,0.07,
1.441,0.11,-0.03,0.11,0.24,-0.05,0.07,
1.443,0.11,-0.03,0.11,0.25,-0.05,0.07,
1.443,0.09,-0.02,0.15,0.25,-0.05,0.07,
1.446,0.09,-0.02,0.15,0.25,-0.04,0.07,
1.447,0.09,-0.02,0.15,0.25,-0.04,0.07,
1.447,0.02,-0.02,0.17,0.25,-0.04,0.07,
1.449,0.02,-0.02,0.17,0.26,-0.03,0.07,
1.452,0.02,-0.02,0.17,0.26,-0.03,0.07,
1.452,-0.05,-0.02,0.19,0.26,-0.03,0.07,
1.454,-0.05,-0.02,0.19,0.26,-0.02,0.07,
1.457,-0.05,-0.02,0.19,0.26,-0.02,0.07,
1.457,-0.05,0.00,0.22,0.26,-0.02,0.07,
1.459,-0.05,0.00,0.22,0.27,-0.02,0.07,
1.463,-0.05,0.00,0.22,0.27,-0.01,0.08,
1.463,-0.01,0.02,0.25,0.27,-0.01,0.08,
1.464,-0.01,0.02,0.25,0.27,-0.01,0.08,
1.467,-0.01,0.02,0.25,0.28,-0.01,0.08,
1.467,0.03,0.05,0.30,0.28,-0.01,0.08,
1.469,0.03,0.05,0.30,0.28,-0.01,0.08,
1.472,0.03,0.05,0.30,0.29,-0.00,0.08,
1.472,0.03,0.08,0.34,0.29,-0.00,0.08,
1.481,0.03,0.08,0.34,0.29,0.00,0.08,
1.482,-0.00,0.08,0.30,0.29,0.00,0.08,
1.482,-0.00,0.08,0.30,0.29,0.00,0.08,
1.482,-0.00,0.08,0.30,0.30,0.01,0.08,
1.482,-0.00,0.08,0.30,0.30,0.01,0.08,
1.482,-0.06,0.05,0.24,0.30,0.01,0.08,
1.484,-0.06,0.05,0.24,0.30,0.00,0.09,
1.486,-0.06,0.05,0.24,0.30,0.00,0.09,
1.487,-0.11,-0.03,0.11,0.30,0.00,0.09,
1.489,-0.11,-0.03,0.11,0.30,0.00,0.09,
1.492,-0.11,-0.03,0.11,0.30,-0.00,0.09,
1.492,-0.16,-0.08,0.03,0.30,-0.00,0.09,
1.494,-0.16,-0.08,0.03,0.30,-0.00,0.09,
1.496,-0.16,-0.08,0.03,0.30,-0.01,0.10,
1.497,-0.22,-0.06,0.02,0.30,-0.01,0.10,
1.499,-0.22,-0.06,0.02,0.31,-0.01,0.10,
1.503,-0.22,-0.06,0.02,0.30,-0.02,0.10,
1.503,-0.19,-0.02,-0.01,0.30,-0.02,0.10,
1.505,-0.19,-0.02,-0.01,0.30,-0.02,0.11,
1.507,-0.07,-0.03,-0.09,0.30,-0.02,0.11,
1.509,-0.07,-0.03,-0.09,0.30,-0.03,0.11,
1.509,-0.07,-0.03,-0.09,0.30,-0.04,0.11,
1.511,-0.07,-0.03,-0.09,0.30,-0.05,0.11,
1.511,0.01,-0.07,-0.16,0.30,-0.05,0.11,
1.514,0.01,-0.07,-0.16,0.30,-0.06,0.11,
1.518,0.01,-0.07,-0.16,0.30,-0.06,0.11,
1.518,0.06,-0.10,-0.23,0.30,-0.06,0.11,
1.519,0.06,-0.10,-0.23,0.29,-0.07,0.11,
1.521,0.07,-0.08,-0.29,0.29,-0.07,0.11,
1.521,0.07,-0.08,-0.29,0.29,-0.07,0.11,
1.525,0.07,-0.08,-0.29,0.29,-0.07,0.10,
1.526,0.07,-0.08,-0.29,0.29,-0.08,0.10,
1.527,0.13,-0.07,-0.36,0.29,-0.08,0.10,
1.53,0.13,-0.07,-0.36,0.29,-0.08,0.10,
1.531,0.13,-0.07,-0.36,0.28,-0.08,0.10,
1.531,0.16,-0.09,-0.37,0.28,-0.08,0.10,
1.533,0.16,-0.09,-0.37,0.28,-0.08,0.09,
1.536,0.16,-0.09,-0.37,0.28,-0.08,0.09,
1.536,0.18,-0.07,-0.36,0.28,-0.08,0.09,
1.538,0.18,-0.07,-0.36,0.27,-0.09,0.09,
1.542,0.18,-0.07,-0.36,0.27,-0.09,0.08,
1.543,0.21,-0.06,-0.32,0.27,-0.09,0.08,
1.544,0.21,-0.06,-0.32,0.27,-0.09,0.08,
1.546,0.21,-0.06,-0.32,0.26,-0.09,0.08,
1.546,0.17,0.03,-0.20,0.26,-0.09,0.08,
1.548,0.17,0.03,-0.20,0.26,-0.08,0.08,
1.551,0.17,0.03,-0.20,0.26,-0.08,0.08,
1.551,0.20,-0.01,-0.05,0.26,-0.08,0.08,
1.554,0.20,-0.01,-0.05,0.26,-0.07,0.07,
1.556,0.20,-0.01,-0.05,0.26,-0.07,0.07,
1.558,0.14,-0.01,0.07,0.26,-0.07,0.07,
1.558,0.14,-0.01,0.07,0.27,-0.06,0.07,
1.561,0.14,-0.01,0.07,0.27,-0.05,0.07,
1.561,-0.01,0.05,0.10,0.27,-0.05,0.07,
1.564,-0.01,0.05,0.10,0.27,-0.05,0.07,
1.567,-0.01,0.05,0.10,0.27,-0.05,0.07,
1.567,-0.13,0.09,0.06,0.27,-0.05,0.07,
1.568,-0.13,0.09,0.06,0.27,-0.05,0.08,
1.571,-0.13,0.09,0.06,0.27,-0.05,0.08,
1.571,-0.24,0.11,0.01,0.27,-0.05,0.08,
1.575,-0.24,0.11,0.01,0.27,-0.05,0.09,
1.575,-0.24,0.11,0.01,0.27,-0.05,0.09,
1.576,-0.33,0.13,0.04,0.27,-0.05,0.09,
1.578,-0.33,0.13,0.04,0.26,-0.05,0.10,
1.581,-0.33,0.13,0.04,0.26,-0.06,0.10,
1.581,-0.34,0.15,0.13,0.26,-0.06,0.10,
1.583,-0.34,0.15,0.13,0.26,-0.06,0.11,
1.586,-0.34,0.15,0.13,0.26,-0.07,0.11,
1.586,-0.33,0.11,0.20,0.26,-0.07,0.11,
1.588,-0.33,0.11,0.20,0.27,-0.07,0.12,
1.591,-0.33,0.11,0.20,0.27,-0.08,0.13,
1.591,-0.29,0.08,0.19,0.27,-0.08,0.13,
1.593,-0.29,0.08,0.19,0.27,-0.09,0.13,
1.595,-0.29,0.08,0.19,0.28,-0.09,0.13,
1.595,-0.31,-0.00,0.10,0.28,-0.09,0.13,
1.598,-0.31,-0.00,0.10,0.28,-0.09,0.14,
1.6,-0.31,-0.00,0.10,0.28,-0.09,0.14,
1.601,-0.26,-0.04,-0.02,0.28,-0.09,0.14,
1.603,-0.26,-0.04,-0.02,0.28,-0.10,0.15,
1.605,-0.26,-0.04,-0.02,0.28,-0.10,0.15,
1.606,-0.19,-0.09,-0.11,0.28,-0.10,0.15,
1.609,-0.19,-0.09,-0.11,0.28,-0.11,0.16,
1.61,-0.09,-0.13,-0.20,0.28,-0.11,0.16,
1.611,-0.09,-0.13,-0.20,0.28,-0.11,0.16,
1.613,-0.09,-0.13,-0.20,0.28,-0.11,0.16,
1.616,-0.09,-0.13,-0.20,0.28,-0.11,0.16,
1.616,-0.01,-0.16,-0.26,0.28,-0.11,0.16,
1.617,-0.01,-0.16,-0.26,0.27,-0.10,0.16,
1.62,-0.01,-0.16,-0.26,0.27,-0.09,0.16,
1.62,0.01,-0.06,-0.22,0.27,-0.09,0.16,
1.623,0.01,-0.06,-0.22,0.27,-0.09,0.16,
1.633,0.11,0.02,-0.17,0.27,-0.09,0.16,
1.634,0.11,0.02,-0.17,0.27,-0.08,0.16,
1.634,0.11,0.02,-0.17,0.27,-0.08,0.16,
1.634,0.21,-0.02,-0.13,0.27,-0.08,0.16,
1.634,0.21,-0.02,-0.13,0.26,-0.07,0.16,
1.634,0.21,-0.02,-0.13,0.26,-0.07,0.16,
1.635,0.24,0.00,-0.11,0.26,-0.07,0.16,
1.636,0.24,0.00,-0.11,0.26,-0.06,0.15,
1.637,0.24,0.00,-0.11,0.26,-0.06,0.15,
1.652,0.24,0.00,-0.11,0.26,-0.06,0.15,
1.652,0.21,0.01,-0.12,0.26,-0.06,0.15,
1.653,0.21,0.01,-0.12,0.26,-0.05,0.14,
1.653,0.21,0.01,-0.12,0.26,-0.05,0.14,
1.653,0.12,0.01,-0.16,0.26,-0.05,0.14,
1.653,0.12,0.01,-0.16,0.25,-0.05,0.14,
1.653,0.01,-0.00,-0.21,0.25,-0.05,0.14,
1.653,0.01,-0.00,-0.21,0.25,-0.04,0.14,
1.653,0.01,-0.00,-0.21,0.25,-0.05,0.14,
1.655,-0.07,-0.04,-0.23,0.25,-0.05,0.14,
1.656,-0.07,-0.04,-0.23,0.25,-0.05,0.14,
1.661,-0.07,-0.04,-0.23,0.24,-0.06,0.14,
1.662,-0.16,-0.01,-0.25,0.24,-0.06,0.14,
1.662,-0.16,-0.01,-0.25,0.24,-0.06,0.15,
1.662,-0.16,-0.01,-0.25,0.24,-0.07,0.15,
1.665,-0.16,-0.01,-0.25,0.23,-0.07,0.15,
1.665,-0.17,-0.01,-0.27,0.23,-0.07,0.15,
1.667,-0.17,-0.01,-0.27,0.23,-0.08,0.16,
1.67,-0.17,-0.01,-0.27,0.22,-0.09,0.16,
1.67,-0.14,0.03,-0.26,0.22,-0.09,0.16,
1.672,-0.14,0.03,-0.26,0.22,-0.10,0.16,
1.675,-0.09,0.07,-0.17,0.22,-0.10,0.16,
1.676,-0.09,0.07,-0.17,0.21,-0.11,0.16,
1.677,-0.09,0.07,-0.17,0.21,-0.12,0.16,
1.68,-0.01,0.08,-0.12,0.21,-0.12,0.16,
1.681,-0.01,0.08,-0.12,0.21,-0.12,0.17,
1.682,-0.01,0.08,-0.12,0.21,-0.12,0.17,
1.685,-0.01,0.08,-0.12,0.21,-0.12,0.17,
1.685,-0.01,0.09,-0.06,0.21,-0.12,0.17,
1.688,-0.01,0.09,-0.06,0.21,-0.12,0.17,
1.69,-0.03,0.10,-0.03,0.21,-0.12,0.17,
1.691,-0.03,0.10,-0.03,0.21,-0.11,0.17,
1.693,-0.03,0.10,-0.03,0.21,-0.11,0.17,
1.695,-0.04,-0.07,-0.04,0.21,-0.11,0.17,
1.695,-0.04,-0.07,-0.04,0.21,-0.10,0.17,
1.697,-0.04,-0.07,-0.04,0.20,-0.10,0.17,
1.7,-0.04,-0.07,-0.04,0.20,-0.09,0.17,
1.701,0.02,-0.10,0.01,0.20,-0.09,0.17,
1.703,0.02,-0.10,0.01,0.20,-0.09,0.17,
1.705,0.02,-0.10,0.01,0.20,-0.09,0.17,
1.705,0.14,-0.08,0.09,0.20,-0.09,0.17,
1.712,0.14,-0.08,0.09,0.20,-0.09,0.17,
1.713,0.23,-0.07,0.11,0.20,-0.09,0.17,
1.714,0.23,-0.07,0.11,0.20,-0.08,0.17,
1.714,0.23,-0.07,0.11,0.20,-0.07,0.16,
1.715,0.23,-0.07,0.11,0.20,-0.07,0.16,
1.715,0.26,-0.03,0.08,0.20,-0.07,0.16,
1.717,0.26,-0.03,0.08,0.20,-0.06,0.16,
1.72,0.21,-0.01,0.06,0.20,-0.06,0.16,
1.722,0.21,-0.01,0.06,0.21,-0.05,0.15,
1.723,0.21,-0.01,0.06,0.21,-0.03,0.15,
1.74,0.11,-0.03,0.04,0.21,-0.03,0.15,
1.741,0.11,-0.03,0.04,0.21,-0.02,0.15,
1.742,0.11,-0.03,0.04,0.21,-0.01,0.15,
1.742,0.02,-0.06,0.01,0.21,-0.01,0.15,
1.743,0.02,-0.06,0.01,0.21,0.00,0.15,
1.743,0.02,-0.06,0.01,0.21,0.01,0.15,
1.743,-0.03,-0.08,0.05,0.21,0.01,0.15,
1.744,-0.03,-0.08,0.05,0.21,0.01,0.15,
1.744,-0.03,-0.08,0.05,0.21,0.01,0.15,
1.745,0.02,-0.05,0.14,0.21,0.01,0.15,
1.745,0.02,-0.05,0.14,0.21,0.01,0.16,
1.745,0.02,-0.05,0.14,0.21,0.01,0.15,
1.745,0.05,-0.01,0.27,0.21,0.01,0.15,
1.746,0.05,-0.01,0.27,0.21,0.01,0.15,
1.746,0.05,-0.01,0.27,0.22,0.01,0.15,
1.749,0.09,0.01,0.36,0.22,0.01,0.15,
1.75,0.09,0.01,0.36,0.22,0.01,0.15,
1.752,0.09,0.01,0.36,0.23,0.01,0.15,
1.754,0.10,0.02,0.32,0.23,0.01,0.15,
1.755,0.10,0.02,0.32,0.23,0.00,0.15,
1.76,0.10,0.02,0.32,0.23,0.00,0.15,
1.76,0.12,0.01,0.21,0.23,0.00,0.15,
1.761,0.12,0.01,0.21,0.23,-0.00,0.15,
1.762,0.12,0.01,0.21,0.24,-0.01,0.14,
1.764,0.12,0.01,0.21,0.24,-0.01,0.14,
1.764,0.16,-0.01,0.07,0.24,-0.01,0.14,
1.766,0.16,-0.01,0.07,0.23,-0.02,0.14,
1.769,0.16,-0.01,0.07,0.23,-0.02,0.14,
1.769,0.16,-0.02,-0.04,0.23,-0.02,0.14,
1.772,0.16,-0.02,-0.04,0.23,-0.02,0.14,
1.778,0.07,0.00,-0.15,0.23,-0.02,0.14,
1.779,0.07,0.00,-0.15,0.23,-0.02,0.13,
1.779,0.07,0.00,-0.15,0.22,-0.02,0.14,
1.779,-0.06,0.02,-0.24,0.22,-0.02,0.14,
1.78,-0.06,0.02,-0.24,0.22,-0.02,0.14,
1.781,-0.06,0.02,-0.24,0.21,-0.02,0.14,
1.784,-0.06,0.02,-0.24,0.21,-0.03,0.14,
1.784,-0.16,0.05,-0.29,0.21,-0.03,0.14,
1.786,-0.16,0.05,-0.29,0.21,-0.03,0.14,
1.789,-0.16,0.05,-0.29,0.20,-0.03,0.15,
1.789,-0.22,0.09,-0.32,0.20,-0.03,0.15,
1.792,-0.22,0.09,-0.32,0.20,-0.04,0.15,
1.794,-0.22,0.09,-0.32,0.20,-0.04,0.15,
1.794,-0.20,0.06,-0.30,0.20,-0.04,0.15,
1.796,-0.20,0.06,-0.30,0.19,-0.04,0.15,
1.799,-0.20,0.06,-0.30,0.19,-0.05,0.16,
1.8,-0.14,0.01,-0.26,0.19,-0.05,0.16,
1.801,-0.14,0.01,-0.26,0.19,-0.05,0.16,
1.804,-0.02,-0.04,-0.20,0.19,-0.05,0.16,
1.829,-0.02,-0.04,-0.20,0.19,-0.05,0.16,
1.83,-0.02,-0.04,-0.20,0.19,-0.05,0.16,
1.83,-0.02,-0.04,-0.20,0.19,-0.05,0.16,
1.83,0.08,-0.13,-0.19,0.19,-0.05,0.16,
1.83,0.08,-0.13,-0.19,0.19,-0.05,0.16,
1.831,0.08,-0.13,-0.19,0.19,-0.05,0.15,
1.831,0.13,-0.17,-0.17,0.19,-0.05,0.15,
1.831,0.13,-0.17,-0.17,0.19,-0.04,0.15,
1.831,0.13,-0.18,-0.12,0.19,-0.04,0.15,
1.831,0.13,-0.18,-0.12,0.19,-0.03,0.15,
1.832,0.13,-0.18,-0.12,0.19,-0.03,0.15,
1.832,0.13,-0.18,-0.12,0.19,-0.02,0.14,
1.832,0.19,-0.11,-0.01,0.19,-0.02,0.14,
1.832,0.19,-0.11,-0.01,0.19,-0.01,0.14,
1.833,0.19,-0.11,-0.01,0.19,-0.01,0.14,
1.833,0.33,0.00,0.19,0.19,-0.01,0.14,
1.833,0.33,0.00,0.19,0.19,-0.01,0.14,
1.833,0.33,0.00,0.19,0.20,-0.01,0.13,
1.834,0.49,0.02,0.31,0.20,-0.01,0.13,
1.836,0.49,0.02,0.31,0.20,-0.01,0.12,
1.839,0.49,0.02,0.31,0.21,-0.01,0.11,
1.839,0.52,0.00,0.27,0.21,-0.01,0.11,
1.846,0.52,0.00,0.27,0.21,-0.00,0.10,
1.846,0.40,-0.02,0.12,0.21,-0.00,0.10,
1.847,0.40,-0.02,0.12,0.22,0.00,0.10,
1.847,0.40,-0.02,0.12,0.22,0.01,0.09,
1.848,0.24,-0.01,0.02,0.22,0.01,0.09,
1.849,0.24,-0.01,0.02,0.21,0.02,0.09,
1.851,0.24,-0.01,0.02,0.21,0.02,0.09,
1.853,0.24,-0.01,0.02,0.21,0.02,0.08,
1.853,0.13,0.01,0.02,0.21,0.02,0.08,
1.855,0.13,0.01,0.02,0.21,0.02,0.08,
1.86,0.04,-0.01,0.11,0.21,0.02,0.08,
1.86,0.04,-0.01,0.11,0.21,0.02,0.08,
1.861,0.04,-0.01,0.11,0.21,0.02,0.08,
1.863,0.04,-0.01,0.11,0.21,0.01,0.08,
1.864,-0.06,-0.03,0.12,0.21,0.01,0.08,
1.866,-0.06,-0.03,0.12,0.21,0.00,0.08,
1.868,-0.15,-0.04,0.09,0.21,0.00,0.08,
1.869,-0.15,-0.04,0.09,0.21,-0.01,0.08,
1.871,-0.15,-0.04,0.09,0.22,-0.01,0.09,
1.873,-0.15,-0.04,0.09,0.22,-0.02,0.09,
1.874,-0.20,-0.02,0.03,0.22,-0.02,0.09,
1.877,-0.20,-0.02,0.03,0.21,-0.03,0.09,
1.879,-0.20,-0.02,0.03,0.21,-0.04,0.09,
1.881,-0.26,0.01,-0.07,0.21,-0.04,0.09,
1.882,-0.26,0.01,-0.07,0.21,-0.05,0.10,
1.884,-0.26,0.01,-0.07,0.21,-0.06,0.10,
1.884,-0.26,0.03,-0.10,0.21,-0.06,0.10,
1.886,-0.26,0.03,-0.10,0.20,-0.06,0.11,
1.888,-0.20,0.04,-0.14,0.20,-0.06,0.11,
1.888,-0.20,0.04,-0.14,0.20,-0.07,0.11,
1.893,-0.20,0.04,-0.14,0.20,-0.07,0.11,
1.894,-0.20,0.04,-0.14,0.20,-0.08,0.11,
1.894,-0.15,0.03,-0.12,0.20,-0.08,0.11,
1.895,-0.15,0.03,-0.12,0.19,-0.08,0.12,
1.898,-0.15,0.03,-0.12,0.19,-0.08,0.12,
1.898,-0.05,0.03,-0.11,0.19,-0.08,0.12,
1.9,-0.05,0.03,-0.11,0.19,-0.08,0.12,
1.903,0.03,0.07,-0.10,0.19,-0.08,0.12,
1.903,0.03,0.07,-0.10,0.19,-0.08,0.12,
1.905,0.03,0.07,-0.10,0.18,-0.08,0.12,
1.912,0.03,0.07,-0.10,0.18,-0.08,0.12,
1.912,0.16,0.08,-0.17,0.18,-0.08,0.12,
1.913,0.16,0.08,-0.17,0.18,-0.07,0.12,
1.913,0.16,0.08,-0.17,0.18,-0.07,0.12,
1.913,0.19,0.10,-0.23,0.18,-0.07,0.12,
1.915,0.19,0.10,-0.23,0.17,-0.06,0.12,
1.918,0.16,0.08,-0.31,0.17,-0.06,0.12,
1.918,0.16,0.08,-0.31,0.17,-0.05,0.11,
1.92,0.16,0.08,-0.31,0.16,-0.04,0.11,
1.923,0.16,0.08,-0.31,0.16,-0.04,0.11,
1.94,0.07,0.05,-0.33,0.16,-0.04,0.11,
1.941,0.07,0.05,-0.33,0.15,-0.03,0.11,
1.941,0.07,0.05,-0.33,0.15,-0.02,0.11,
1.941,0.02,-0.02,-0.30,0.15,-0.02,0.11,
1.942,0.02,-0.02,-0.30,0.14,-0.02,0.12,
1.942,0.02,-0.02,-0.30,0.14,-0.02,0.12,
1.942,-0.03,-0.02,-0.24,0.14,-0.02,0.12,
1.943,-0.03,-0.02,-0.24,0.14,-0.01,0.12,
1.943,-0.03,-0.02,-0.24,0.13,-0.01,0.12,
1.943,-0.06,-0.00,-0.17,0.13,-0.01,0.12,
1.943,-0.06,-0.00,-0.17,0.13,-0.01,0.12,
1.949,-0.06,-0.00,-0.17,0.13,-0.01,0.12,
1.95,-0.09,-0.00,-0.15,0.13,-0.01,0.12,
1.95,-0.12,-0.00,-0.13,0.13,-0.01,0.12,
1.95,-0.12,-0.00,-0.13,0.13,-0.01,0.13,
1.95,-0.12,-0.00,-0.13,0.13,-0.01,0.13,
1.95,-0.12,-0.00,-0.13,0.13,-0.01,0.13,
1.954,-0.12,-0.05,-0.07,0.13,-0.01,0.13,
1.954,-0.12,-0.05,-0.07,0.12,-0.01,0.14,
1.955,-0.12,-0.05,-0.07,0.12,-0.01,0.14,
1.958,-0.04,-0.01,0.00,0.12,-0.01,0.14,
1.958,-0.04,-0.01,0.00,0.12,-0.01,0.14,
1.96,-0.04,-0.01,0.00,0.12,-0.01,0.14,
1.963,0.09,0.05,0.03,0.12,-0.01,0.14,
1.963,0.09,0.05,0.03,0.12,-0.01,0.14,
1.965,0.09,0.05,0.03,0.11,-0.02,0.14,
1.967,0.15,0.10,-0.01,0.11,-0.02,0.14,
1.967,0.15,0.10,-0.01,0.11,-0.01,0.14,
1.994,0.16,0.09,-0.06,0.11,-0.01,0.14,
1.994,0.16,0.09,-0.06,0.11,-0.01,0.14,
1.994,0.16,0.09,-0.06,0.11,-0.01,0.13,
1.995,0.08,0.03,-0.12,0.11,-0.01,0.13,
1.995,0.08,0.03,-0.12,0.10,-0.00,0.13,
1.995,0.08,0.03,-0.12,0.10,0.00,0.13,
1.995,0.08,0.03,-0.12,0.10,0.01,0.13,
1.996,-0.04,-0.05,-0.18,0.10,0.01,0.13,
1.996,-0.04,-0.05,-0.18,0.10,0.01,0.13,
1.997,-0.04,-0.05,-0.18,0.10,0.01,0.13,
1.997,-0.04,-0.05,-0.18,0.09,0.01,0.14,
1.998,-0.14,-0.03,-0.20,0.09,0.01,0.14,
1.998,-0.14,-0.03,-0.20,0.09,0.01,0.14,
1.999,-0.14,-0.03,-0.20,0.08,0.01,0.15,
1.999,-0.15,0.01,-0.19,0.08,0.01,0.15,
2.0,-0.15,0.01,-0.19,0.08,0.00,0.15,
2.0,-0.15,0.05,-0.16,0.08,0.00,0.15,
2.001,-0.15,0.05,-0.16,0.07,0.00,0.15,
2.001,-0.15,0.05,-0.16,0.07,-0.00,0.16,
2.006,-0.15,0.05,-0.16,0.06,-0.01,0.16,
2.006,-0.13,0.07,-0.12,0.06,-0.01,0.16,
2.006,-0.13,0.07,-0.12,0.06,-0.01,0.16,
2.008,-0.13,0.07,-0.12,0.06,-0.00,0.16,
2.009,-0.10,0.11,-0.11,0.06,-0.00,0.16,
2.012,-0.10,0.11,-0.11,0.05,-0.00,0.17,
2.012,-0.10,0.11,-0.11,0.05,-0.00,0.17,
2.013,-0.09,0.14,-0.13,0.05,-0.00,0.17,
2.015,-0.09,0.14,-0.13,0.04,0.00,0.17,
2.017,-0.08,0.15,-0.15,0.04,0.00,0.17,
2.018,-0.08,0.15,-0.15,0.04,0.00,0.18,
2.019,-0.08,0.15,-0.15,0.04,0.01,0.18,
2.023,-0.08,0.15,-0.15,0.03,0.01,0.18,
2.023,-0.06,0.14,-0.15,0.03,0.01,0.18,
2.034,-0.06,0.14,-0.15,0.03,0.01,0.18,
2.034,-0.05,0.13,-0.16,0.03,0.01,0.18,
2.035,-0.05,0.13,-0.16,0.02,0.01,0.19,
2.035,-0.05,0.13,-0.16,0.02,0.01,0.19,
2.035,-0.05,0.08,-0.17,0.02,0.01,0.19,
2.035,-0.05,0.08,-0.17,0.02,0.02,0.19,
2.035,-0.05,0.08,-0.17,0.01,0.02,0.19,
2.039,-0.05,0.08,-0.17,0.01,0.02,0.19,
2.039,-0.07,0.00,-0.19,0.01,0.02,0.19,
2.039,-0.07,0.00,-0.19,0.00,0.03,0.19,
2.048,-0.07,0.00,-0.19,-0.00,0.03,0.20,
2.049,-0.13,-0.05,-0.23,-0.00,0.03,0.20,
2.049,-0.13,-0.05,-0.23,-0.00,0.03,0.20,
2.049,-0.20,-0.10,-0.25,-0.00,0.03,0.20,
2.049,-0.20,-0.10,-0.25,-0.01,0.03,0.20,
2.049,-0.20,-0.10,-0.25,-0.01,0.03,0.20,
2.052,-0.24,-0.16,-0.19,-0.01,0.03,0.20,
2.052,-0.24,-0.16,-0.19,-0.02,0.03,0.21,
2.054,-0.24,-0.16,-0.19,-0.02,0.03,0.21,
2.057,-0.22,-0.18,-0.14,-0.02,0.03,0.21,
2.059,-0.22,-0.18,-0.14,-0.02,0.02,0.22,
2.059,-0.22,-0.18,-0.14,-0.03,0.02,0.22,
2.062,-0.22,-0.18,-0.14,-0.03,0.01,0.23,
2.062,-0.18,-0.12,-0.09,-0.03,0.01,0.23,
2.064,-0.18,-0.12,-0.09,-0.03,0.00,0.23,
2.067,-0.11,-0.01,-0.07,-0.03,0.00,0.23,
2.067,-0.11,-0.01,-0.07,-0.03,-0.00,0.23,
2.069,-0.11,-0.01,-0.07,-0.03,-0.01,0.23,
2.071,-0.10,0.01,-0.04,-0.03,-0.01,0.23,
2.072,-0.10,0.01,-0.04,-0.03,-0.01,0.23,
2.079,-0.10,0.01,-0.04,-0.03,-0.02,0.24,
2.079,-0.10,0.01,-0.04,-0.04,-0.02,0.24,
2.08,-0.02,-0.01,-0.03,-0.04,-0.02,0.24,
2.08,-0.02,-0.01,-0.03,-0.03,-0.02,0.24,
2.082,0.05,-0.08,-0.06,-0.03,-0.02,0.24,
2.083,0.05,-0.08,-0.06,-0.03,-0.03,0.24,
2.084,0.05,-0.08,-0.06,-0.04,-0.03,0.24,
2.086,0.10,-0.11,-0.13,-0.04,-0.03,0.24,
2.087,0.10,-0.11,-0.13,-0.04,-0.03,0.24,
2.089,0.10,-0.11,-0.13,-0.04,-0.04,0.24,
2.095,0.10,-0.11,-0.13,-0.04,-0.04,0.24,
2.095,0.10,-0.11,-0.13,-0.04,-0.04,0.23,
2.096,0.12,-0.05,-0.19,-0.04,-0.04,0.23,
2.096,0.12,-0.05,-0.19,-0.05,-0.04,0.23,
2.096,0.09,-0.01,-0.18,-0.05,-0.04,0.23,
2.099,0.09,-0.01,-0.18,-0.05,-0.03,0.23,
2.102,0.09,-0.01,-0.18,-0.05,-0.03,0.23,
2.102,0.06,0.04,-0.08,-0.05,-0.03,0.23,
2.104,0.06,0.04,-0.08,-0.05,-0.03,0.23,
2.106,0.06,0.04,-0.08,-0.05,-0.03,0.23,
2.107,0.09,0.05,0.01,-0.05,-0.03,0.23,
2.11,0.09,0.05,0.01,-0.05,-0.03,0.23,
2.111,0.09,0.05,0.01,-0.05,-0.03,0.23,
2.111,0.15,0.05,0.09,-0.05,-0.03,0.23,
2.113,0.15,0.05,0.09,-0.05,-0.03,0.23,
2.116,0.15,0.05,0.09,-0.05,-0.03,0.23,
2.116,0.23,0.04,0.05,-0.05,-0.03,0.23,
2.118,0.23,0.04,0.05,-0.05,-0.03,0.22,
2.122,0.23,0.04,0.05,-0.05,-0.02,0.22,
2.122,0.24,0.02,-0.03,-0.05,-0.02,0.22,
2.124,0.24,0.02,-0.03,-0.05,-0.02,0.21,
2.132,0.20,0.01,-0.07,-0.05,-0.02,0.21,
2.133,0.20,0.01,-0.07,-0.05,-0.02,0.21,
2.133,0.20,0.01,-0.07,-0.06,-0.01,0.21,
2.133,0.13,-0.01,-0.09,-0.06,-0.01,0.21,
2.133,0.13,-0.01,-0.09,-0.06,-0.00,0.20,
2.133,0.13,-0.01,-0.09,-0.06,0.00,0.20,
2.147,0.13,-0.01,-0.09,-0.06,0.01,0.20,
2.148,0.05,-0.06,-0.06,-0.06,0.01,0.20,
2.148,0.05,-0.06,-0.06,-0.06,0.01,0.20,
2.148,0.05,-0.06,-0.06,-0.06,0.01,0.20,
2.148,0.01,-0.11,-0.02,-0.06,0.01,0.20,
2.148,0.01,-0.11,-0.02,-0.06,0.01,0.20,
2.148,0.01,-0.11,-0.02,-0.06,0.01,0.20,
2.149,-0.03,-0.14,0.06,-0.06,0.01,0.20,
2.149,-0.03,-0.14,0.06,-0.06,0.00,0.20,
2.153,-0.01,-0.13,0.14,-0.06,0.00,0.20,
2.154,-0.01,-0.13,0.14,-0.06,-0.00,0.20,
2.154,-0.01,-0.13,0.14,-0.06,-0.01,0.20,
2.156,-0.01,-0.13,0.14,-0.06,-0.02,0.20,
2.156,0.01,-0.11,0.19,-0.06,-0.02,0.20,
2.16,0.01,-0.11,0.19,-0.05,-0.03,0.20,
2.161,0.01,-0.11,0.15,-0.05,-0.03,0.20,
2.162,0.01,-0.11,0.15,-0.05,-0.04,0.19,
2.163,0.01,-0.11,0.15,-0.05,-0.04,0.19,
2.166,0.01,-0.11,0.15,-0.05,-0.05,0.19,
2.166,0.00,-0.12,0.12,-0.05,-0.05,0.19,
2.168,0.00,-0.12,0.12,-0.05,-0.06,0.19,
2.17,0.00,-0.12,0.12,-0.05,-0.06,0.19,
2.171,-0.02,-0.15,0.06,-0.05,-0.06,0.19,
2.173,-0.02,-0.15,0.06,-0.05,-0.07,0.19,
2.177,-0.02,-0.15,0.06,-0.05,-0.07,0.19,
2.177,-0.03,-0.17,0.00,-0.05,-0.07,0.19,
2.178,-0.03,-0.17,0.00,-0.05,-0.08,0.19,
2.181,-0.01,-0.16,-0.05,-0.05,-0.08,0.19,
2.181,-0.01,-0.16,-0.05,-0.05,-0.08,0.19,
2.183,-0.01,-0.16,-0.05,-0.05,-0.08,0.20,
2.186,-0.03,-0.12,-0.09,-0.05,-0.08,0.20,
2.186,-0.03,-0.12,-0.09,-0.05,-0.08,0.20,
2.188,-0.03,-0.12,-0.09,-0.05,-0.09,0.20,
2.193,-0.03,-0.12,-0.09,-0.05,-0.09,0.20,
2.193,0.02,-0.07,-0.12,-0.05,-0.09,0.20,
2.195,0.02,-0.07,-0.12,-0.05,-0.09,0.20,
2.195,0.06,-0.05,-0.16,-0.05,-0.09,0.20,
2.195,0.06,-0.05,-0.16,-0.06,-0.09,0.20,
2.2,0.06,-0.05,-0.16,-0.06,-0.09,0.20,
2.201,0.08,-0.03,-0.23,-0.06,-0.09,0.20,
2.202,0.08,-0.03,-0.23,-0.06,-0.09,0.20,
2.202,0.08,-0.03,-0.23,-0.06,-0.09,0.19,
2.206,0.08,-0.03,-0.23,-0.06,-0.08,0.19,
2.206,0.05,-0.03,-0.26,-0.06,-0.08,0.19,
2.208,0.05,-0.03,-0.26,-0.07,-0.08,0.19,
2.211,0.02,-0.04,-0.28,-0.07,-0.08,0.19,
2.212,0.02,-0.04,-0.28,-0.07,-0.07,0.19,
2.213,0.02,-0.04,-0.28,-0.07,-0.07,0.19,
2.215,0.02,-0.04,-0.28,-0.08,-0.06,0.19,
2.216,0.03,-0.02,-0.24,-0.08,-0.06,0.19,
2.218,0.03,-0.02,-0.24,-0.08,-0.06,0.19,
2.22,0.05,0.02,-0.16,-0.08,-0.06,0.19,
2.22,0.05,0.02,-0.16,-0.08,-0.05,0.19,
2.222,0.05,0.02,-0.16,-0.09,-0.05,0.19,
2.226,0.09,0.04,-0.10,-0.09,-0.05,0.19,
2.226,0.09,0.04,-0.10,-0.09,-0.04,0.19,
2.228,0.09,0.04,-0.10,-0.09,-0.04,0.19,
2.23,0.11,0.02,-0.08,-0.09,-0.04,0.19,
2.23,0.11,0.02,-0.08,-0.09,-0.04,0.19,
2.232,0.11,0.02,-0.08,-0.09,-0.04,0.19,
2.235,0.10,0.00,-0.09,-0.09,-0.04,0.19,
2.235,0.10,0.00,-0.09,-0.09,-0.03,0.19,
2.237,0.10,0.00,-0.09,-0.09,-0.03,0.19,
2.24,0.10,0.00,-0.09,-0.09,-0.02,0.19,
2.24,0.07,-0.02,-0.08,-0.09,-0.02,0.19,
2.245,0.05,-0.04,-0.04,-0.09,-0.02,0.19,
2.248,0.05,-0.04,-0.04,-0.09,-0.02,0.18,
2.249,0.05,-0.04,-0.04,-0.09,-0.01,0.18,
2.249,0.05,-0.04,-0.04,-0.09,-0.01,0.18,
2.254,0.03,-0.07,0.00,-0.09,-0.01,0.18,
2.254,0.03,-0.07,0.00,-0.09,-0.01,0.18,
2.254,0.03,-0.07,0.00,-0.09,-0.01,0.18,
2.256,0.03,-0.07,0.00,-0.09,-0.01,0.18,
2.256,0.09,-0.09,0.01,-0.09,-0.01,0.18,
2.259,0.09,-0.09,0.01,-0.09,-0.02,0.18,
2.27,0.12,-0.09,0.02,-0.09,-0.02,0.18,
2.271,0.10,-0.04,-0.00,-0.09,-0.02,0.18,
2.271,0.09,-0.00,0.01,-0.09,-0.02,0.18,
2.272,0.09,-0.00,0.01,-0.09,-0.02,0.18,
2.272,0.09,-0.00,0.01,-0.09,-0.02,0.18,
2.272,0.09,-0.00,0.01,-0.09,-0.02,0.18,
2.272,0.09,-0.00,0.01,-0.09,-0.03,0.17,
2.272,0.09,-0.00,0.01,-0.09,-0.03,0.17,
2.273,0.09,-0.00,0.01,-0.09,-0.02,0.17,
2.275,0.08,0.01,0.05,-0.09,-0.02,0.17,
2.276,0.08,0.01,0.05,-0.09,-0.02,0.17,
2.28,0.08,0.01,0.05,-0.09,-0.02,0.17,
2.28,0.08,0.01,0.05,-0.09,-0.02,0.17,
2.28,0.11,0.02,0.12,-0.09,-0.02,0.17,
2.282,0.11,0.02,0.12,-0.09,-0.02,0.17,
2.285,0.11,0.02,0.12,-0.09,-0.02,0.16,
2.285,0.16,0.06,0.16,-0.09,-0.02,0.16,
2.287,0.16,0.06,0.16,-0.08,-0.02,0.16,
2.29,0.16,0.06,0.16,-0.08,-0.01,0.16,
2.29,0.25,0.08,0.15,-0.08,-0.01,0.16,
2.293,0.25,0.08,0.15,-0.08,-0.01,0.16,
2.295,0.29,0.08,0.13,-0.08,-0.01,0.16,
2.295,0.29,0.08,0.13,-0.08,-0.01,0.15,
2.297,0.29,0.08,0.13,-0.08,-0.00,0.15,
2.3,0.29,0.08,0.13,-0.08,0.00,0.14,
2.313,0.29,0.06,0.12,-0.08,0.00,0.14,
2.313,0.29,0.06,0.12,-0.08,0.01,0.14,
2.313,0.29,0.06,0.12,-0.08,0.02,0.13,
2.313,0.29,0.03,0.16,-0.08,0.02,0.13,
2.314,0.29,0.03,0.16,-0.08,0.02,0.13,
2.314,0.29,0.03,0.16,-0.08,0.03,0.12,
2.314,0.25,-0.01,0.18,-0.08,0.03,0.12,
2.315,0.25,-0.01,0.18,-0.07,0.04,0.12,
2.315,0.25,-0.01,0.18,-0.07,0.04,0.12,
2.315,0.18,-0.06,0.18,-0.07,0.04,0.12,
2.323,0.18,-0.06,0.18,-0.06,0.04,0.12,
2.324,0.18,-0.06,0.18,-0.06,0.04,0.11,
2.324,0.18,-0.06,0.18,-0.06,0.05,0.11,
2.324,0.10,-0.08,0.10,-0.06,0.05,0.11,
2.324,0.01,-0.07,0.03,-0.06,0.05,0.11,
2.328,0.01,-0.07,0.03,-0.06,0.05,0.11,
2.33,0.01,-0.07,0.03,-0.06,0.04,0.11,
2.33,0.01,-0.07,0.03,-0.06,0.04,0.11,
2.331,-0.05,-0.05,-0.01,-0.06,0.04,0.11,
2.333,-0.05,-0.05,-0.01,-0.06,0.04,0.11,
2.334,-0.10,-0.04,-0.00,-0.06,0.04,0.11,
2.335,-0.10,-0.04,-0.00,-0.06,0.03,0.11,
2.336,-0.10,-0.04,-0.00,-0.06,0.03,0.11,
2.34,-0.13,-0.00,0.05,-0.06,0.03,0.11,
2.34,-0.13,-0.00,0.05,-0.06,0.02,0.11,
2.344,-0.13,-0.00,0.05,-0.06,0.02,0.11,
2.347,-0.10,0.03,0.13,-0.06,0.02,0.11,
2.348,-0.10,0.03,0.13,-0.06,0.01,0.11,
2.348,-0.10,0.03,0.13,-0.06,0.01,0.11,
2.349,-0.05,0.01,0.17,-0.06,0.01,0.11,
2.349,-0.05,0.01,0.17,-0.06,0.00,0.12,
2.352,-0.05,0.01,0.17,-0.05,-0.00,0.11,
2.355,-0.05,0.01,0.17,-0.05,-0.01,0.11,
2.355,-0.01,-0.04,0.16,-0.05,-0.01,0.11,
2.357,-0.01,-0.04,0.16,-0.05,-0.01,0.11,
2.366,0.08,-0.05,0.08,-0.05,-0.01,0.11,
2.367,0.08,-0.05,0.08,-0.05,-0.02,0.11,
2.367,0.08,-0.05,0.08,-0.04,-0.01,0.11,
2.367,0.08,-0.05,0.08,-0.04,-0.01,0.11,
2.367,0.08,-0.05,0.08,-0.04,-0.01,0.10,
2.368,0.16,-0.07,0.01,-0.04,-0.01,0.10,
2.37,0.16,-0.07,0.01,-0.04,-0.01,0.10,
2.37,0.19,-0.08,0.00,-0.04,-0.01,0.10,
2.372,0.19,-0.08,0.00,-0.04,-0.01,0.10,
2.374,0.19,-0.08,0.00,-0.04,-0.01,0.09,
2.375,0.22,-0.07,0.05,-0.04,-0.01,0.09,
2.378,0.22,-0.07,0.05,-0.04,-0.01,0.09,
2.379,0.22,-0.07,0.05,-0.04,-0.01,0.09,
2.379,0.22,-0.07,0.06,-0.04,-0.01,0.09,
2.382,0.22,-0.07,0.06,-0.04,-0.00,0.08,
2.384,0.22,-0.07,0.06,-0.04,-0.00,0.08,
2.384,0.18,-0.05,0.09,-0.04,-0.00,0.08,
2.386,0.18,-0.05,0.09,-0.03,-0.00,0.08,
2.389,0.18,-0.05,0.09,-0.03,-0.00,0.08,
2.389,0.14,-0.05,0.06,-0.03,-0.00,0.08,
2.391,0.14,-0.05,0.06,-0.03,0.00,0.08,
2.395,0.14,-0.05,0.06,-0.03,0.00,0.07,
2.395,0.11,-0.04,0.06,-0.03,0.00,0.07,
2.396,0.11,-0.04,0.06,-0.03,0.00,0.07,
2.399,0.11,-0.04,0.06,-0.03,0.00,0.07,
2.399,0.06,-0.03,0.03,-0.03,0.00,0.07,
2.401,0.06,-0.03,0.03,-0.03,0.00,0.07,
2.407,0.02,-0.05,0.03,-0.03,0.00,0.07,
2.407,0.02,-0.05,0.03,-0.03,0.00,0.07,
2.408,0.02,-0.05,0.03,-0.03,0.00,0.07,
2.41,0.02,-0.05,0.03,-0.03,-0.00,0.07,
2.411,-0.01,-0.03,0.04,-0.03,-0.00,0.07,
2.411,-0.01,-0.03,0.04,-0.03,-0.00,0.07,
2.414,-0.04,-0.03,0.04,-0.03,-0.00,0.07,
2.414,-0.04,-0.03,0.04,-0.03,-0.00,0.07,
2.417,-0.04,-0.03,0.04,-0.03,-0.00,0.07,
2.419,-0.07,-0.04,0.04,-0.03,-0.00,0.07,
2.419,-0.07,-0.04,0.04,-0.03,-0.00,0.07,
2.421,-0.07,-0.04,0.04,-0.03,-0.01,0.07,
2.424,-0.07,-0.04,0.04,-0.03,-0.01,0.07,
2.424,-0.08,-0.05,0.04,-0.03,-0.01,0.07,
2.427,-0.08,-0.05,0.04,-0.03,-0.01,0.08,
2.437,-0.08,-0.05,0.04,-0.03,-0.01,0.08,
2.438,-0.08,-0.04,0.04,-0.03,-0.01,0.08,
2.438,-0.08,-0.04,0.04,-0.03,-0.02,0.08,
2.438,-0.04,-0.06,0.00,-0.03,-0.02,0.08,
2.438,-0.04,-0.06,0.00,-0.03,-0.02,0.08,
2.438,-0.04,-0.06,0.00,-0.03,-0.03,0.08,
2.439,-0.04,-0.06,0.00,-0.03,-0.03,0.08,
2.439,-0.05,-0.10,-0.01,-0.03,-0.03,0.08,
2.441,-0.05,-0.10,-0.01,-0.03,-0.03,0.08,
2.444,-0.05,-0.10,-0.01,-0.03,-0.03,0.08,
2.446,-0.07,-0.10,-0.03,-0.03,-0.03,0.08,
2.447,-0.07,-0.10,-0.03,-0.03,-0.03,0.08,
2.449,-0.07,-0.10,-0.03,-0.03,-0.03,0.09,
2.449,-0.09,-0.09,-0.06,-0.03,-0.03,0.09,
2.451,-0.09,-0.09,-0.06,-0.03,-0.03,0.09,
2.453,-0.08,-0.08,-0.07,-0.03,-0.03,0.09,
2.454,-0.08,-0.08,-0.07,-0.04,-0.04,0.09,
2.456,-0.08,-0.08,-0.07,-0.04,-0.04,0.09,
2.459,-0.08,-0.08,-0.07,-0.04,-0.04,0.09,
2.459,-0.05,-0.08,-0.06,-0.04,-0.04,0.09,
2.461,-0.05,-0.08,-0.06,-0.04,-0.04,0.09,
2.464,-0.05,-0.08,-0.06,-0.04,-0.05,0.10,
2.465,-0.04,-0.07,-0.07,-0.04,-0.05,0.10,
2.48,-0.04,-0.07,-0.07,-0.04,-0.05,0.10,
2.48,-0.00,-0.05,-0.10,-0.04,-0.05,0.10,
2.481,-0.00,-0.05,-0.10,-0.04,-0.06,0.10,
2.481,-0.00,-0.05,-0.10,-0.05,-0.06,0.10,
2.481,-0.00,-0.05,-0.10,-0.05,-0.06,0.10,
2.482,-0.04,-0.01,-0.12,-0.05,-0.06,0.10,
2.482,-0.04,-0.01,-0.12,-0.05,-0.06,0.10,
2.482,-0.07,-0.01,-0.16,-0.05,-0.06,0.10,
2.482,-0.07,-0.01,-0.16,-0.05,-0.06,0.10,
2.483,-0.07,-0.01,-0.16,-0.06,-0.05,0.10,
2.483,-0.07,-0.01,-0.16,-0.06,-0.05,0.11,
2.483,-0.11,0.01,-0.16,-0.06,-0.05,0.11,
2.485,-0.11,0.01,-0.16,-0.06,-0.05,0.11,
2.488,-0.11,0.01,-0.16,-0.06,-0.05,0.11,
2.488,-0.13,0.02,-0.14,-0.06,-0.05,0.11,
2.49,-0.13,0.02,-0.14,-0.07,-0.05,0.11,
2.493,-0.08,0.05,-0.14,-0.07,-0.05,0.11,
2.494,-0.08,0.05,-0.14,-0.07,-0.05,0.12,
2.496,-0.08,0.05,-0.14,-0.07,-0.05,0.12,
2.498,-0.08,0.05,-0.14,-0.07,-0.05,0.12,
2.498,-0.05,0.06,-0.16,-0.07,-0.05,0.12,
2.501,-0.05,0.06,-0.16,-0.08,-0.05,0.12,
2.506,-0.01,0.05,-0.14,-0.08,-0.05,0.12,
2.51,-0.01,0.05,-0.14,-0.08,-0.05,0.12,
2.51,-0.01,0.05,-0.14,-0.08,-0.05,0.12,
2.51,-0.01,0.05,-0.14,-0.08,-0.05,0.13,
2.51,-0.03,0.02,-0.17,-0.08,-0.05,0.13,
2.511,-0.03,0.02,-0.17,-0.08,-0.04,0.13,
2.513,-0.03,0.02,-0.17,-0.09,-0.04,0.13,
2.514,-0.03,-0.01,-0.17,-0.09,-0.04,0.13,
2.515,-0.03,-0.01,-0.17,-0.09,-0.04,0.13,
2.518,-0.03,-0.01,-0.17,-0.09,-0.04,0.13,
2.518,-0.05,-0.02,-0.16,-0.09,-0.04,0.13,
2.52,-0.05,-0.02,-0.16,-0.09,-0.03,0.13,
2.524,-0.05,-0.02,-0.16,-0.10,-0.03,0.13,
2.524,-0.03,-0.01,-0.12,-0.10,-0.03,0.13,
2.529,-0.03,-0.01,-0.12,-0.10,-0.03,0.13,
2.534,-0.00,-0.01,-0.05,-0.10,-0.03,0.13,
2.534,-0.00,-0.01,-0.05,-0.10,-0.03,0.14,
2.534,-0.00,-0.01,-0.05,-0.11,-0.03,0.14,
2.535,0.04,0.00,-0.00,-0.11,-0.03,0.14,
2.535,0.04,0.00,-0.00,-0.11,-0.04,0.14,
2.536,0.04,0.00,-0.00,-0.11,-0.04,0.14,
2.537,0.06,0.00,0.00,-0.11,-0.04,0.14,
2.538,0.06,0.00,0.00,-0.11,-0.04,0.14,
2.54,0.06,0.00,0.00,-0.11,-0.04,0.14,
2.543,0.09,0.01,0.00,-0.11,-0.04,0.14,
2.543,0.09,0.01,0.00,-0.11,-0.03,0.14,
2.545,0.09,0.01,0.00,-0.11,-0.03,0.13,
2.548,0.09,0.01,0.00,-0.11,-0.03,0.13,
2.548,0.06,0.02,-0.03,-0.11,-0.03,0.13,
2.55,0.06,0.02,-0.03,-0.11,-0.03,0.14,
2.553,0.06,0.02,-0.03,-0.12,-0.03,0.13,
2.554,0.05,0.03,-0.04,-0.12,-0.03,0.13,
2.555,0.05,0.03,-0.04,-0.12,-0.03,0.13,
2.557,0.05,0.03,-0.04,-0.12,-0.03,0.13,
2.557,0.03,0.02,-0.03,-0.12,-0.03,0.13,
2.56,0.03,0.02,-0.03,-0.13,-0.02,0.14,
2.563,0.01,0.03,0.02,-0.13,-0.02,0.14,
2.563,0.01,0.03,0.02,-0.13,-0.02,0.14,
2.565,0.01,0.03,0.02,-0.13,-0.02,0.14,
2.568,0.01,0.03,0.02,-0.13,-0.02,0.13,
2.568,0.01,0.03,-0.01,-0.13,-0.02,0.13,
2.571,0.01,0.03,-0.01,-0.13,-0.03,0.14,
2.572,0.01,0.03,-0.01,-0.14,-0.02,0.14,
2.573,-0.03,0.03,-0.01,-0.14,-0.02,0.14,
2.575,-0.03,0.03,-0.01,-0.14,-0.02,0.14,
2.579,-0.03,0.03,-0.01,-0.14,-0.02,0.14,
2.58,-0.10,0.02,-0.02,-0.14,-0.02,0.14,
2.58,-0.10,0.02,-0.02,-0.14,-0.02,0.14,
2.586,-0.13,0.01,0.01,-0.14,-0.02,0.14,
2.586,-0.13,0.01,0.01,-0.14,-0.02,0.14,
2.586,-0.13,0.01,0.01,-0.14,-0.02,0.15,
2.587,-0.12,0.02,0.01,-0.14,-0.02,0.15,
2.587,-0.12,0.02,0.01,-0.14,-0.02,0.15,
2.591,-0.12,0.02,0.01,-0.14,-0.02,0.15,
2.593,-0.09,0.02,-0.00,-0.14,-0.02,0.15,
2.594,-0.09,0.02,-0.00,-0.14,-0.02,0.15,
2.595,-0.09,0.02,-0.00,-0.15,-0.03,0.16,
2.597,-0.09,0.02,-0.00,-0.15,-0.03,0.16,
2.597,-0.07,0.03,-0.09,-0.15,-0.03,0.16,
2.6,-0.07,0.03,-0.09,-0.15,-0.03,0.16,
2.602,-0.06,0.06,-0.17,-0.15,-0.03,0.16,
2.603,-0.06,0.06,-0.17,-0.15,-0.03,0.16,
2.604,-0.06,0.06,-0.17,-0.15,-0.03,0.16,
2.607,-0.06,0.06,-0.17,-0.16,-0.03,0.16,
2.608,-0.06,0.09,-0.17,-0.16,-0.03,0.16,
2.611,-0.06,0.09,-0.17,-0.16,-0.03,0.16,
2.612,-0.05,0.13,-0.12,-0.16,-0.03,0.16,
2.613,-0.05,0.13,-0.12,-0.16,-0.02,0.16,
2.614,-0.05,0.13,-0.12,-0.17,-0.02,0.16,
2.617,-0.05,0.13,-0.12,-0.17,-0.02,0.16,
2.617,0.01,0.11,-0.07,-0.17,-0.02,0.16,
2.619,0.01,0.11,-0.07,-0.17,-0.02,0.16,
2.622,0.01,0.11,-0.07,-0.17,-0.02,0.16,
2.622,0.10,0.09,-0.03,-0.17,-0.02,0.16,
2.625,0.10,0.09,-0.03,-0.17,-0.02,0.16,
2.63,0.11,0.04,0.00,-0.17,-0.02,0.16,
2.631,0.11,0.04,0.00,-0.17,-0.02,0.16,
2.631,0.11,0.04,0.00,-0.17,-0.02,0.16,
2.646,0.11,0.04,0.00,-0.17,-0.01,0.16,
2.647,0.11,0.04,0.00,-0.17,-0.01,0.16,
2.647,0.13,0.00,-0.00,-0.17,-0.01,0.16,
2.647,0.12,-0.02,-0.03,-0.17,-0.01,0.16,
2.647,0.12,-0.02,-0.03,-0.18,-0.01,0.16,
2.648,0.12,-0.02,-0.03,-0.18,-0.00,0.16,
2.648,0.10,-0.02,-0.06,-0.18,-0.00,0.16,
2.648,0.10,-0.02,-0.06,-0.18,0.00,0.16,
2.648,0.10,-0.02,-0.06,-0.18,0.00,0.16,
2.649,0.10,-0.02,-0.06,-0.18,0.01,0.16,
2.649,0.04,0.02,-0.09,-0.18,0.01,0.16,
2.649,0.04,0.02,-0.09,-0.19,0.01,0.16,
2.652,-0.02,0.05,-0.12,-0.19,0.01,0.16,
2.653,-0.02,0.05,-0.12,-0.19,0.01,0.16,
2.654,-0.02,0.05,-0.12,-0.19,0.01,0.16,
2.657,-0.02,0.05,-0.12,-0.20,0.01,0.16,
2.657,-0.10,0.08,-0.11,-0.20,0.01,0.16,
2.66,-0.10,0.08,-0.11,-0.20,0.01,0.16,
2.662,-0.10,0.08,-0.11,-0.20,0.01,0.17,
2.662,-0.15,0.10,-0.16,-0.20,0.01,0.17,
2.666,-0.15,0.10,-0.16,-0.21,0.01,0.17,
2.666,-0.15,0.10,-0.16,-0.21,0.01,0.18,
2.667,-0.19,0.10,-0.20,-0.21,0.01,0.18,
2.669,-0.19,0.10,-0.20,-0.22,0.01,0.18,
2.672,-0.25,0.07,-0.25,-0.22,0.01,0.18,
2.673,-0.25,0.07,-0.25,-0.22,0.00,0.18,
2.674,-0.25,0.07,-0.25,-0.22,0.00,0.18,
2.677,-0.25,0.07,-0.25,-0.22,-0.00,0.19,
2.679,-0.35,-0.00,-0.32,-0.22,-0.00,0.19,
2.679,-0.35,-0.00,-0.32,-0.22,-0.00,0.19,
2.683,-0.34,-0.07,-0.37,-0.22,-0.00,0.19,
2.683,-0.34,-0.07,-0.37,-0.22,-0.00,0.19,
2.685,-0.34,-0.07,-0.37,-0.23,-0.01,0.19,
2.686,-0.34,-0.07,-0.37,-0.23,-0.01,0.20,
2.687,-0.22,-0.10,-0.27,-0.23,-0.01,0.20,
2.69,-0.22,-0.10,-0.27,-0.24,-0.02,0.20,
2.693,0.01,-0.13,-0.02,-0.24,-0.02,0.20,
2.693,0.01,-0.13,-0.02,-0.24,-0.03,0.20,
2.694,0.01,-0.13,-0.02,-0.25,-0.04,0.20,
2.698,0.26,-0.15,0.24,-0.25,-0.04,0.20,
2.698,0.26,-0.15,0.24,-0.24,-0.04,0.19,
2.699,0.26,-0.15,0.24,-0.24,-0.04,0.19,
2.701,0.26,-0.15,0.24,-0.23,-0.05,0.18,
2.701,0.46,-0.18,0.34,-0.23,-0.05,0.18,
2.703,0.46,-0.18,0.34,-0.22,-0.05,0.17,
2.706,0.46,-0.18,0.34,-0.21,-0.04,0.16,
2.706,0.56,-0.18,0.28,-0.21,-0.04,0.16,
2.71,0.56,-0.18,0.28,-0.21,-0.03,0.15,
2.713,0.56,-0.18,0.28,-0.21,-0.03,0.14,
2.714,0.56,-0.18,0.28,-0.20,-0.02,0.13,
2.714,0.55,-0.15,0.20,-0.20,-0.02,0.13,
2.716,0.55,-0.15,0.20,-0.20,-0.02,0.12,
2.716,0.55,-0.12,0.20,-0.20,-0.02,0.12,
2.719,0.55,-0.12,0.20,-0.20,-0.01,0.11,
2.721,0.55,-0.12,0.20,-0.19,-0.01,0.11,
2.721,0.56,-0.05,0.27,-0.19,-0.01,0.11,
2.724,0.56,-0.05,0.27,-0.19,-0.01,0.10,
2.73,0.54,0.00,0.37,-0.19,-0.01,0.10,
2.73,0.54,0.00,0.37,-0.19,-0.01,0.09,
2.731,0.54,0.00,0.37,-0.18,-0.00,0.08,
2.733,0.52,0.04,0.41,-0.18,-0.00,0.08,
2.733,0.52,0.04,0.41,-0.17,-0.00,0.07,
2.733,0.52,0.04,0.41,-0.17,-0.00,0.06,
2.736,0.52,0.04,0.41,-0.17,-0.01,0.05,
2.737,0.51,0.09,0.38,-0.17,-0.01,0.05,
2.738,0.51,0.09,0.38,-0.16,-0.01,0.04,
2.741,0.47,0.13,0.34,-0.16,-0.01,0.04,
2.741,0.47,0.13,0.34,-0.16,-0.02,0.03,
2.759,0.47,0.13,0.34,-0.16,-0.03,0.02,
2.76,0.37,0.19,0.33,-0.16,-0.03,0.02,
2.768,0.37,0.19,0.33,-0.16,-0.03,0.02,
2.769,0.26,0.24,0.29,-0.16,-0.03,0.02,
2.77,0.26,0.24,0.29,-0.16,-0.04,0.01,
2.77,0.26,0.24,0.29,-0.15,-0.04,0.00,
2.77,0.26,0.24,0.29,-0.15,-0.04,0.00,
2.771,0.26,0.24,0.29,-0.15,-0.04,-0.00,
2.771,0.10,0.25,0.21,-0.15,-0.04,-0.00,
2.772,0.10,0.25,0.21,-0.15,-0.04,-0.01,
2.772,-0.00,0.24,0.11,-0.15,-0.04,-0.01,
2.772,-0.00,0.24,0.11,-0.15,-0.05,-0.01,
2.773,-0.00,0.24,0.11,-0.15,-0.06,-0.01,
2.773,-0.15,0.23,0.04,-0.15,-0.06,-0.01,
2.773,-0.15,0.23,0.04,-0.15,-0.07,-0.01,
2.774,-0.15,0.23,0.04,-0.15,-0.08,-0.00,
2.774,-0.29,0.18,0.03,-0.15,-0.08,-0.00,
2.774,-0.29,0.18,0.03,-0.15,-0.09,-0.00,
2.775,-0.29,0.18,0.03,-0.16,-0.10,0.00,
2.776,-0.29,0.18,0.03,-0.16,-0.10,0.01,
2.78,-0.29,0.18,0.03,-0.16,-0.10,0.01,
2.784,-0.39,0.10,0.00,-0.16,-0.10,0.01,
2.785,-0.40,0.07,-0.02,-0.16,-0.10,0.01,
2.785,-0.40,0.07,-0.02,-0.16,-0.10,0.02,
2.785,-0.40,0.07,-0.02,-0.16,-0.10,0.03,
2.786,-0.40,0.07,-0.02,-0.17,-0.10,0.03,
2.786,-0.37,0.01,-0.02,-0.17,-0.10,0.03,
2.788,-0.37,0.01,-0.02,-0.17,-0.10,0.04,
2.79,-0.26,0.03,-0.03,-0.17,-0.10,0.04,
2.791,-0.26,0.03,-0.03,-0.17,-0.10,0.05,
2.796,-0.18,0.09,-0.05,-0.17,-0.10,0.05,
2.796,-0.18,0.09,-0.05,-0.18,-0.10,0.05,
2.81,-0.18,0.09,-0.05,-0.18,-0.10,0.06,
2.81,-0.18,0.09,-0.05,-0.18,-0.10,0.06,
2.811,-0.17,0.18,-0.13,-0.18,-0.10,0.06,
2.812,-0.20,0.26,-0.21,-0.18,-0.10,0.06,
2.812,-0.20,0.26,-0.21,-0.19,-0.10,0.06,
2.813,-0.20,0.26,-0.21,-0.19,-0.10,0.07,
2.813,-0.20,0.26,-0.21,-0.20,-0.09,0.07,
2.813,-0.20,0.26,-0.21,-0.20,-0.09,0.07,
2.813,-0.20,0.26,-0.21,-0.21,-0.09,0.08,
2.813,-0.27,0.32,-0.27,-0.21,-0.09,0.08,
2.815,-0.27,0.32,-0.27,-0.22,-0.08,0.08,
2.816,-0.27,0.32,-0.27,-0.23,-0.07,0.09,
2.816,-0.33,0.39,-0.32,-0.23,-0.07,0.09,
2.818,-0.33,0.39,-0.32,-0.24,-0.07,0.10,
2.82,-0.33,0.39,-0.32,-0.25,-0.07,0.10,
2.821,-0.42,0.47,-0.24,-0.25,-0.07,0.10,
2.823,-0.42,0.47,-0.24,-0.25,-0.07,0.11,
2.825,-0.42,0.47,-0.24,-0.26,-0.07,0.12,
2.825,-0.52,0.53,-0.18,-0.26,-0.07,0.12,
2.832,-0.52,0.53,-0.18,-0.26,-0.08,0.13,
2.834,-0.52,0.59,-0.15,-0.26,-0.08,0.13,
2.836,-0.52,0.64,-0.19,-0.26,-0.08,0.13,
2.836,-0.52,0.64,-0.19,-0.27,-0.08,0.13,
2.836,-0.52,0.64,-0.19,-0.28,-0.09,0.15,
2.837,-0.52,0.64,-0.19,-0.28,-0.10,0.15,
2.837,-0.52,0.64,-0.19,-0.29,-0.10,0.16,
2.84,-0.52,0.64,-0.19,-0.31,-0.11,0.16,
2.84,-0.50,0.73,-0.28,-0.31,-0.11,0.16,
2.843,-0.50,0.73,-0.28,-0.33,-0.11,0.17,
2.845,-0.50,0.73,-0.28,-0.33,-0.12,0.18,
2.846,-0.74,0.85,-0.16,-0.33,-0.12,0.18,
2.847,-0.74,0.85,-0.16,-0.33,-0.12,0.19,
2.85,-0.74,0.85,-0.16,-0.34,-0.12,0.21,
2.85,-0.81,0.93,-0.28,-0.34,-0.12,0.21,
2.852,-0.81,0.93,-0.28,-0.34,-0.12,0.23,
2.855,-0.81,0.93,-0.28,-0.35,-0.12,0.25,
2.855,-0.82,1.00,-0.50,-0.35,-0.12,0.25,
2.858,-0.82,1.00,-0.50,-0.36,-0.11,0.27,
2.864,-0.82,1.00,-0.50,-0.38,-0.11,0.28,
2.864,-0.94,1.08,-0.85,-0.38,-0.11,0.28,
2.865,-0.94,1.08,-0.85,-0.41,-0.09,0.29,
2.866,-1.19,1.17,-1.06,-0.41,-0.09,0.29,
2.866,-1.19,1.17,-1.06,-0.43,-0.07,0.31,
2.867,-1.19,1.17,-1.06,-0.44,-0.05,0.32,
2.87,-1.19,1.17,-1.06,-0.46,-0.03,0.35,
2.87,-1.52,1.23,-1.11,-0.46,-0.03,0.35,
2.873,-1.52,1.23,-1.11,-0.48,-0.01,0.37,
2.876,-1.52,1.23,-1.11,-0.49,0.01,0.40,
2.879,-1.65,1.28,-1.03,-0.49,0.01,0.40,
2.88,-1.65,1.28,-1.03,-0.51,0.02,0.43,
2.88,-1.65,1.28,-1.03,-0.52,0.04,0.46,
2.88,-1.60,1.30,-0.91,-0.52,0.04,0.46,
2.882,-1.60,1.30,-0.91,-0.54,0.05,0.48,
2.885,-1.60,1.30,-0.91,-0.55,0.06,0.50,
2.885,-1.49,1.33,-0.77,-0.55,0.06,0.50,
2.887,-1.49,1.33,-0.77,-0.56,0.06,0.52,
2.89,-1.49,1.33,-0.77,-0.56,0.07,0.54,
2.89,-1.38,1.38,-0.62,-0.56,0.07,0.54,
2.893,-1.38,1.38,-0.62,-0.57,0.07,0.56,
2.896,-1.18,1.41,-0.58,-0.57,0.07,0.56,
2.897,-1.18,1.41,-0.58,-0.58,0.08,0.58,
2.898,-1.18,1.41,-0.58,-0.59,0.08,0.60,
2.899,-1.18,1.41,-0.58,-0.60,0.09,0.62,
2.9,-1.08,1.49,-0.68,-0.60,0.09,0.62,
2.902,-1.08,1.49,-0.68,-0.61,0.11,0.63,
2.905,-1.14,1.48,-0.89,-0.61,0.11,0.63,
2.908,-1.14,1.48,-0.89,-0.62,0.14,0.64,
2.908,-1.14,1.48,-0.89,-0.64,0.19,0.64,
2.91,-1.14,1.48,-0.89,-0.65,0.27,0.64,
2.911,-1.42,1.41,-1.02,-0.65,0.27,0.64,
2.912,-1.42,1.41,-1.02,-0.65,0.35,0.63,
2.915,-1.42,1.41,-1.02,-0.65,0.43,0.62,
2.915,-1.73,1.28,-0.95,-0.65,0.43,0.62,
2.92,-1.73,1.28,-0.95,-0.65,0.50,0.62,
2.921,-1.73,1.28,-0.95,-0.65,0.57,0.61,
2.921,-1.85,1.15,-0.82,-0.65,0.57,0.61,
2.922,-1.85,1.15,-0.82,-0.65,0.61,0.61,
2.925,-1.85,1.15,-0.82,-0.65,0.66,0.60,
2.925,-1.82,1.02,-0.87,-0.65,0.66,0.60,
2.936,-1.82,1.02,-0.87,-0.65,0.69,0.59,
2.936,-1.82,1.02,-0.87,-0.66,0.73,0.58,
2.936,-1.84,0.95,-0.92,-0.66,0.73,0.58,
2.936,-1.84,0.95,-0.92,-0.67,0.77,0.56,
2.938,-1.84,0.95,-0.92,-0.67,0.82,0.55,
2.939,-1.84,0.95,-0.92,-0.67,0.86,0.53,
2.939,-1.87,0.84,-0.87,-0.67,0.86,0.53,
2.939,-1.87,0.84,-0.87,-0.67,0.91,0.51,
2.939,-1.93,0.74,-0.69,-0.67,0.91,0.51,
2.942,-1.93,0.74,-0.69,-0.66,0.96,0.49,
2.947,-1.85,0.58,-0.64,-0.66,0.96,0.49,
2.948,-1.85,0.58,-0.64,-0.66,1.01,0.47,
2.948,-1.85,0.58,-0.64,-0.65,1.05,0.45,
2.949,-1.85,0.43,-0.76,-0.65,1.05,0.45,
2.949,-1.85,0.43,-0.76,-0.65,1.10,0.42,
2.952,-1.85,0.43,-0.76,-0.64,1.14,0.40,
2.954,-1.85,0.43,-0.76,-0.64,1.18,0.37,
2.954,-1.97,0.38,-0.89,-0.64,1.18,0.37,
2.959,-1.97,0.38,-0.89,-0.63,1.23,0.35,
2.959,-2.17,0.35,-1.02,-0.63,1.23,0.35,
2.959,-2.17,0.35,-1.02,-0.63,1.27,0.33,
2.974,-2.17,0.35,-1.02,-0.63,1.32,0.30,
2.975,-2.42,0.28,-1.06,-0.63,1.32,0.30,
2.975,-2.42,0.28,-1.06,-0.62,1.36,0.28,
2.975,-2.73,0.21,-1.05,-0.62,1.36,0.28,
2.975,-2.73,0.21,-1.05,-0.62,1.39,0.26,
2.976,-2.73,0.21,-1.05,-0.61,1.42,0.24,
2.976,-2.73,0.21,-1.05,-0.60,1.44,0.23,
2.976,-2.92,0.06,-0.99,-0.60,1.44,0.23,
2.976,-2.92,0.06,-0.99,-0.59,1.45,0.21,
2.977,-2.92,0.06,-0.99,-0.58,1.45,0.20,
2.981,-2.92,0.06,-0.99,-0.57,1.45,0.19,
2.981,-2.97,-0.08,-0.92,-0.57,1.45,0.19,
2.982,-2.97,-0.08,-0.92,-0.55,1.44,0.18,
2.984,-2.97,-0.08,-0.92,-0.53,1.43,0.17,
2.984,-2.85,-0.16,-0.83,-0.53,1.43,0.17,
2.986,-2.85,-0.16,-0.83,-0.51,1.40,0.17,
2.989,-2.85,-0.16,-0.83,-0.49,1.38,0.16,
2.989,-2.64,-0.17,-0.83,-0.49,1.38,0.16,
2.991,-2.64,-0.17,-0.83,-0.48,1.35,0.15,
2.994,-2.48,-0.13,-1.04,-0.48,1.35,0.15,
2.995,-2.48,-0.13,-1.04,-0.46,1.34,0.13,
2.997,-2.48,-0.13,-1.04,-0.45,1.34,0.11,
2.999,-2.48,-0.13,-1.04,-0.45,1.35,0.10,
2.999,-2.49,-0.10,-1.22,-0.45,1.35,0.10,
3.001,-2.49,-0.10,-1.22,-0.44,1.37,0.08,
3.003,-2.49,-0.10,-1.22,-0.44,1.39,0.06,
3.004,-2.63,-0.14,-1.09,-0.44,1.39,0.06,
3.006,-2.63,-0.14,-1.09,-0.43,1.41,0.04,
3.008,-2.63,-0.14,-1.09,-0.42,1.42,0.03,
3.009,-2.72,-0.24,-0.74,-0.42,1.42,0.03,
3.011,-2.72,-0.24,-0.74,-0.41,1.43,0.01,
3.014,-2.72,-0.24,-0.74,-0.40,1.43,-0.00,
3.014,-2.76,-0.38,-0.40,-0.40,1.43,-0.00,
3.016,-2.76,-0.38,-0.40,-0.38,1.41,-0.02,
3.018,-2.76,-0.38,-0.40,-0.37,1.39,-0.03,
3.019,-2.78,-0.44,-0.25,-0.37,1.39,-0.03,
3.021,-2.78,-0.44,-0.25,-0.35,1.37,-0.04,
3.023,-2.78,-0.44,-0.25,-0.33,1.35,-0.05,
3.024,-2.82,-0.48,-0.23,-0.33,1.35,-0.05,
3.027,-2.82,-0.48,-0.23,-0.30,1.32,-0.06,
3.034,-2.82,-0.48,-0.23,-0.28,1.28,-0.08,
3.035,-2.87,-0.49,-0.34,-0.28,1.28,-0.08,
3.035,-2.87,-0.49,-0.34,-0.26,1.25,-0.08,
3.035,-2.87,-0.49,-0.34,-0.24,1.22,-0.09,
3.035,-2.97,-0.52,-0.51,-0.24,1.22,-0.09,
3.037,-2.97,-0.52,-0.51,-0.22,1.19,-0.09,
3.039,-2.97,-0.52,-0.51,-0.19,1.16,-0.10,
3.039,-2.99,-0.57,-0.73,-0.19,1.16,-0.10,
3.042,-2.99,-0.57,-0.73,-0.17,1.13,-0.10,
3.044,-2.97,-0.62,-0.86,-0.17,1.13,-0.10,
3.045,-2.97,-0.62,-0.86,-0.15,1.11,-0.11,
3.047,-2.97,-0.62,-0.86,-0.14,1.08,-0.12,
3.049,-2.94,-0.71,-0.91,-0.14,1.08,-0.12,
3.05,-2.94,-0.71,-0.91,-0.12,1.06,-0.13,
3.05,-2.94,-0.71,-0.91,-0.10,1.04,-0.13,
3.054,-2.94,-0.71,-0.91,-0.08,1.01,-0.14,
3.054,-2.87,-0.79,-0.88,-0.08,1.01,-0.14,
3.056,-2.87,-0.79,-0.88,-0.06,0.99,-0.16,
3.058,-2.87,-0.79,-0.88,-0.04,0.96,-0.17,
3.059,-2.79,-0.88,-0.81,-0.04,0.96,-0.17,
3.063,-2.79,-0.88,-0.81,-0.01,0.94,-0.18,
3.064,-2.72,-0.94,-0.79,-0.01,0.94,-0.18,
3.064,-2.72,-0.94,-0.79,0.01,0.92,-0.20,
3.065,-2.72,-0.94,-0.79,0.03,0.90,-0.21,
3.068,-2.72,-0.94,-0.79,0.05,0.88,-0.23,
3.068,-2.70,-0.94,-0.82,0.05,0.88,-0.23,
3.07,-2.70,-0.94,-0.82,0.07,0.85,-0.24,
3.073,-2.70,-0.94,-0.82,0.10,0.83,-0.26,
3.073,-2.71,-0.90,-0.88,0.10,0.83,-0.26,
3.075,-2.71,-0.90,-0.88,0.12,0.81,-0.27,
3.079,-2.69,-0.85,-0.99,0.12,0.81,-0.27,
3.079,-2.69,-0.85,-0.99,0.14,0.79,-0.29,
3.08,-2.69,-0.85,-0.99,0.16,0.77,-0.30,
3.083,-2.66,-0.83,-1.04,0.16,0.77,-0.30,
3.083,-2.66,-0.83,-1.04,0.17,0.75,-0.31,
3.085,-2.66,-0.83,-1.04,0.19,0.74,-0.33,
3.088,-2.63,-0.86,-1.12,0.19,0.74,-0.33,
3.088,-2.63,-0.86,-1.12,0.21,0.72,-0.34,
3.09,-2.63,-0.86,-1.12,0.23,0.71,-0.36,
3.093,-2.57,-0.90,-1.13,0.23,0.71,-0.36,
3.096,-2.57,-0.90,-1.13,0.24,0.70,-0.37,
3.096,-2.57,-0.90,-1.13,0.26,0.68,-0.39,
3.098,-2.52,-0.95,-1.19,0.26,0.68,-0.39,
3.098,-2.52,-0.95,-1.19,0.27,0.67,-0.41,
3.1,-2.52,-0.95,-1.19,0.28,0.66,-0.42,
3.103,-2.44,-0.98,-1.22,0.28,0.66,-0.42,
3.104,-2.44,-0.98,-1.22,0.30,0.65,-0.44,
3.105,-2.44,-0.98,-1.22,0.31,0.64,-0.46,
3.108,-2.44,-0.98,-1.22,0.33,0.63,-0.48,
3.108,-2.40,-0.98,-1.21,0.33,0.63,-0.48,
3.112,-2.40,-0.98,-1.21,0.34,0.62,-0.50,
3.113,-2.40,-0.98,-1.21,0.35,0.60,-0.51,
3.115,-2.31,-0.98,-1.13,0.35,0.60,-0.51,
3.116,-2.31,-0.98,-1.13,0.36,0.59,-0.53,
3.118,-2.31,-0.98,-1.13,0.38,0.57,-0.55,
3.12,-2.31,-0.98,-1.13,0.39,0.55,-0.57,
3.12,-2.19,-1.00,-0.99,0.39,0.55,-0.57,
3.123,-2.19,-1.00,-0.99,0.41,0.54,-0.59,
3.123,-2.00,-1.00,-0.87,0.41,0.54,-0.59,
3.125,-2.00,-1.00,-0.87,0.43,0.52,-0.60,
3.15,-2.00,-1.00,-0.87,0.45,0.51,-0.63,
3.15,-1.79,-1.02,-0.88,0.45,0.51,-0.63,
3.15,-1.79,-1.02,-0.88,0.46,0.50,-0.65,
3.15,-1.79,-1.02,-0.88,0.48,0.49,-0.67,
3.15,-1.69,-1.01,-0.99,0.48,0.49,-0.67,
3.151,-1.69,-1.01,-0.99,0.50,0.49,-0.70,
3.151,-1.69,-1.01,-0.99,0.52,0.49,-0.72,
3.151,-1.71,-0.95,-1.13,0.52,0.49,-0.72,
3.151,-1.71,-0.95,-1.13,0.53,0.49,-0.75,
3.151,-1.71,-0.95,-1.13,0.55,0.50,-0.77,
3.151,-1.81,-0.89,-1.22,0.55,0.50,-0.77,
3.151,-1.81,-0.89,-1.22,0.57,0.50,-0.79,
3.152,-1.81,-0.89,-1.22,0.58,0.51,-0.80,
3.152,-1.92,-0.80,-1.32,0.58,0.51,-0.80,
3.152,-1.92,-0.80,-1.32,0.60,0.52,-0.82,
3.154,-1.92,-0.80,-1.32,0.62,0.52,-0.84,
3.155,-2.01,-0.71,-1.34,0.62,0.52,-0.84,
3.155,-2.01,-0.71,-1.34,0.63,0.53,-0.85,
3.158,-2.01,-0.71,-1.34,0.65,0.53,-0.86,
3.158,-2.05,-0.64,-1.34,0.65,0.53,-0.86,
3.16,-2.05,-0.64,-1.34,0.67,0.53,-0.87,
3.164,-2.03,-0.60,-1.30,0.67,0.53,-0.87,
3.165,-2.03,-0.60,-1.30,0.68,0.54,-0.89,
3.165,-2.03,-0.60,-1.30,0.70,0.54,-0.90,
3.168,-1.98,-0.60,-1.22,0.70,0.54,-0.90,
3.169,-1.98,-0.60,-1.22,0.71,0.54,-0.91,
3.17,-1.98,-0.60,-1.22,0.73,0.54,-0.93,
3.172,-1.93,-0.64,-1.12,0.73,0.54,-0.93,
3.173,-1.93,-0.64,-1.12,0.74,0.54,-0.94,
3.174,-1.93,-0.64,-1.12,0.76,0.53,-0.96,
3.178,-1.84,-0.68,-1.02,0.76,0.53,-0.96,
3.179,-1.84,-0.68,-1.02,0.77,0.53,-0.98,
3.18,-1.84,-0.68,-1.02,0.79,0.53,-0.99,
3.182,-1.77,-0.74,-0.90,0.79,0.53,-0.99,
3.182,-1.77,-0.74,-0.90,0.80,0.52,-1.01,
3.184,-1.77,-0.74,-0.90,0.82,0.52,-1.03,
3.187,-1.77,-0.74,-0.90,0.83,0.51,-1.05,
3.187,-1.68,-0.81,-0.83,0.83,0.51,-1.05,
3.189,-1.68,-0.81,-0.83,0.85,0.50,-1.07,
3.192,-1.68,-0.81,-0.83,0.86,0.49,-1.09,
3.192,-1.66,-0.84,-0.78,0.86,0.49,-1.09,
3.195,-1.66,-0.84,-0.78,0.88,0.48,-1.11,
3.197,-1.66,-0.84,-0.78,0.89,0.47,-1.12,
3.197,-1.62,-0.86,-0.73,0.89,0.47,-1.12,
3.2,-1.62,-0.86,-0.73,0.91,0.45,-1.14,
3.203,-1.62,-0.86,-0.73,0.92,0.44,-1.16,
3.203,-1.58,-0.84,-0.68,0.92,0.44,-1.16,
3.204,-1.58,-0.84,-0.68,0.93,0.42,-1.17,
3.207,-1.58,-0.84,-0.68,0.94,0.40,-1.19,
3.207,-1.53,-0.84,-0.60,0.94,0.40,-1.19,
3.21,-1.53,-0.84,-0.60,0.95,0.39,-1.20,
3.213,-1.53,-0.84,-0.60,0.96,0.37,-1.22,
3.214,-1.45,-0.75,-0.49,0.96,0.37,-1.22,
3.214,-1.45,-0.75,-0.49,0.98,0.35,-1.23,
3.217,-1.45,-0.75,-0.49,0.99,0.33,-1.25,
3.218,-1.36,-0.69,-0.39,0.99,0.33,-1.25,
3.219,-1.36,-0.69,-0.39,1.00,0.31,-1.26,
3.222,-1.36,-0.69,-0.39,1.01,0.29,-1.27,
3.222,-1.21,-0.63,-0.24,1.01,0.29,-1.27,
3.224,-1.21,-0.63,-0.24,1.02,0.27,-1.28,
3.227,-1.21,-0.63,-0.24,1.03,0.25,-1.29,
3.227,-1.00,-0.59,-0.04,1.03,0.25,-1.29,
3.231,-1.00,-0.59,-0.04,1.04,0.22,-1.31,
3.237,-1.00,-0.59,-0.04,1.05,0.20,-1.31,
3.237,-0.72,-0.52,0.14,1.05,0.20,-1.31,
3.237,-0.72,-0.52,0.14,1.06,0.17,-1.32,
3.237,-0.72,-0.52,0.14,1.07,0.14,-1.33,
3.238,-0.40,-0.46,0.24,1.07,0.14,-1.33,
3.242,-0.40,-0.46,0.24,1.09,0.11,-1.34,
3.242,-0.12,-0.38,0.23,1.09,0.11,-1.34,
3.242,-0.12,-0.38,0.23,1.10,0.08,-1.34,
3.246,-0.12,-0.38,0.23,1.11,0.06,-1.35,
3.247,0.05,-0.28,0.14,1.11,0.06,-1.35,
3.247,0.05,-0.28,0.14,1.12,0.04,-1.36,
3.249,0.05,-0.28,0.14,1.13,0.02,-1.37,
3.252,0.05,-0.28,0.14,1.13,0.00,-1.38,
3.252,0.12,-0.21,0.09,1.13,0.00,-1.38,
3.254,0.12,-0.21,0.09,1.14,-0.01,-1.38,
3.256,0.12,-0.21,0.09,1.15,-0.02,-1.39,
3.257,0.10,-0.18,0.08,1.15,-0.02,-1.39,
3.259,0.10,-0.18,0.08,1.15,-0.02,-1.40,
3.262,0.08,-0.16,0.14,1.15,-0.02,-1.40,
3.262,0.08,-0.16,0.14,1.16,-0.03,-1.40,
3.264,0.08,-0.16,0.14,1.16,-0.04,-1.41,
3.266,0.05,-0.18,0.22,1.16,-0.04,-1.41,
3.267,0.05,-0.18,0.22,1.17,-0.05,-1.41,
3.269,0.05,-0.18,0.22,1.17,-0.06,-1.41,
3.272,0.09,-0.17,0.25,1.17,-0.06,-1.41,
3.272,0.09,-0.17,0.25,1.17,-0.07,-1.41,
3.274,0.09,-0.17,0.25,1.17,-0.08,-1.42,
3.276,0.09,-0.17,0.25,1.17,-0.09,-1.42,
3.277,0.10,-0.17,0.32,1.17,-0.09,-1.42,
3.28,0.10,-0.17,0.32,1.17,-0.10,-1.41,
3.281,0.18,-0.18,0.38,1.17,-0.10,-1.41,
3.282,0.18,-0.18,0.38,1.17,-0.12,-1.41,
3.284,0.18,-0.18,0.38,1.16,-0.12,-1.41,
3.286,0.18,-0.18,0.38,1.16,-0.13,-1.41,
3.287,0.34,-0.16,0.47,1.16,-0.13,-1.41,
3.289,0.34,-0.16,0.47,1.16,-0.14,-1.41,
3.291,0.34,-0.16,0.47,1.16,-0.14,-1.41,
3.313,0.51,-0.17,0.57,1.16,-0.14,-1.41,
3.313,0.51,-0.17,0.57,1.15,-0.15,-1.41,
3.313,0.69,-0.16,0.64,1.15,-0.15,-1.41,
3.314,0.69,-0.16,0.64,1.15,-0.16,-1.41,
3.314,0.69,-0.16,0.64,1.15,-0.15,-1.41,
3.314,0.69,-0.16,0.64,1.15,-0.16,-1.41,
3.314,0.88,-0.13,0.71,1.15,-0.16,-1.41,
3.316,0.88,-0.13,0.71,1.14,-0.16,-1.41,
3.317,1.04,-0.06,0.76,1.14,-0.16,-1.41,
3.318,1.04,-0.06,0.76,1.14,-0.16,-1.41,
3.318,1.04,-0.06,0.76,1.13,-0.16,-1.41,
3.318,1.04,-0.06,0.76,1.13,-0.16,-1.41,
3.319,1.18,0.02,0.79,1.13,-0.16,-1.41,
3.319,1.18,0.02,0.79,1.12,-0.16,-1.41,
3.319,1.18,0.02,0.79,1.11,-0.16,-1.40,
3.319,1.29,0.08,0.82,1.11,-0.16,-1.40,
3.322,1.29,0.08,0.82,1.10,-0.15,-1.40,
3.326,1.29,0.08,0.82,1.09,-0.15,-1.39,
3.326,1.44,0.16,0.85,1.09,-0.15,-1.39,
3.326,1.44,0.16,0.85,1.08,-0.15,-1.39,
3.327,1.44,0.16,0.85,1.07,-0.15,-1.38,
3.327,1.54,0.23,0.94,1.07,-0.15,-1.38,
3.339,1.70,0.29,1.03,1.07,-0.15,-1.38,
3.34,1.88,0.37,1.06,1.07,-0.15,-1.38,
3.34,1.88,0.37,1.06,1.06,-0.15,-1.37,
3.34,1.88,0.37,1.06,1.05,-0.15,-1.36,
3.34,1.88,0.37,1.06,1.03,-0.14,-1.34,
3.34,1.88,0.37,1.06,1.02,-0.14,-1.33,
3.34,1.88,0.37,1.06,1.01,-0.14,-1.32,
3.341,1.88,0.37,1.06,0.99,-0.13,-1.30,
3.342,2.08,0.44,1.08,0.99,-0.13,-1.30,
3.343,2.08,0.44,1.08,0.98,-0.12,-1.29,
3.35,2.08,0.44,1.08,0.97,-0.11,-1.28,
3.35,2.25,0.56,1.13,0.97,-0.11,-1.28,
3.353,2.25,0.56,1.13,0.95,-0.10,-1.27,
3.353,2.25,0.56,1.13,0.94,-0.08,-1.25,
3.353,2.41,0.60,1.18,0.94,-0.08,-1.25,
3.354,2.41,0.60,1.18,0.92,-0.07,-1.24,
3.356,2.51,0.67,1.25,0.92,-0.07,-1.24,
3.361,2.51,0.67,1.25,0.91,-0.06,-1.22,
3.362,2.51,0.67,1.25,0.89,-0.05,-1.20,
3.368,2.64,0.69,1.31,0.89,-0.05,-1.20,
3.369,2.64,0.69,1.31,0.88,-0.04,-1.19,
3.369,2.64,0.69,1.31,0.86,-0.03,-1.17,
3.369,2.64,0.69,1.31,0.85,-0.02,-1.16,
3.369,2.80,0.72,1.36,0.85,-0.02,-1.16,
3.371,2.80,0.72,1.36,0.83,-0.01,-1.14,
3.371,2.80,0.72,1.36,0.81,0.00,-1.12,
3.371,2.92,0.77,1.41,0.81,0.00,-1.12,
3.376,2.98,0.83,1.47,0.81,0.00,-1.12,
3.376,2.98,0.83,1.47,0.80,0.02,-1.11,
3.376,2.98,0.83,1.47,0.79,0.03,-1.09,
3.38,2.98,0.83,1.47,0.77,0.04,-1.08,
3.381,2.98,0.83,1.47,0.76,0.05,-1.06,
3.381,3.08,0.85,1.49,0.76,0.05,-1.06,
3.384,3.08,0.85,1.49,0.74,0.07,-1.04,
3.385,3.08,0.85,1.49,0.73,0.07,-1.02,
3.385,3.13,0.84,1.54,0.73,0.07,-1.02,
3.388,3.13,0.84,1.54,0.72,0.08,-1.01,
3.39,3.13,0.84,1.54,0.70,0.09,-0.99,
3.391,3.13,0.79,1.58,0.70,0.09,-0.99,
3.393,3.13,0.79,1.58,0.69,0.10,-0.98,
3.396,3.13,0.79,1.58,0.68,0.11,-0.96,
3.396,3.11,0.69,1.63,0.68,0.11,-0.96,
3.398,3.11,0.69,1.63,0.66,0.11,-0.94,
3.4,3.11,0.69,1.63,0.65,0.12,-0.93,
3.4,3.10,0.59,1.66,0.65,0.12,-0.93,
3.403,3.10,0.59,1.66,0.64,0.12,-0.91,
3.405,3.10,0.59,1.66,0.63,0.13,-0.90,
3.405,3.07,0.49,1.73,0.63,0.13,-0.90,
3.408,3.07,0.49,1.73,0.62,0.13,-0.88,
3.411,3.07,0.49,1.73,0.61,0.12,-0.87,
3.411,3.02,0.43,1.80,0.61,0.12,-0.87,
3.413,3.02,0.43,1.80,0.60,0.12,-0.85,
3.415,3.02,0.43,1.80,0.59,0.12,-0.83,
3.416,3.01,0.37,1.87,0.59,0.12,-0.83,
3.418,3.01,0.37,1.87,0.58,0.11,-0.81,
3.42,3.01,0.37,1.87,0.57,0.11,-0.79,
3.42,3.02,0.35,1.94,0.57,0.11,-0.79,
3.423,3.02,0.35,1.94,0.57,0.10,-0.77,
3.425,3.02,0.35,1.94,0.56,0.09,-0.75,
3.425,3.02,0.39,2.00,0.56,0.09,-0.75,
3.429,3.02,0.39,2.00,0.56,0.08,-0.73,
3.435,3.02,0.39,2.00,0.55,0.07,-0.71,
3.435,2.99,0.51,2.06,0.55,0.07,-0.71,
3.436,2.99,0.51,2.06,0.55,0.05,-0.69,
3.436,2.99,0.51,2.06,0.54,0.04,-0.67,
3.436,2.91,0.67,2.10,0.54,0.04,-0.67,
3.438,2.91,0.67,2.10,0.54,0.02,-0.65,
3.44,2.82,0.89,2.09,0.54,0.02,-0.65,
3.44,2.82,0.89,2.09,0.54,-0.00,-0.63,
3.442,2.82,0.89,2.09,0.53,-0.03,-0.60,
3.447,2.75,1.03,2.09,0.53,-0.03,-0.60,
3.447,2.75,1.03,2.09,0.53,-0.05,-0.58,
3.448,2.75,1.03,2.09,0.52,-0.08,-0.55,
3.45,2.73,1.15,2.09,0.52,-0.08,-0.55,
3.45,2.73,1.15,2.09,0.51,-0.11,-0.52,
3.452,2.73,1.15,2.09,0.51,-0.15,-0.50,
3.455,2.73,1.15,2.09,0.50,-0.18,-0.47,
3.455,2.73,1.14,2.06,0.50,-0.18,-0.47,
3.468,2.73,1.14,2.06,0.49,-0.21,-0.45,
3.468,2.74,1.11,2.00,0.49,-0.21,-0.45,
3.468,2.74,1.11,2.00,0.48,-0.23,-0.42,
3.468,2.74,1.11,2.00,0.46,-0.25,-0.39,
3.468,2.74,1.11,2.00,0.44,-0.26,-0.35,
3.469,2.82,1.07,2.01,0.44,-0.26,-0.35,
3.469,2.82,1.07,2.01,0.42,-0.27,-0.32,
3.475,2.95,1.06,2.04,0.42,-0.27,-0.32,
3.476,2.95,1.06,2.04,0.40,-0.28,-0.29,
3.476,2.95,1.06,2.04,0.38,-0.29,-0.26,
3.476,2.95,1.06,2.04,0.36,-0.31,-0.23,
3.476,2.99,1.08,2.09,0.36,-0.31,-0.23,
3.477,2.99,1.08,2.09,0.34,-0.33,-0.20,
3.48,2.99,1.08,2.09,0.32,-0.35,-0.17,
3.481,2.88,1.12,2.13,0.32,-0.35,-0.17,
3.482,2.88,1.12,2.13,0.29,-0.38,-0.14,
3.485,2.88,1.12,2.13,0.27,-0.40,-0.10,
3.485,2.68,1.17,2.20,0.27,-0.40,-0.10,
3.487,2.68,1.17,2.20,0.26,-0.42,-0.05,
3.49,2.68,1.17,2.20,0.24,-0.44,-0.00,
3.49,2.67,1.15,2.25,0.24,-0.44,-0.00,
3.492,2.67,1.15,2.25,0.24,-0.46,0.05,
3.495,2.67,1.15,2.25,0.22,-0.48,0.10,
3.496,2.88,1.10,2.07,0.22,-0.48,0.10,
3.498,2.88,1.10,2.07,0.21,-0.50,0.14,
3.499,2.88,1.10,2.07,0.19,-0.51,0.18,
3.5,3.08,1.13,1.75,0.19,-0.51,0.18,
3.502,3.08,1.13,1.75,0.18,-0.52,0.22,
3.504,3.08,1.13,1.75,0.16,-0.52,0.27,
3.504,3.24,1.34,1.47,0.16,-0.52,0.27,
3.507,3.24,1.34,1.47,0.14,-0.52,0.31,
3.51,3.37,1.54,1.31,0.14,-0.52,0.31,
3.51,3.37,1.54,1.31,0.12,-0.52,0.35,
3.513,3.37,1.54,1.31,0.10,-0.52,0.40,
3.514,3.37,1.54,1.31,0.08,-0.52,0.45,
3.514,3.56,1.63,1.26,0.08,-0.52,0.45,
3.517,3.56,1.63,1.26,0.07,-0.51,0.51,
3.519,3.56,1.63,1.26,0.07,-0.49,0.55,
3.519,3.89,1.62,1.06,0.07,-0.49,0.55,
3.521,3.89,1.62,1.06,0.06,-0.48,0.60,
3.525,3.89,1.62,1.06,0.05,-0.46,0.64,
3.525,4.14,1.58,0.75,0.05,-0.46,0.64,
3.527,4.14,1.58,0.75,0.04,-0.44,0.68,
3.534,4.29,1.57,0.36,0.04,-0.44,0.68,
3.535,4.29,1.57,0.36,0.02,-0.42,0.73,
3.535,4.29,1.57,0.36,0.01,-0.39,0.78,
3.535,4.29,1.57,0.36,-0.01,-0.36,0.83,
3.537,4.45,1.61,0.09,-0.01,-0.36,0.83,
3.537,4.45,1.61,0.09,-0.03,-0.33,0.88,
3.54,4.45,1.61,0.09,-0.05,-0.30,0.92,
3.54,4.73,1.76,-0.14,-0.05,-0.30,0.92,
3.542,4.73,1.76,-0.14,-0.06,-0.26,0.95,
3.544,4.59,1.90,-0.85,-0.06,-0.26,0.95,
3.544,4.59,1.90,-0.85,-0.08,-0.21,0.95,
3.548,4.59,1.90,-0.85,-0.09,-0.14,0.91,
3.55,3.24,1.98,-2.40,-0.09,-0.14,0.91,
3.55,3.24,1.98,-2.40,-0.10,-0.04,0.84,
3.551,3.24,1.98,-2.40,-0.12,0.08,0.74,
3.554,3.24,1.98,-2.40,-0.14,0.23,0.62,
3.554,0.17,2.24,-3.97,-0.14,0.23,0.62,
3.556,0.17,2.24,-3.97,-0.16,0.39,0.51,
3.559,0.17,2.24,-3.97,-0.18,0.54,0.42,
3.559,-4.40,2.71,-4.02,-0.18,0.54,0.42,
3.564,-4.40,2.71,-4.02,-0.20,0.68,0.36,
3.564,-4.40,2.71,-4.02,-0.23,0.78,0.35,
3.564,-8.73,3.40,-2.62,-0.23,0.78,0.35,
3.566,-8.73,3.40,-2.62,-0.27,0.82,0.39,
3.569,-8.73,3.40,-2.62,-0.31,0.78,0.47,
3.57,-11.10,4.26,-0.27,-0.31,0.78,0.47,
3.575,-11.10,4.26,-0.27,-0.35,0.65,0.62,
3.575,-11.10,4.26,-0.27,-0.38,0.42,0.80,
3.576,-10.31,4.91,2.43,-0.38,0.42,0.80,
3.576,-10.31,4.91,2.43,-0.41,0.13,1.00,
3.581,-10.31,4.91,2.43,-0.43,-0.20,1.19,
3.581,-6.68,4.98,4.48,-0.43,-0.20,1.19,
3.582,-6.68,4.98,4.48,-0.41,-0.52,1.37,
3.584,-6.68,4.98,4.48,-0.38,-0.80,1.52,
3.584,-2.39,4.21,5.16,-0.38,-0.80,1.52,
3.586,-2.39,4.21,5.16,-0.32,-1.01,1.62,
3.589,-2.39,4.21,5.16,-0.24,-1.14,1.69,
3.589,1.36,2.93,4.63,-0.24,-1.14,1.69,
3.591,1.36,2.93,4.63,-0.16,-1.22,1.71,
3.594,3.80,1.77,3.18,-0.16,-1.22,1.71,
3.594,3.80,1.77,3.18,-0.07,-1.26,1.70,
3.597,3.80,1.77,3.18,-0.01,-1.29,1.68,
3.6,4.77,0.98,1.48,-0.01,-1.29,1.68,
3.6,4.77,0.98,1.48,0.04,-1.31,1.64,
3.601,4.77,0.98,1.48,0.06,-1.31,1.59,
3.603,4.77,0.98,1.48,0.06,-1.29,1.55,
3.604,4.27,0.59,0.51,0.06,-1.29,1.55,
3.606,4.27,0.59,0.51,0.04,-1.27,1.53,
3.609,2.55,0.78,0.87,0.04,-1.27,1.53,
3.61,2.55,0.78,0.87,0.03,-1.24,1.52,
3.611,2.55,0.78,0.87,0.03,-1.23,1.52,
3.614,0.72,0.84,2.10,0.03,-1.23,1.52,
3.616,0.72,0.84,2.10,0.03,-1.23,1.53,
3.616,0.72,0.84,2.10,0.06,-1.25,1.54,
3.619,-0.78,0.60,2.76,0.06,-1.25,1.54,
3.619,-0.78,0.60,2.76,0.09,-1.29,1.54,
3.621,-0.78,0.60,2.76,0.13,-1.33,1.55,
3.641,-1.63,0.03,2.50,0.13,-1.33,1.55,
3.641,-1.63,0.03,2.50,0.16,-1.37,1.56,
3.642,-1.63,0.03,2.50,0.19,-1.41,1.57,
3.642,-1.69,-0.66,1.43,0.19,-1.41,1.57,
3.642,-1.69,-0.66,1.43,0.21,-1.44,1.57,
3.642,-1.69,-0.66,1.43,0.22,-1.47,1.58,
3.642,-0.95,-1.23,0.06,0.22,-1.47,1.58,
3.642,-0.95,-1.23,0.06,0.22,-1.48,1.58,
3.643,-0.95,-1.23,0.06,0.21,-1.49,1.58,
3.643,0.41,-1.60,-1.20,0.21,-1.49,1.58,
3.643,0.41,-1.60,-1.20,0.19,-1.49,1.58,
3.643,0.41,-1.60,-1.20,0.16,-1.48,1.57,
3.643,2.03,-1.54,-1.99,0.16,-1.48,1.57,
3.643,2.03,-1.54,-1.99,0.13,-1.44,1.55,
3.648,2.03,-1.54,-1.99,0.11,-1.38,1.53,
3.651,3.46,-1.09,-2.31,0.11,-1.38,1.53,
3.653,3.46,-1.09,-2.31,0.08,-1.29,1.50,
3.654,3.46,-1.09,-2.31,0.06,-1.16,1.46,
3.654,3.46,-1.09,-2.31,0.04,-1.01,1.41,
3.654,4.70,-0.70,-2.21,0.04,-1.01,1.41,
3.656,4.70,-0.70,-2.21,0.02,-0.86,1.35,
3.658,4.70,-0.70,-2.21,0.01,-0.70,1.29,
3.658,5.40,-0.30,-1.76,0.01,-0.70,1.29,
3.66,5.40,-0.30,-1.76,-0.00,-0.54,1.22,
3.664,5.40,-0.30,-1.76,-0.01,-0.40,1.14,
3.665,5.66,-0.14,-1.16,-0.01,-0.40,1.14,
3.666,5.66,-0.14,-1.16,-0.02,-0.27,1.06,
3.668,5.66,-0.14,-1.16,-0.02,-0.16,0.99,
3.669,5.04,0.06,-0.60,-0.02,-0.16,0.99,
3.67,5.04,0.06,-0.60,-0.03,-0.07,0.93,
3.674,5.04,0.06,-0.60,-0.03,0.02,0.88,
3.674,3.67,0.29,-0.24,-0.03,0.02,0.88,
3.677,3.67,0.29,-0.24,-0.03,0.11,0.85,
3.679,3.67,0.29,-0.24,-0.03,0.18,0.83,
3.679,2.23,0.33,-0.09,-0.03,0.18,0.83,
3.682,2.23,0.33,-0.09,-0.04,0.23,0.81,
3.684,2.23,0.33,-0.09,-0.05,0.27,0.80,
3.684,0.87,0.23,0.08,-0.05,0.27,0.80,
3.686,0.87,0.23,0.08,-0.05,0.29,0.80,
3.689,0.87,0.23,0.08,-0.05,0.30,0.81,
3.689,-0.30,0.07,0.33,-0.05,0.30,0.81,
3.69,-0.30,0.07,0.33,-0.06,0.30,0.82,
3.693,-0.30,0.07,0.33,-0.05,0.28,0.84,
3.693,-1.16,-0.14,0.80,-0.05,0.28,0.84,
3.697,-1.16,-0.14,0.80,-0.05,0.25,0.86,
3.698,-1.16,-0.14,0.80,-0.04,0.21,0.89,
3.698,-1.61,-0.25,1.41,-0.04,0.21,0.89,
3.7,-1.61,-0.25,1.41,-0.03,0.16,0.91,
3.703,-1.61,-0.25,1.41,-0.01,0.09,0.94,
3.703,-1.62,-0.24,2.07,-0.01,0.09,0.94,
3.705,-1.62,-0.24,2.07,0.01,0.03,0.96,
3.708,-1.62,-0.24,2.07,0.04,-0.04,0.99,
3.708,-1.23,-0.08,2.56,0.04,-0.04,0.99,
3.71,-1.23,-0.08,2.56,0.07,-0.10,1.01,
3.713,-0.59,0.09,2.66,0.07,-0.10,1.01,
3.713,-0.59,0.09,2.66,0.10,-0.15,1.03,
3.715,-0.59,0.09,2.66,0.13,-0.19,1.04,
3.718,-0.59,0.09,2.66,0.16,-0.23,1.05,
3.718,0.02,0.20,2.39,0.16,-0.23,1.05,
3.72,0.02,0.20,2.39,0.19,-0.25,1.04,
3.723,0.02,0.20,2.39,0.21,-0.27,1.04,
3.723,0.41,0.25,1.88,0.21,-0.27,1.04,
3.725,0.41,0.25,1.88,0.24,-0.28,1.03,
3.728,0.41,0.25,1.88,0.25,-0.27,1.02,
3.728,0.55,0.29,1.27,0.25,-0.27,1.02,
3.731,0.55,0.29,1.27,0.26,-0.27,1.01,
3.735,0.55,0.29,1.27,0.26,-0.26,1.01,
3.737,0.64,0.34,0.67,0.26,-0.26,1.01,
3.737,0.64,0.34,0.67,0.26,-0.24,1.01,
3.738,0.73,0.35,0.19,0.26,-0.24,1.01,
3.738,0.73,0.35,0.19,0.25,-0.22,1.00,
3.74,0.73,0.35,0.19,0.25,-0.19,0.99,
3.742,0.73,0.35,0.19,0.24,-0.16,0.99,
3.743,0.80,0.40,-0.22,0.24,-0.16,0.99,
3.745,0.80,0.40,-0.22,0.23,-0.13,0.98,
3.748,0.80,0.40,-0.22,0.22,-0.10,0.97,
3.748,0.80,0.46,-0.59,0.22,-0.10,0.97,
3.75,0.80,0.46,-0.59,0.21,-0.06,0.97,
3.752,0.80,0.46,-0.59,0.19,-0.02,0.97,
3.752,0.87,0.50,-1.09,0.19,-0.02,0.97,
3.755,0.87,0.50,-1.09,0.17,0.02,0.95,
3.757,0.87,0.50,-1.09,0.14,0.06,0.94,
3.757,1.05,0.41,-1.77,0.14,0.06,0.94,
3.76,1.05,0.41,-1.77,0.10,0.11,0.93,
3.763,1.39,0.22,-2.19,0.10,0.11,0.93,
3.764,1.39,0.22,-2.19,0.06,0.15,0.91,
3.765,1.39,0.22,-2.19,0.02,0.18,0.89,
3.768,2.13,0.17,-2.14,0.02,0.18,0.89,
3.768,2.13,0.17,-2.14,-0.02,0.22,0.86,
3.77,2.13,0.17,-2.14,-0.05,0.26,0.82,
3.772,2.13,0.17,-2.14,-0.08,0.30,0.78,
3.773,2.73,0.23,-1.73,-0.08,0.30,0.78,
3.775,2.73,0.23,-1.73,-0.10,0.35,0.74,
3.777,2.73,0.23,-1.73,-0.11,0.41,0.70,
3.778,2.60,0.38,-1.25,-0.11,0.41,0.70,
3.78,2.60,0.38,-1.25,-0.12,0.49,0.67,
3.782,2.60,0.38,-1.25,-0.13,0.56,0.64,
3.783,1.80,0.40,-0.86,-0.13,0.56,0.64,
3.785,1.80,0.40,-0.86,-0.13,0.64,0.63,
3.787,1.80,0.40,-0.86,-0.13,0.70,0.62,
3.811,0.89,0.45,-0.67,-0.13,0.70,0.62,
3.812,0.89,0.45,-0.67,-0.13,0.75,0.61,
3.812,0.89,0.45,-0.67,-0.14,0.76,0.61,
3.812,0.16,0.43,-0.64,-0.14,0.76,0.61,
3.812,0.16,0.43,-0.64,-0.14,0.76,0.60,
3.812,-0.54,0.29,-0.47,-0.14,0.76,0.60,
3.812,-0.54,0.29,-0.47,-0.15,0.73,0.60,
3.813,-0.54,0.29,-0.47,-0.16,0.69,0.61,
3.82,-0.54,0.29,-0.47,-0.16,0.63,0.62,
3.82,-1.24,0.14,-0.03,-0.16,0.63,0.62,
3.82,-1.24,0.14,-0.03,-0.16,0.57,0.64,
3.82,-1.24,0.14,-0.03,-0.16,0.50,0.66,
3.821,-1.72,0.02,0.37,-0.16,0.50,0.66,
3.821,-1.72,0.02,0.37,-0.16,0.43,0.69,
3.821,-1.90,0.01,0.46,-0.16,0.43,0.69,
3.821,-1.90,0.01,0.46,-0.16,0.37,0.71,
3.822,-1.90,0.01,0.46,-0.16,0.31,0.74,
3.822,-1.77,0.06,0.29,-0.16,0.31,0.74,
3.822,-1.77,0.06,0.29,-0.16,0.26,0.77,
3.822,-1.77,0.06,0.29,-0.16,0.21,0.79,
3.823,-1.77,0.06,0.29,-0.17,0.16,0.81,
3.823,-1.43,0.20,0.01,-0.17,0.16,0.81,
3.824,-1.43,0.20,0.01,-0.18,0.13,0.82,
3.827,-1.43,0.20,0.01,-0.18,0.10,0.84,
3.827,-0.95,0.31,-0.17,-0.18,0.10,0.84,
3.832,-0.95,0.31,-0.17,-0.19,0.08,0.85,
3.843,-0.95,0.31,-0.17,-0.20,0.07,0.85,
3.844,-0.41,0.32,-0.34,-0.20,0.07,0.85,
3.844,-0.41,0.32,-0.34,-0.20,0.08,0.85,
3.844,-0.41,0.32,-0.34,-0.21,0.09,0.85,
3.845,0.12,0.26,-0.53,-0.21,0.09,0.85,
3.846,0.12,0.26,-0.53,-0.21,0.11,0.85,
3.846,0.12,0.26,-0.53,-0.22,0.14,0.84,
3.847,0.53,0.17,-0.59,-0.22,0.14,0.84,
3.847,0.53,0.17,-0.59,-0.23,0.17,0.84,
3.847,0.53,0.17,-0.59,-0.23,0.20,0.83,
3.847,0.72,0.07,-0.54,-0.23,0.20,0.83,
3.852,0.67,0.05,-0.47,-0.23,0.20,0.83,
3.853,0.67,0.05,-0.47,-0.24,0.24,0.81,
3.853,0.67,0.05,-0.47,-0.24,0.27,0.80,
3.854,0.67,0.05,-0.47,-0.24,0.31,0.80,
3.857,0.67,0.05,-0.47,-0.25,0.34,0.79,
3.857,0.55,0.05,-0.46,-0.25,0.34,0.79,
3.859,0.55,0.05,-0.46,-0.25,0.37,0.78,
3.862,0.55,0.05,-0.46,-0.25,0.40,0.78,
3.862,0.41,0.03,-0.47,-0.25,0.40,0.78,
3.866,0.41,0.03,-0.47,-0.26,0.41,0.77,
3.867,0.41,0.03,-0.47,-0.26,0.42,0.77,
3.867,0.22,0.01,-0.39,-0.26,0.42,0.77,
3.869,0.22,0.01,-0.39,-0.27,0.43,0.77,
3.871,0.22,0.01,-0.39,-0.27,0.43,0.77,
3.872,-0.01,-0.03,-0.32,-0.27,0.43,0.77,
3.873,-0.01,-0.03,-0.32,-0.27,0.44,0.77,
3.877,-0.01,-0.03,-0.32,-0.28,0.44,0.78,
3.877,-0.26,-0.04,-0.22,-0.28,0.44,0.78,
3.88,-0.26,-0.04,-0.22,-0.28,0.44,0.78,
3.883,-0.26,-0.04,-0.22,-0.28,0.43,0.79,
3.883,-0.46,-0.01,-0.17,-0.28,0.43,0.79,
3.885,-0.46,-0.01,-0.17,-0.29,0.42,0.80,
3.886,-0.46,-0.01,-0.17,-0.29,0.40,0.80,
3.886,-0.57,0.03,-0.14,-0.29,0.40,0.80,
3.889,-0.57,0.03,-0.14,-0.29,0.39,0.81,
3.891,-0.57,0.03,-0.14,-0.29,0.37,0.82,
3.891,-0.59,0.08,-0.09,-0.29,0.37,0.82,
3.894,-0.59,0.08,-0.09,-0.30,0.35,0.83,
3.897,-0.59,0.08,-0.09,-0.30,0.34,0.84,
3.898,-0.55,0.08,-0.02,-0.30,0.34,0.84,
3.899,-0.55,0.08,-0.02,-0.30,0.32,0.84,
3.901,-0.55,0.08,-0.02,-0.30,0.31,0.85,
3.901,-0.45,0.00,0.02,-0.30,0.31,0.85,
3.904,-0.45,0.00,0.02,-0.30,0.30,0.86,
3.906,-0.45,0.00,0.02,-0.30,0.29,0.86,
3.907,-0.30,-0.03,0.11,-0.30,0.29,0.86,
3.909,-0.30,-0.03,0.11,-0.30,0.28,0.86,
3.911,-0.30,-0.03,0.11,-0.30,0.28,0.86,
3.912,-0.13,-0.05,0.17,-0.30,0.28,0.86,
3.914,-0.13,-0.05,0.17,-0.30,0.28,0.86,
3.916,-0.13,-0.05,0.17,-0.30,0.27,0.86,
3.917,0.01,-0.03,0.23,-0.30,0.27,0.86,
3.918,0.01,-0.03,0.23,-0.30,0.27,0.86,
3.921,0.01,-0.03,0.23,-0.29,0.27,0.86,
3.921,0.10,-0.01,0.18,-0.29,0.27,0.86,
3.923,0.10,-0.01,0.18,-0.29,0.28,0.86,
3.926,0.10,-0.01,0.18,-0.29,0.29,0.85,
3.926,0.15,-0.00,0.03,-0.29,0.29,0.85,
3.928,0.15,-0.00,0.03,-0.29,0.29,0.85,
3.937,0.15,0.01,-0.04,-0.29,0.29,0.85,
3.938,0.15,0.01,-0.04,-0.30,0.30,0.85,
3.938,0.15,0.01,-0.04,-0.30,0.31,0.85,
3.938,0.14,0.00,-0.02,-0.30,0.31,0.85,
3.941,0.19,0.00,0.05,-0.30,0.31,0.85,
3.942,0.19,0.00,0.05,-0.30,0.32,0.85,
3.942,0.19,0.00,0.05,-0.30,0.33,0.85,
3.943,0.19,0.00,0.05,-0.30,0.33,0.84,
3.949,0.19,0.00,0.05,-0.30,0.33,0.84,
3.95,0.19,0.02,0.08,-0.30,0.33,0.84,
3.95,0.19,0.02,0.08,-0.30,0.33,0.83,
3.95,0.19,0.02,0.08,-0.30,0.32,0.83,
3.951,0.19,0.02,0.08,-0.30,0.32,0.83,
3.952,0.17,0.02,0.06,-0.30,0.32,0.83,
3.966,0.17,0.02,0.06,-0.30,0.31,0.83,
3.966,0.17,0.02,0.06,-0.30,0.31,0.82,
3.966,0.10,-0.01,0.05,-0.30,0.31,0.82,
3.966,0.10,-0.01,0.05,-0.30,0.31,0.82,
3.966,0.10,-0.01,0.05,-0.30,0.31,0.82,
3.966,-0.00,-0.06,0.09,-0.30,0.31,0.82,
3.967,-0.00,-0.06,0.09,-0.30,0.31,0.82,
3.967,-0.06,-0.09,0.18,-0.30,0.31,0.82,
3.967,-0.06,-0.09,0.18,-0.30,0.31,0.83,
3.969,-0.06,-0.09,0.18,-0.30,0.30,0.83,
3.972,-0.06,-0.09,0.18,-0.30,0.30,0.83,
3.973,-0.03,-0.05,0.27,-0.30,0.30,0.83,
3.977,-0.05,-0.01,0.26,-0.30,0.30,0.83,
3.978,-0.05,-0.01,0.26,-0.30,0.29,0.83,
3.978,-0.05,-0.01,0.26,-0.30,0.28,0.83,
3.979,-0.05,-0.01,0.26,-0.30,0.27,0.83,
3.981,-0.09,0.05,0.04,-0.30,0.27,0.83,
3.982,-0.09,0.05,0.04,-0.30,0.27,0.83,
3.983,-0.09,0.05,0.04,-0.30,0.27,0.83,
3.986,-0.11,0.09,-0.07,-0.30,0.27,0.83,
3.989,-0.11,0.09,-0.07,-0.30,0.26,0.83,
3.989,-0.11,0.09,-0.07,-0.30,0.26,0.84,
3.99,-0.11,0.09,-0.07,-0.30,0.26,0.84,
3.99,-0.03,0.12,-0.01,-0.30,0.26,0.84,
3.993,-0.03,0.12,-0.01,-0.30,0.25,0.84,
3.995,-0.03,0.12,-0.01,-0.30,0.24,0.83,
3.996,0.11,0.14,0.06,-0.30,0.24,0.83,
3.998,0.11,0.14,0.06,-0.30,0.23,0.83,
4.0,0.11,0.14,0.06,-0.29,0.23,0.83,
4.001,0.20,0.16,-0.02,-0.29,0.23,0.83,
4.004,0.20,0.16,-0.02,-0.29,0.23,0.82,
4.006,0.20,0.16,-0.02,-0.29,0.23,0.82,
4.006,0.27,0.19,-0.11,-0.29,0.23,0.82,
4.007,0.27,0.19,-0.11,-0.29,0.24,0.82,
4.01,0.27,0.19,-0.11,-0.29,0.25,0.81,
4.011,0.33,0.23,-0.14,-0.29,0.25,0.81,
4.014,0.33,0.23,-0.14,-0.28,0.26,0.81,
4.016,0.33,0.23,-0.14,-0.28,0.27,0.81,
4.016,0.39,0.20,-0.26,-0.28,0.27,0.81,
4.018,0.39,0.20,-0.26,-0.28,0.28,0.80,
4.02,0.41,0.16,-0.38,-0.28,0.28,0.80,
4.021,0.41,0.16,-0.38,-0.28,0.29,0.80,
4.022,0.41,0.16,-0.38,-0.28,0.30,0.79,
4.025,0.41,0.16,-0.38,-0.29,0.31,0.79,
4.026,0.38,0.12,-0.43,-0.29,0.31,0.79,
4.028,0.38,0.12,-0.43,-0.29,0.32,0.78,
4.044,0.31,0.11,-0.26,-0.29,0.32,0.78,
4.045,0.31,0.11,-0.26,-0.30,0.33,0.77,
4.045,0.31,0.11,-0.26,-0.30,0.34,0.77,
4.046,0.19,0.12,-0.09,-0.30,0.34,0.77,
4.046,0.19,0.12,-0.09,-0.30,0.34,0.76,
4.046,0.19,0.12,-0.09,-0.30,0.34,0.76,
4.046,0.07,0.15,-0.16,-0.30,0.34,0.76,
4.047,0.07,0.15,-0.16,-0.30,0.34,0.76,
4.047,0.07,0.15,-0.16,-0.30,0.34,0.76,
4.047,0.00,0.14,-0.31,-0.30,0.34,0.76,
4.055,0.00,0.14,-0.31,-0.31,0.35,0.76,
4.056,0.00,0.14,-0.31,-0.31,0.35,0.76,
4.056,-0.04,0.17,-0.31,-0.31,0.35,0.76,
4.057,-0.04,0.17,-0.31,-0.31,0.35,0.77,
4.057,-0.04,0.17,-0.31,-0.31,0.36,0.77,
4.057,-0.04,0.17,-0.31,-0.32,0.36,0.77,
4.058,0.00,0.15,-0.25,-0.32,0.36,0.77,
4.059,0.00,0.15,-0.25,-0.33,0.37,0.77,
4.061,0.00,0.15,-0.25,-0.33,0.37,0.77,
4.062,0.07,0.19,-0.13,-0.33,0.37,0.77,
4.064,0.07,0.19,-0.13,-0.33,0.37,0.77,
4.069,0.07,0.19,-0.13,-0.34,0.38,0.77,
4.07,0.03,0.26,-0.15,-0.34,0.38,0.77,
4.07,0.03,0.26,-0.15,-0.34,0.38,0.77,
4.07,-0.05,0.33,-0.20,-0.34,0.38,0.77,
4.076,-0.14,0.35,-0.19,-0.34,0.38,0.77,
4.077,-0.14,0.35,-0.19,-0.35,0.39,0.77,
4.077,-0.14,0.35,-0.19,-0.35,0.40,0.77,
4.077,-0.14,0.35,-0.19,-0.35,0.41,0.78,
4.077,-0.14,0.35,-0.19,-0.36,0.42,0.78,
4.081,-0.14,0.35,-0.19,-0.36,0.43,0.79,
4.082,-0.26,0.33,-0.34,-0.36,0.43,0.79,
4.084,-0.26,0.33,-0.34,-0.37,0.43,0.79,
4.085,-0.26,0.33,-0.34,-0.37,0.44,0.80,
4.086,-0.31,0.31,-0.38,-0.37,0.44,0.80,
4.089,-0.31,0.31,-0.38,-0.38,0.44,0.80,
4.093,-0.30,0.30,-0.22,-0.38,0.44,0.80,
4.093,-0.30,0.30,-0.22,-0.38,0.44,0.81,
4.094,-0.30,0.30,-0.22,-0.39,0.44,0.81,
4.095,-0.30,0.30,-0.22,-0.39,0.43,0.81,
4.098,-0.32,0.31,-0.11,-0.39,0.43,0.81,
4.1,-0.32,0.31,-0.11,-0.39,0.43,0.82,
4.101,-0.37,0.34,-0.13,-0.39,0.43,0.82,
4.101,-0.37,0.34,-0.13,-0.40,0.43,0.82,
4.102,-0.37,0.34,-0.13,-0.40,0.43,0.83,
4.105,-0.37,0.34,-0.13,-0.41,0.43,0.83,
4.105,-0.46,0.36,-0.12,-0.41,0.43,0.83,
4.107,-0.46,0.36,-0.12,-0.41,0.43,0.84,
4.11,-0.46,0.36,-0.12,-0.42,0.42,0.85,
4.112,-0.50,0.39,-0.05,-0.42,0.42,0.85,
4.112,-0.50,0.39,-0.05,-0.42,0.42,0.85,
4.115,-0.50,0.39,-0.05,-0.43,0.42,0.86,
4.115,-0.52,0.43,-0.04,-0.43,0.42,0.86,
4.117,-0.52,0.43,-0.04,-0.43,0.42,0.86,
4.14,-0.52,0.43,-0.04,-0.44,0.42,0.87,
4.141,-0.57,0.49,-0.01,-0.44,0.42,0.87,
4.141,-0.57,0.49,-0.01,-0.45,0.42,0.88,
4.141,-0.57,0.49,-0.01,-0.46,0.41,0.88,
4.142,-0.63,0.54,0.06,-0.46,0.41,0.88,
4.142,-0.63,0.54,0.06,-0.46,0.41,0.89,
4.142,-0.63,0.54,0.06,-0.47,0.40,0.89,
4.143,-0.63,0.63,0.10,-0.47,0.40,0.89,
4.143,-0.63,0.63,0.10,-0.48,0.39,0.89,
4.143,-0.63,0.63,0.10,-0.48,0.39,0.90,
4.144,-0.64,0.70,0.08,-0.48,0.39,0.90,
4.144,-0.64,0.70,0.08,-0.49,0.38,0.90,
4.144,-0.64,0.70,0.08,-0.50,0.37,0.91,
4.144,-0.67,0.78,-0.05,-0.50,0.37,0.91,
4.144,-0.67,0.78,-0.05,-0.50,0.37,0.92,
4.145,-0.67,0.78,-0.05,-0.51,0.37,0.93,
4.145,-0.64,0.83,-0.13,-0.51,0.37,0.93,
4.148,-0.64,0.83,-0.13,-0.52,0.37,0.94,
4.149,-0.64,0.83,-0.13,-0.52,0.37,0.94,
4.149,-0.60,0.85,-0.13,-0.52,0.37,0.94,
4.151,-0.60,0.85,-0.13,-0.53,0.37,0.95,
4.155,-0.64,0.88,-0.10,-0.53,0.37,0.95,
4.156,-0.64,0.88,-0.10,-0.54,0.37,0.96,
4.156,-0.64,0.88,-0.10,-0.55,0.38,0.96,
4.159,-0.76,0.90,-0.12,-0.55,0.38,0.96,
4.159,-0.76,0.90,-0.12,-0.56,0.38,0.97,
4.162,-0.76,0.90,-0.12,-0.57,0.38,0.98,
4.164,-0.80,0.92,-0.15,-0.57,0.38,0.98,
4.164,-0.80,0.92,-0.15,-0.58,0.39,0.98,
4.168,-0.80,0.92,-0.15,-0.59,0.38,0.99,
4.169,-0.80,0.92,-0.15,-0.61,0.38,1.00,
4.17,-0.85,0.93,-0.19,-0.61,0.38,1.00,
4.172,-0.85,0.93,-0.19,-0.62,0.38,1.01,
4.175,-0.85,0.93,-0.19,-0.63,0.38,1.02,
4.175,-0.88,0.98,-0.19,-0.63,0.38,1.02,
4.177,-0.88,0.98,-0.19,-0.64,0.37,1.03,
4.179,-0.88,0.98,-0.19,-0.65,0.37,1.04,
4.179,-0.96,1.01,-0.25,-0.65,0.37,1.04,
4.183,-0.96,1.01,-0.25,-0.66,0.37,1.05,
4.184,-0.96,1.01,-0.25,-0.67,0.37,1.06,
4.184,-0.94,1.07,-0.31,-0.67,0.37,1.06,
4.186,-0.94,1.07,-0.31,-0.68,0.37,1.07,
4.193,-0.88,1.13,-0.32,-0.68,0.37,1.07,
4.193,-0.88,1.13,-0.32,-0.69,0.37,1.08,
4.193,-0.88,1.13,-0.32,-0.70,0.37,1.09,
4.193,-0.88,1.13,-0.32,-0.71,0.37,1.10,
4.194,-0.77,1.18,-0.35,-0.71,0.37,1.10,
4.197,-0.77,1.18,-0.35,-0.72,0.37,1.11,
4.2,-0.72,1.26,-0.40,-0.72,0.37,1.11,
4.2,-0.72,1.26,-0.40,-0.73,0.37,1.11,
4.201,-0.72,1.26,-0.40,-0.74,0.38,1.12,
4.204,-0.72,1.26,-0.40,-0.75,0.39,1.12,
4.204,-0.66,1.34,-0.31,-0.75,0.39,1.12,
4.206,-0.66,1.34,-0.31,-0.76,0.40,1.13,
4.209,-0.66,1.34,-0.31,-0.77,0.41,1.14,
4.209,-0.69,1.40,-0.35,-0.77,0.41,1.14,
4.212,-0.69,1.40,-0.35,-0.78,0.42,1.14,
4.219,-0.77,1.45,-0.28,-0.78,0.42,1.14,
4.219,-0.77,1.45,-0.28,-0.79,0.44,1.15,
4.219,-0.77,1.45,-0.28,-0.81,0.46,1.16,
4.219,-0.77,1.45,-0.28,-0.82,0.47,1.17,
4.22,-0.76,1.49,-0.22,-0.82,0.47,1.17,
4.221,-0.76,1.49,-0.22,-0.83,0.49,1.17,
4.223,-0.76,1.49,-0.22,-0.84,0.51,1.18,
4.224,-0.76,1.60,-0.26,-0.84,0.51,1.18,
4.226,-0.76,1.60,-0.26,-0.85,0.53,1.19,
4.229,-0.75,1.69,-0.35,-0.85,0.53,1.19,
4.229,-0.75,1.69,-0.35,-0.87,0.55,1.20,
4.233,-0.75,1.69,-0.35,-0.88,0.57,1.20,
4.234,-0.75,1.69,-0.35,-0.90,0.60,1.21,
4.234,-0.89,1.77,-0.32,-0.90,0.60,1.21,
4.236,-0.89,1.77,-0.32,-0.91,0.62,1.22,
4.241,-1.14,1.86,-0.30,-0.91,0.62,1.22,
4.241,-1.14,1.86,-0.30,-0.92,0.64,1.22,
4.241,-1.14,1.86,-0.30,-0.93,0.66,1.23,
4.244,-1.43,1.98,-0.45,-0.93,0.66,1.23,
4.245,-1.43,1.98,-0.45,-0.95,0.69,1.23,
4.247,-1.43,1.98,-0.45,-0.97,0.70,1.24,
4.249,-1.71,2.18,-0.36,-0.97,0.70,1.24,
4.249,-1.71,2.18,-0.36,-1.00,0.71,1.25,
4.252,-1.71,2.18,-0.36,-1.02,0.72,1.27,
4.253,-1.71,2.18,-0.36,-1.03,0.73,1.28,
4.253,-1.84,2.38,-0.21,-1.03,0.73,1.28,
4.256,-1.84,2.38,-0.21,-1.05,0.75,1.30,
4.258,-1.85,2.62,-0.41,-1.05,0.75,1.30,
4.258,-1.85,2.62,-0.41,-1.07,0.77,1.31,
4.26,-1.85,2.62,-0.41,-1.09,0.79,1.33,
4.264,-1.82,2.97,-0.80,-1.09,0.79,1.33,
4.264,-1.82,2.97,-0.80,-1.12,0.82,1.34,
4.267,-1.82,2.97,-0.80,-1.15,0.85,1.35,
4.269,-1.82,2.97,-0.80,-1.19,0.89,1.36,
4.27,-1.84,3.48,-0.97,-1.19,0.89,1.36,
4.27,-1.84,3.48,-0.97,-1.23,0.93,1.37,
4.273,-1.84,4.14,-1.00,-1.23,0.93,1.37,
4.273,-1.84,4.14,-1.00,-1.26,0.97,1.38,
4.276,-1.84,4.14,-1.00,-1.29,1.02,1.39,
4.279,-1.84,4.14,-1.00,-1.33,1.07,1.40,
4.279,-1.86,4.88,-1.55,-1.33,1.07,1.40,
4.282,-1.86,4.88,-1.55,-1.36,1.13,1.41,
4.284,-2.18,5.58,-2.22,-1.36,1.13,1.41,
4.308,-2.18,5.58,-2.22,-1.40,1.18,1.41,
4.308,-2.18,5.58,-2.22,-1.44,1.25,1.42,
4.309,-2.18,5.58,-2.22,-1.48,1.32,1.43,
4.309,-2.79,6.14,-2.46,-1.48,1.32,1.43,
4.309,-2.79,6.14,-2.46,-1.51,1.40,1.45,
4.309,-2.79,6.14,-2.46,-1.54,1.47,1.46,
4.309,-3.44,6.49,-2.47,-1.54,1.47,1.46,
4.309,-3.44,6.49,-2.47,-1.56,1.54,1.49,
4.31,-4.10,6.73,-2.70,-1.56,1.54,1.49,
4.31,-4.10,6.73,-2.70,-1.59,1.61,1.51,
4.31,-4.10,6.73,-2.70,-1.62,1.67,1.54,
4.31,-4.10,6.73,-2.70,-1.64,1.73,1.57,
4.31,-4.91,6.93,-3.14,-1.64,1.73,1.57,
4.311,-4.91,6.93,-3.14,-1.67,1.77,1.62,
4.311,-4.91,6.93,-3.14,-1.70,1.81,1.66,
4.311,-5.72,7.17,-3.50,-1.70,1.81,1.66,
4.311,-5.72,7.17,-3.50,-1.72,1.84,1.71,
4.313,-5.72,7.17,-3.50,-1.74,1.87,1.76,
4.313,-6.42,7.38,-3.67,-1.74,1.87,1.76,
4.316,-6.42,7.38,-3.67,-1.76,1.89,1.81,
4.318,-6.42,7.38,-3.67,-1.77,1.91,1.86,
4.321,-7.06,7.51,-4.05,-1.77,1.91,1.86,
4.322,-7.06,7.51,-4.05,-1.78,1.93,1.91,
4.323,-7.06,7.51,-4.05,-1.80,1.95,1.96,
4.325,-7.70,7.54,-4.43,-1.80,1.95,1.96,
4.325,-7.70,7.54,-4.43,-1.82,1.96,2.01,
4.336,-8.22,7.43,-4.60,-1.82,1.96,2.01,
4.337,-8.58,7.21,-4.71,-1.82,1.96,2.01,
4.337,-8.58,7.21,-4.71,-1.84,1.97,2.06,
4.338,-8.58,7.21,-4.71,-1.86,1.96,2.10,
4.338,-8.58,7.21,-4.71,-1.89,1.94,2.15,
4.338,-8.58,7.21,-4.71,-1.91,1.92,2.20,
4.339,-8.58,7.21,-4.71,-1.94,1.88,2.25,
4.34,-8.76,6.96,-4.90,-1.94,1.88,2.25,
4.341,-8.76,6.96,-4.90,-1.97,1.82,2.30,
4.343,-8.76,6.96,-4.90,-2.00,1.74,2.35,
4.343,-8.80,6.79,-4.76,-2.00,1.74,2.35,
4.345,-8.80,6.79,-4.76,-2.03,1.64,2.42,
4.348,-8.80,6.79,-4.76,-2.06,1.52,2.48,
4.348,-8.57,6.69,-4.39,-2.06,1.52,2.48,
4.352,-8.57,6.69,-4.39,-2.09,1.36,2.56,
4.353,-8.10,6.62,-4.35,-2.09,1.36,2.56,
4.353,-8.10,6.62,-4.35,-2.11,1.19,2.63,
4.355,-8.10,6.62,-4.35,-2.12,1.01,2.70,
4.358,-7.55,6.54,-4.44,-2.12,1.01,2.70,
4.358,-7.55,6.54,-4.44,-2.14,0.82,2.77,
4.36,-7.55,6.54,-4.44,-2.15,0.64,2.83,
4.363,-6.87,6.54,-4.06,-2.15,0.64,2.83,
4.363,-6.87,6.54,-4.06,-2.14,0.45,2.91,
4.366,-6.87,6.54,-4.06,-2.12,0.28,2.99,
4.367,-5.83,6.72,-3.77,-2.12,0.28,2.99,
4.367,-5.83,6.72,-3.77,-2.10,0.10,3.09,
4.37,-5.83,6.72,-3.77,-2.07,-0.05,3.18,
4.373,-5.83,6.72,-3.77,-2.04,-0.18,3.27,
4.373,-4.43,6.89,-4.48,-2.04,-0.18,3.27,
4.376,-4.43,6.89,-4.48,-2.02,-0.29,3.34,
4.378,-4.43,6.89,-4.48,-2.00,-0.35,3.39,
4.378,-2.92,6.87,-5.76,-2.00,-0.35,3.39,
4.38,-2.92,6.87,-5.76,-1.98,-0.38,3.41,
4.383,-1.83,6.58,-6.58,-1.98,-0.38,3.41,
4.383,-1.83,6.58,-6.58,-1.97,-0.36,3.41,
4.384,-1.83,6.58,-6.58,-1.95,-0.32,3.38,
4.387,-1.83,6.58,-6.58,-1.93,-0.26,3.36,
4.387,-2.09,6.15,-7.16,-1.93,-0.26,3.36,
4.39,-2.09,6.15,-7.16,-1.91,-0.17,3.35,
4.392,-2.09,6.15,-7.16,-1.90,-0.08,3.34,
4.396,-2.83,5.39,-7.36,-1.90,-0.08,3.34,
4.396,-2.83,5.39,-7.36,-1.90,0.00,3.31,
4.399,-2.39,4.25,-6.97,-1.90,0.00,3.31,
4.399,-2.39,4.25,-6.97,-1.91,0.09,3.25,
4.401,-2.39,4.25,-6.97,-1.93,0.16,3.18,
4.402,-2.39,4.25,-6.97,-1.95,0.23,3.09,
4.402,-1.75,2.96,-5.79,-1.95,0.23,3.09,
4.404,-1.75,2.96,-5.79,-1.96,0.28,3.00,
4.407,-1.75,2.96,-5.79,-1.95,0.30,2.90,
4.407,-1.12,1.73,-4.41,-1.95,0.30,2.90,
4.409,-1.12,1.73,-4.41,-1.93,0.30,2.81,
4.412,-1.12,1.73,-4.41,-1.90,0.28,2.73,
4.412,-0.84,0.77,-3.27,-1.90,0.28,2.73,
4.415,-0.84,0.77,-3.27,-1.87,0.23,2.66,
4.418,-0.65,-0.03,-2.42,-1.87,0.23,2.66,
4.418,-0.65,-0.03,-2.42,-1.82,0.18,2.60,
4.419,-0.65,-0.03,-2.42,-1.76,0.13,2.54,
4.422,-0.65,-0.03,-2.42,-1.69,0.08,2.48,
4.422,-0.37,-0.82,-1.96,-1.69,0.08,2.48,
4.424,-0.37,-0.82,-1.96,-1.62,0.07,2.41,
4.427,-0.37,-0.82,-1.96,-1.56,0.09,2.35,
4.427,0.02,-1.60,-1.55,-1.56,0.09,2.35,
4.429,0.02,-1.60,-1.55,-1.49,0.14,2.28,
4.437,0.46,-2.26,-1.12,-1.49,0.14,2.28,
4.44,0.46,-2.26,-1.12,-1.41,0.21,2.21,
4.44,0.46,-2.26,-1.12,-1.33,0.30,2.14,
4.441,0.46,-2.26,-1.12,-1.25,0.40,2.06,
4.441,0.70,-2.66,-0.91,-1.25,0.40,2.06,
4.453,0.70,-2.66,-0.91,-1.17,0.51,1.99,
4.454,0.70,-2.66,-0.91,-1.10,0.61,1.89,
4.454,0.70,-2.66,-0.91,-1.02,0.72,1.77,
4.454,0.70,-2.66,-0.91,-0.96,0.84,1.63,
4.454,0.70,-2.66,-0.91,-0.91,0.96,1.46,
4.454,0.70,-2.66,-0.91,-0.87,1.07,1.26,
4.47,1.20,-3.05,-1.22,-0.87,1.07,1.26,
4.47,1.55,-3.33,-2.24,-0.87,1.07,1.26,
4.47,1.80,-3.61,-3.30,-0.87,1.07,1.26,
4.47,1.80,-3.61,-3.30,-0.84,1.17,1.04,
4.471,1.80,-3.61,-3.30,-0.84,1.27,0.81,
4.471,1.06,-3.89,-4.30,-0.84,1.27,0.81,
4.471,1.06,-3.89,-4.30,-0.85,1.35,0.61,
4.471,-1.37,-3.15,-4.78,-0.85,1.35,0.61,
4.471,-1.37,-3.15,-4.78,-0.86,1.46,0.44,
4.471,-1.37,-3.15,-4.78,-0.84,1.62,0.29,
4.472,-3.06,-2.22,-4.07,-0.84,1.62,0.29,
4.472,-3.06,-2.22,-4.07,-0.81,1.81,0.16,
4.472,-3.06,-2.22,-4.07,-0.77,1.96,0.03,
4.472,-3.06,-2.22,-4.07,-0.73,2.01,-0.07,
4.472,-4.42,-2.08,-2.96,-0.73,2.01,-0.07,
4.474,-4.42,-2.08,-2.96,-0.70,1.98,-0.14,
4.481,-4.42,-2.08,-2.96,-0.68,1.89,-0.19,
4.482,-5.34,-2.56,-2.65,-0.68,1.89,-0.19,
4.482,-5.34,-2.56,-2.65,-0.68,1.78,-0.24,
4.483,-5.34,-2.56,-2.65,-0.68,1.67,-0.28,
4.484,-5.57,-3.21,-2.93,-0.68,1.67,-0.28,
4.484,-5.57,-3.21,-2.93,-0.68,1.59,-0.34,
4.489,-5.35,-3.90,-3.09,-0.68,1.59,-0.34,
4.489,-5.35,-3.90,-3.09,-0.67,1.53,-0.41,
4.489,-5.35,-3.90,-3.09,-0.65,1.50,-0.49,
4.491,-5.35,-3.90,-3.09,-0.61,1.49,-0.58,
4.492,-5.03,-4.48,-2.78,-0.61,1.49,-0.58,
4.494,-5.03,-4.48,-2.78,-0.56,1.47,-0.67,
4.496,-4.88,-4.77,-2.37,-0.56,1.47,-0.67,
4.497,-4.88,-4.77,-2.37,-0.50,1.45,-0.75,
4.5,-4.88,-4.77,-2.37,-0.43,1.42,-0.83,
4.501,-4.88,-4.77,-2.37,-0.36,1.39,-0.90,
4.502,-4.91,-4.81,-2.13,-0.36,1.39,-0.90,
4.503,-4.91,-4.81,-2.13,-0.29,1.35,-0.96,
4.506,-4.93,-4.75,-2.01,-0.29,1.35,-0.96,
4.507,-4.93,-4.75,-2.01,-0.22,1.31,-1.01,
4.508,-4.93,-4.75,-2.01,-0.15,1.27,-1.05,
4.512,-4.93,-4.75,-2.01,-0.09,1.22,-1.09,
4.512,-4.84,-4.70,-1.95,-0.09,1.22,-1.09,
4.514,-4.84,-4.70,-1.95,-0.02,1.18,-1.12,
4.517,-4.59,-4.67,-1.94,-0.02,1.18,-1.12,
4.517,-4.59,-4.67,-1.94,0.04,1.14,-1.16,
4.518,-4.59,-4.67,-1.94,0.10,1.11,-1.20,
4.522,-4.59,-4.67,-1.94,0.16,1.07,-1.24,
4.522,-4.30,-4.64,-1.95,0.16,1.07,-1.24,
4.524,-4.30,-4.64,-1.95,0.22,1.04,-1.28,
4.527,-4.30,-4.64,-1.95,0.28,1.01,-1.33,
4.527,-4.02,-4.60,-1.93,0.28,1.01,-1.33,
4.529,-4.02,-4.60,-1.93,0.34,0.99,-1.38,
4.533,-3.88,-4.55,-1.84,0.34,0.99,-1.38,
4.538,-3.88,-4.55,-1.84,0.40,0.96,-1.43,
4.538,-3.88,-4.55,-1.84,0.46,0.93,-1.48,
4.538,-3.87,-4.50,-1.68,0.46,0.93,-1.48,
4.538,-3.87,-4.50,-1.68,0.52,0.90,-1.52,
4.545,-3.92,-4.50,-1.53,0.52,0.90,-1.52,
4.546,-3.92,-4.50,-1.53,0.58,0.86,-1.56,
4.546,-3.92,-4.50,-1.53,0.64,0.82,-1.60,
4.546,-3.92,-4.50,-1.53,0.70,0.78,-1.63,
4.546,-3.92,-4.50,-1.53,0.76,0.73,-1.66,
4.546,-4.04,-4.49,-1.44,0.76,0.73,-1.66,
4.55,-4.04,-4.49,-1.44,0.82,0.69,-1.70,
4.552,-4.13,-4.43,-1.39,0.82,0.69,-1.70,
4.552,-4.13,-4.43,-1.39,0.88,0.64,-1.73,
4.553,-4.13,-4.43,-1.39,0.94,0.59,-1.76,
4.556,-4.13,-4.43,-1.39,1.00,0.53,-1.79,
4.556,-4.19,-4.36,-1.29,1.00,0.53,-1.79,
4.558,-4.19,-4.36,-1.29,1.06,0.47,-1.83,
4.561,-4.19,-4.36,-1.29,1.12,0.41,-1.86,
4.561,-4.26,-4.21,-1.14,1.12,0.41,-1.86,
4.563,-4.26,-4.21,-1.14,1.18,0.35,-1.89,
4.567,-4.26,-4.21,-1.14,1.23,0.28,-1.92,
4.567,-4.31,-4.05,-1.06,1.23,0.28,-1.92,
4.568,-4.31,-4.05,-1.06,1.29,0.23,-1.95,
4.571,-4.31,-4.05,-1.06,1.34,0.16,-1.97,
4.571,-4.27,-3.86,-1.06,1.34,0.16,-1.97,
4.573,-4.27,-3.86,-1.06,1.39,0.11,-2.00,
4.575,-4.27,-3.86,-1.06,1.43,0.05,-2.03,
4.576,-4.16,-3.66,-1.05,1.43,0.05,-2.03,
4.578,-4.16,-3.66,-1.05,1.47,-0.01,-2.05,
4.581,-4.16,-3.66,-1.05,1.51,-0.06,-2.08,
4.582,-4.00,-3.43,-1.07,1.51,-0.06,-2.08,
4.584,-4.00,-3.43,-1.07,1.55,-0.11,-2.11,
4.586,-3.85,-3.22,-1.04,1.55,-0.11,-2.11,
4.586,-3.85,-3.22,-1.04,1.59,-0.17,-2.14,
4.588,-3.85,-3.22,-1.04,1.62,-0.21,-2.17,
4.591,-3.71,-3.01,-1.00,1.62,-0.21,-2.17,
4.591,-3.71,-3.01,-1.00,1.66,-0.26,-2.20,
4.593,-3.71,-3.01,-1.00,1.69,-0.30,-2.24,
4.595,-3.71,-3.01,-1.00,1.73,-0.33,-2.27,
4.596,-3.57,-2.81,-0.94,1.73,-0.33,-2.27,
4.601,-3.34,-2.64,-0.93,1.73,-0.33,-2.27,
4.602,-3.34,-2.64,-0.93,1.76,-0.36,-2.29,
4.602,-3.34,-2.64,-0.93,1.80,-0.39,-2.32,
4.603,-3.34,-2.64,-0.93,1.83,-0.41,-2.35,
4.605,-3.34,-2.64,-0.93,1.86,-0.43,-2.38,
4.606,-3.06,-2.47,-0.95,1.86,-0.43,-2.38,
4.608,-3.06,-2.47,-0.95,1.89,-0.45,-2.40,
4.61,-3.06,-2.47,-0.95,1.92,-0.46,-2.43,
4.611,-2.70,-2.32,-0.96,1.92,-0.46,-2.43,
4.613,-2.70,-2.32,-0.96,1.95,-0.47,-2.46,
4.635,-2.32,-2.16,-0.98,1.95,-0.47,-2.46,
4.635,-2.32,-2.16,-0.98,1.98,-0.47,-2.49,
4.635,-2.32,-2.16,-0.98,2.00,-0.47,-2.52,
4.635,-2.32,-2.16,-0.98,2.03,-0.47,-2.55,
4.636,-1.93,-1.96,-0.99,2.03,-0.47,-2.55,
4.636,-1.93,-1.96,-0.99,2.05,-0.47,-2.58,
4.636,-1.93,-1.96,-0.99,2.08,-0.46,-2.60,
4.636,-1.52,-1.73,-1.02,2.08,-0.46,-2.60,
4.637,-1.52,-1.73,-1.02,2.10,-0.45,-2.63,
4.637,-1.11,-1.52,-1.07,2.10,-0.45,-2.63,
4.637,-1.11,-1.52,-1.07,2.12,-0.43,-2.66,
4.637,-1.11,-1.52,-1.07,2.13,-0.41,-2.69,
4.638,-1.11,-1.52,-1.07,2.15,-0.38,-2.72,
4.638,-0.78,-1.33,-1.17,2.15,-0.38,-2.72,
4.638,-0.78,-1.33,-1.17,2.17,-0.36,-2.75,
4.641,-0.78,-1.33,-1.17,2.18,-0.33,-2.79,
4.642,-0.56,-1.12,-1.26,2.18,-0.33,-2.79,
4.643,-0.56,-1.12,-1.26,2.20,-0.30,-2.82,
4.646,-0.56,-1.12,-1.26,2.21,-0.27,-2.86,
4.646,-0.49,-0.95,-1.27,2.21,-0.27,-2.86,
4.648,-0.49,-0.95,-1.27,2.23,-0.25,-2.89,
4.659,-0.49,-0.95,-1.27,2.24,-0.22,-2.92,
4.66,-0.51,-0.79,-1.21,2.24,-0.22,-2.92,
4.66,-0.54,-0.66,-1.19,2.24,-0.22,-2.92,
4.66,-0.54,-0.66,-1.19,2.26,-0.19,-2.94,
4.661,-0.54,-0.66,-1.19,2.28,-0.16,-2.97,
4.661,-0.54,-0.66,-1.19,2.29,-0.13,-2.99,
4.661,-0.54,-0.66,-1.19,2.31,-0.09,-3.01,
4.661,-0.53,-0.53,-1.13,2.31,-0.09,-3.01,
4.664,-0.53,-0.53,-1.13,2.33,-0.07,-3.03,
4.666,-0.53,-0.53,-1.13,2.35,-0.03,-3.05,
4.666,-0.46,-0.39,-1.12,2.35,-0.03,-3.05,
4.667,-0.46,-0.39,-1.12,2.37,-0.01,-3.06,
4.67,-0.46,-0.39,-1.12,2.39,0.02,-3.07,
4.67,-0.34,-0.23,-1.02,2.39,0.02,-3.07,
4.672,-0.34,-0.23,-1.02,2.41,0.05,-3.08,
4.675,-0.34,-0.23,-1.02,2.43,0.07,-3.09,
4.675,-0.17,-0.07,-0.99,2.43,0.07,-3.09,
4.677,-0.17,-0.07,-0.99,2.44,0.10,-3.09,
4.68,-0.17,-0.07,-0.99,2.46,0.12,-3.10,
4.681,0.05,0.06,-0.94,2.46,0.12,-3.10,
4.687,0.05,0.06,-0.94,2.48,0.14,-3.11,
4.687,0.05,0.06,-0.94,2.50,0.15,-3.12,
4.687,0.18,0.16,-0.82,2.50,0.15,-3.12,
4.688,0.18,0.16,-0.82,2.51,0.16,-3.13,
4.691,0.18,0.16,-0.82,2.53,0.16,-3.14,
4.691,0.19,0.19,-0.65,2.53,0.16,-3.14,
4.693,0.19,0.19,-0.65,2.56,0.17,-3.15,
4.694,0.19,0.19,-0.65,2.58,0.16,-3.16,
4.695,0.12,0.17,-0.46,2.58,0.16,-3.16,
4.697,0.12,0.17,-0.46,2.60,0.16,-3.16,
4.702,0.12,0.17,-0.46,2.62,0.15,-3.17,
4.702,0.01,0.19,-0.25,2.62,0.15,-3.17,
4.702,0.01,0.19,-0.25,2.65,0.15,-3.17,
4.705,0.01,0.19,-0.25,2.67,0.13,-3.17,
4.705,-0.09,0.16,-0.02,2.67,0.13,-3.17,
4.707,-0.09,0.16,-0.02,2.70,0.12,-3.17,
4.71,-0.09,0.16,-0.02,2.72,0.10,-3.17,
4.71,-0.10,0.16,0.16,2.72,0.10,-3.17,
4.712,-0.10,0.16,0.16,2.75,0.09,-3.17,
4.715,-0.10,0.16,0.16,2.78,0.07,-3.16,
4.716,-0.05,0.25,0.32,2.78,0.07,-3.16,
4.717,-0.05,0.25,0.32,2.80,0.06,-3.16,
4.72,-0.05,0.25,0.32,2.83,0.04,-3.16,
4.72,0.09,0.41,0.50,2.83,0.04,-3.16,
4.722,0.09,0.41,0.50,2.85,0.02,-3.16,
4.724,0.09,0.41,0.50,2.87,0.00,-3.16,
4.725,0.31,0.58,0.64,2.87,0.00,-3.16,
4.727,0.31,0.58,0.64,2.89,-0.01,-3.16,
4.729,0.31,0.58,0.64,2.91,-0.03,-3.16,
4.729,0.55,0.84,0.72,2.91,-0.03,-3.16,
4.733,0.55,0.84,0.72,2.93,-0.04,-3.16,
4.734,0.55,0.84,0.72,2.94,-0.06,-3.16,
4.734,0.79,1.13,0.75,2.94,-0.06,-3.16,
4.737,0.79,1.13,0.75,2.95,-0.07,-3.17,
4.74,0.79,1.13,0.75,2.96,-0.09,-3.17,
4.74,0.99,1.42,0.72,2.96,-0.09,-3.17,
4.741,0.99,1.42,0.72,2.96,-0.11,-3.18,
4.744,0.99,1.42,0.72,2.96,-0.13,-3.19,
4.745,1.07,1.59,0.71,2.96,-0.13,-3.19,
4.746,1.07,1.59,0.71,2.96,-0.16,-3.20,
4.758,1.07,1.59,0.71,2.96,-0.18,-3.20,
4.759,1.03,1.66,0.75,2.96,-0.18,-3.20,
4.759,1.03,1.66,0.75,2.95,-0.20,-3.21,
4.759,1.03,1.66,0.75,2.95,-0.22,-3.21,
4.759,0.97,1.73,0.85,2.95,-0.22,-3.21,
4.76,0.97,1.73,0.85,2.94,-0.24,-3.21,
4.761,0.97,1.73,0.85,2.94,-0.26,-3.21,
4.761,0.95,1.79,1.02,2.94,-0.26,-3.21,
4.761,0.95,1.79,1.02,2.94,-0.28,-3.21,
4.768,1.00,1.83,1.15,2.94,-0.28,-3.21,
4.769,1.00,1.83,1.15,2.94,-0.29,-3.21,
4.769,1.00,1.83,1.15,2.94,-0.31,-3.21,
4.769,1.06,1.89,1.29,2.94,-0.31,-3.21,
4.769,1.06,1.89,1.29,2.94,-0.32,-3.21,
4.771,1.06,1.89,1.29,2.94,-0.33,-3.20,
4.774,1.06,1.89,1.29,2.94,-0.35,-3.20,
4.774,1.13,2.00,1.46,2.94,-0.35,-3.20,
4.777,1.13,2.00,1.46,2.94,-0.37,-3.19,
4.779,1.13,2.00,1.46,2.95,-0.39,-3.18,
4.794,1.23,2.10,1.56,2.95,-0.39,-3.18,
4.795,1.23,2.10,1.56,2.95,-0.40,-3.17,
4.795,1.23,2.10,1.56,2.95,-0.42,-3.16,
4.796,1.35,2.19,1.60,2.95,-0.42,-3.16,
4.796,1.35,2.19,1.60,2.95,-0.44,-3.16,
4.796,1.35,2.19,1.60,2.94,-0.46,-3.15,
4.797,1.46,2.35,1.65,2.94,-0.46,-3.15,
4.797,1.46,2.35,1.65,2.94,-0.48,-3.14,
4.797,1.54,2.52,1.66,2.94,-0.48,-3.14,
4.798,1.54,2.52,1.66,2.94,-0.50,-3.14,
4.798,1.54,2.52,1.66,2.93,-0.53,-3.13,
4.802,1.54,2.52,1.66,2.92,-0.55,-3.12,
4.803,1.62,2.73,1.64,2.92,-0.55,-3.12,
4.803,1.62,2.73,1.64,2.90,-0.57,-3.12,
4.804,1.62,2.73,1.64,2.90,-0.60,-3.11,
4.805,1.65,3.08,1.69,2.90,-0.60,-3.11,
4.806,1.65,3.08,1.69,2.90,-0.63,-3.10,
4.809,1.71,3.32,1.62,2.90,-0.63,-3.10,
4.809,1.71,3.32,1.62,2.89,-0.68,-3.09,
4.811,1.71,3.32,1.62,2.88,-0.73,-3.09,
4.814,1.71,3.32,1.62,2.86,-0.78,-3.09,
4.814,1.58,3.60,1.54,2.86,-0.78,-3.09,
4.817,1.58,3.60,1.54,2.83,-0.81,-3.07,
4.819,1.58,3.60,1.54,2.80,-0.83,-3.04,
4.819,1.41,3.97,1.61,2.80,-0.83,-3.04,
4.821,1.41,3.97,1.61,2.77,-0.82,-3.00,
4.824,1.41,3.97,1.61,2.73,-0.80,-2.96,
4.824,1.72,4.29,1.85,2.73,-0.80,-2.96,
4.826,1.72,4.29,1.85,2.70,-0.78,-2.91,
4.829,2.41,4.42,2.18,2.70,-0.78,-2.91,
4.829,2.41,4.42,2.18,2.67,-0.77,-2.88,
4.831,2.41,4.42,2.18,2.64,-0.78,-2.86,
4.834,2.96,4.43,2.53,2.64,-0.78,-2.86,
4.834,2.96,4.43,2.53,2.61,-0.80,-2.86,
4.836,2.96,4.43,2.53,2.58,-0.85,-2.87,
4.842,2.96,4.43,2.53,2.55,-0.90,-2.87,
4.842,3.03,4.43,2.79,2.55,-0.90,-2.87,
4.843,3.03,4.43,2.79,2.51,-0.96,-2.88,
4.845,2.74,4.46,2.91,2.51,-0.96,-2.88,
4.845,2.74,4.46,2.91,2.47,-1.02,-2.87,
4.847,2.74,4.46,2.91,2.44,-1.06,-2.85,
4.851,2.55,4.50,2.95,2.44,-1.06,-2.85,
4.851,2.55,4.50,2.95,2.39,-1.10,-2.82,
4.852,2.55,4.50,2.95,2.34,-1.13,-2.79,
4.854,2.55,4.50,2.95,2.30,-1.15,-2.74,
4.855,2.58,4.50,3.02,2.30,-1.15,-2.74,
4.857,2.58,4.50,3.02,2.25,-1.17,-2.70,
4.859,2.58,4.50,3.02,2.20,-1.18,-2.65,
4.859,2.81,4.52,3.09,2.20,-1.18,-2.65,
4.862,2.81,4.52,3.09,2.15,-1.20,-2.61,
4.863,2.81,4.52,3.09,2.10,-1.22,-2.57,
4.864,3.14,4.57,3.16,2.10,-1.22,-2.57,
4.867,3.14,4.57,3.16,2.06,-1.23,-2.53,
4.87,3.14,4.57,3.16,2.01,-1.25,-2.49,
4.87,3.40,4.72,3.25,2.01,-1.25,-2.49,
4.871,3.40,4.72,3.25,1.97,-1.27,-2.45,
4.873,3.40,4.72,3.25,1.93,-1.30,-2.40,
4.873,3.66,4.81,3.30,1.93,-1.30,-2.40,
4.876,3.66,4.81,3.30,1.89,-1.34,-2.35,
4.878,3.66,4.81,3.30,1.85,-1.38,-2.30,
4.879,3.90,4.72,3.30,1.85,-1.38,-2.30,
4.881,3.90,4.72,3.30,1.81,-1.42,-2.24,
4.883,4.04,4.51,3.23,1.81,-1.42,-2.24,
4.885,4.04,4.51,3.23,1.77,-1.46,-2.17,
4.885,4.04,4.51,3.23,1.74,-1.49,-2.10,
4.888,4.04,4.51,3.23,1.71,-1.50,-2.03,
4.888,4.31,4.31,3.17,1.71,-1.50,-2.03,
4.89,4.31,4.31,3.17,1.67,-1.51,-1.95,
4.893,4.81,4.18,3.14,1.67,-1.51,-1.95,
4.893,4.81,4.18,3.14,1.64,-1.51,-1.87,
4.895,4.81,4.18,3.14,1.59,-1.51,-1.79,
4.9,5.51,4.08,3.25,1.59,-1.51,-1.79,
4.902,5.51,4.08,3.25,1.55,-1.50,-1.71,
4.903,5.51,4.08,3.25,1.51,-1.49,-1.63,
4.903,5.51,4.08,3.25,1.46,-1.47,-1.56,
4.903,6.37,3.97,3.46,1.46,-1.47,-1.56,
4.905,6.37,3.97,3.46,1.41,-1.45,-1.49,
4.908,7.25,4.02,3.72,1.41,-1.45,-1.49,
4.908,7.25,4.02,3.72,1.35,-1.43,-1.42,
4.91,7.25,4.02,3.72,1.30,-1.41,-1.35,
4.913,7.25,4.02,3.72,1.24,-1.38,-1.27,
4.913,7.97,4.02,3.90,1.24,-1.38,-1.27,
4.919,8.57,4.01,3.92,1.24,-1.38,-1.27,
4.919,8.57,4.01,3.92,1.18,-1.36,-1.18,
4.919,8.57,4.01,3.92,1.13,-1.34,-1.09,
4.92,8.57,4.01,3.92,1.07,-1.31,-0.99,
4.923,8.57,4.01,3.92,1.01,-1.28,-0.88,
4.923,8.97,3.97,3.74,1.01,-1.28,-0.88,
4.925,8.97,3.97,3.74,0.94,-1.24,-0.76,
4.928,8.97,3.97,3.74,0.87,-1.19,-0.63,
4.928,9.31,3.93,3.36,0.87,-1.19,-0.63,
4.93,9.31,3.93,3.36,0.80,-1.12,-0.49,
4.937,9.31,3.93,3.36,0.71,-1.04,-0.34,
4.938,9.67,3.80,2.93,0.71,-1.04,-0.34,
4.938,9.67,3.80,2.93,0.63,-0.96,-0.19,
4.938,10.05,3.62,2.71,0.63,-0.96,-0.19,
4.938,10.05,3.62,2.71,0.53,-0.86,-0.04,
4.94,10.05,3.62,2.71,0.44,-0.77,0.11,
4.945,10.05,3.62,2.71,0.34,-0.68,0.24,
4.945,10.32,3.52,2.84,0.34,-0.68,0.24,
4.956,10.32,3.52,2.84,0.25,-0.60,0.38,
4.956,10.32,3.52,2.84,0.17,-0.53,0.50,
4.956,10.33,3.47,3.28,0.17,-0.53,0.50,
4.957,10.33,3.47,3.28,0.09,-0.47,0.63,
4.957,10.33,3.47,3.28,0.02,-0.43,0.74,
4.957,9.92,3.34,3.90,0.02,-0.43,0.74,
4.957,9.92,3.34,3.90,-0.04,-0.41,0.86,
4.958,9.92,3.34,3.90,-0.11,-0.39,0.97,
4.958,9.30,3.20,4.41,-0.11,-0.39,0.97,
4.96,9.30,3.20,4.41,-0.16,-0.39,1.08,
4.962,9.30,3.20,4.41,-0.21,-0.38,1.18,
4.963,8.66,3.19,4.68,-0.21,-0.38,1.18,
4.966,8.66,3.19,4.68,-0.25,-0.39,1.28,
