
time,ax,ay,az,wx,wy,wz,
0.002,0.05,-0.13,-0.68,0.16,-0.04,-0.02,
0.002,0.05,-0.13,-0.68,0.14,0.02,-0.02,
0.002,0.05,-0.13,-0.68,0.12,0.07,-0.02,
0.002,0.02,0.03,-0.61,0.12,0.07,-0.02,
0.003,0.02,0.03,-0.61,0.11,0.12,-0.01,
0.003,0.02,0.03,-0.61,0.09,0.16,-0.01,
0.006,0.02,0.17,-0.46,0.09,0.16,-0.01,
0.006,0.02,0.17,-0.46,0.08,0.19,-0.01,
0.009,0.02,0.17,-0.46,0.06,0.22,-0.01,
0.012,-0.04,0.28,-0.27,0.06,0.22,-0.01,
0.012,-0.04,0.28,-0.27,0.05,0.23,-0.01,
0.015,-0.04,0.28,-0.27,0.03,0.24,-0.01,
0.017,-0.12,0.32,-0.11,0.03,0.24,-0.01,
0.017,-0.12,0.32,-0.11,0.02,0.23,-0.00,
0.019,-0.12,0.32,-0.11,0.00,0.22,0.00,
0.021,-0.17,0.34,-0.00,0.00,0.22,0.00,
0.021,-0.17,0.34,-0.00,-0.02,0.21,0.00,
0.024,-0.17,0.34,-0.00,-0.03,0.19,0.01,
0.026,-0.17,0.36,0.05,-0.03,0.19,0.01,
0.026,-0.17,0.36,0.05,-0.05,0.17,0.01,
0.028,-0.17,0.36,0.05,-0.07,0.15,0.01,
0.032,-0.15,0.35,0.08,-0.07,0.15,0.01,
0.032,-0.15,0.35,0.08,-0.08,0.12,0.01,
0.034,-0.15,0.35,0.08,-0.10,0.10,0.01,
0.036,-0.15,0.35,0.08,-0.11,0.08,0.01,
0.036,-0.11,0.34,0.10,-0.11,0.08,0.01,
0.038,-0.11,0.34,0.10,-0.12,0.06,0.01,
0.041,-0.11,0.34,0.10,-0.13,0.04,0.01,
0.041,-0.03,0.31,0.13,-0.13,0.04,0.01,
0.043,-0.03,0.31,0.13,-0.14,0.02,0.00,
0.046,-0.03,0.31,0.13,-0.15,0.01,-0.00,
0.046,0.05,0.28,0.13,-0.15,0.01,-0.00,
0.049,0.05,0.28,0.13,-0.15,-0.00,-0.01,
0.051,0.09,0.27,0.14,-0.15,-0.00,-0.01,
0.051,0.09,0.27,0.14,-0.15,-0.01,-0.01,
0.053,0.09,0.27,0.14,-0.15,-0.02,-0.02,
0.055,0.09,0.27,0.14,-0.15,-0.02,-0.02,
0.056,0.13,0.25,0.12,-0.15,-0.02,-0.02,
0.058,0.13,0.25,0.12,-0.15,-0.02,-0.02,
0.06,0.13,0.25,0.12,-0.14,-0.02,-0.03,
0.061,0.14,0.26,0.13,-0.14,-0.02,-0.03,
0.064,0.14,0.26,0.13,-0.13,-0.01,-0.03,
0.066,0.14,0.26,0.13,-0.12,-0.00,-0.03,
0.066,0.12,0.27,0.09,-0.12,-0.00,-0.03,
0.068,0.12,0.27,0.09,-0.12,0.01,-0.03,
0.07,0.12,0.27,0.09,-0.11,0.03,-0.03,
0.071,0.10,0.30,0.08,-0.11,0.03,-0.03,
0.073,0.10,0.30,0.08,-0.10,0.04,-0.03,
0.076,0.06,0.29,0.07,-0.10,0.04,-0.03,
0.076,0.06,0.29,0.07,-0.10,0.06,-0.03,
0.078,0.06,0.29,0.07,-0.09,0.07,-0.02,
0.082,0.00,0.30,0.08,-0.09,0.07,-0.02,
0.083,0.00,0.30,0.08,-0.09,0.09,-0.02,
0.083,0.00,0.30,0.08,-0.08,0.11,-0.01,
0.086,-0.03,0.32,0.11,-0.08,0.11,-0.01,
0.086,-0.03,0.32,0.11,-0.08,0.12,-0.01,
0.088,-0.03,0.32,0.11,-0.07,0.13,-0.00,
0.091,-0.03,0.32,0.11,-0.07,0.15,0.01,
0.091,-0.06,0.31,0.18,-0.07,0.15,0.01,
0.093,-0.06,0.31,0.18,-0.07,0.16,0.01,
0.096,-0.06,0.31,0.18,-0.07,0.16,0.02,
0.096,-0.10,0.28,0.26,-0.07,0.16,0.02,
0.101,-0.08,0.26,0.33,-0.07,0.16,0.02,
0.101,-0.08,0.26,0.33,-0.06,0.17,0.03,
0.101,-0.08,0.26,0.33,-0.06,0.17,0.03,
0.103,-0.08,0.26,0.33,-0.06,0.16,0.04,
0.106,-0.04,0.22,0.37,-0.06,0.16,0.04,
0.106,-0.04,0.22,0.37,-0.05,0.16,0.04,
0.107,-0.04,0.22,0.37,-0.05,0.15,0.05,
0.11,-0.04,0.22,0.37,-0.04,0.15,0.05,
0.11,-0.04,0.18,0.42,-0.04,0.15,0.05,
0.112,-0.04,0.18,0.42,-0.04,0.14,0.05,
0.115,-0.02,0.12,0.46,-0.04,0.14,0.05,
0.115,-0.02,0.12,0.46,-0.04,0.13,0.05,
0.118,-0.02,0.12,0.46,-0.04,0.12,0.05,
0.12,-0.02,0.08,0.48,-0.04,0.12,0.05,
0.12,-0.02,0.08,0.48,-0.03,0.12,0.05,
0.122,-0.02,0.08,0.48,-0.03,0.11,0.04,
0.125,0.02,0.05,0.48,-0.03,0.11,0.04,
0.125,0.02,0.05,0.48,-0.03,0.10,0.04,
0.127,0.02,0.05,0.48,-0.03,0.09,0.04,
0.131,0.02,0.05,0.48,-0.03,0.08,0.03,
0.131,0.02,0.01,0.47,-0.03,0.08,0.03,
0.133,0.02,0.01,0.47,-0.02,0.07,0.03,
0.136,0.04,-0.00,0.47,-0.02,0.07,0.03,
0.136,0.04,-0.00,0.47,-0.02,0.07,0.03,
0.137,0.04,-0.00,0.47,-0.02,0.06,0.02,
0.14,0.04,-0.00,0.47,-0.01,0.06,0.02,
0.14,0.05,-0.02,0.46,-0.01,0.06,0.02,
0.142,0.05,-0.02,0.46,-0.00,0.06,0.02,
0.145,0.05,-0.02,0.46,0.00,0.06,0.02,
0.145,0.03,-0.02,0.47,0.00,0.06,0.02,
0.147,0.03,-0.02,0.47,0.01,0.05,0.01,
0.154,0.03,-0.02,0.47,0.02,0.05,0.01,
0.154,0.02,-0.02,0.44,0.02,0.05,0.01,
0.154,0.02,-0.02,0.44,0.03,0.05,0.01,
0.155,0.02,-0.02,0.44,0.04,0.05,0.01,
0.155,0.02,-0.03,0.40,0.04,0.05,0.01,
0.157,0.02,-0.03,0.40,0.04,0.06,0.00,
0.16,0.02,-0.03,0.40,0.05,0.06,0.00,
0.171,0.00,-0.03,0.39,0.05,0.06,0.00,
0.171,0.00,-0.03,0.39,0.06,0.06,0.00,
0.172,-0.02,-0.03,0.32,0.06,0.06,0.00,
0.172,-0.02,-0.03,0.32,0.07,0.06,0.00,
0.172,-0.02,-0.03,0.32,0.07,0.06,0.00,
0.172,-0.02,-0.04,0.27,0.07,0.06,0.00,
0.172,-0.02,-0.04,0.27,0.08,0.06,0.00,
0.172,-0.02,-0.04,0.27,0.09,0.06,0.00,
0.175,-0.02,-0.04,0.27,0.09,0.07,0.00,
0.175,-0.02,-0.04,0.20,0.09,0.07,0.00,
0.177,-0.02,-0.04,0.20,0.10,0.07,0.00,
0.18,-0.02,-0.04,0.20,0.10,0.07,0.00,
0.18,0.00,-0.09,0.14,0.10,0.07,0.00,
0.183,0.00,-0.09,0.14,0.10,0.08,0.00,
0.185,-0.01,-0.12,0.09,0.10,0.08,0.00,
0.186,-0.01,-0.12,0.09,0.11,0.08,0.00,
0.187,-0.01,-0.12,0.09,0.11,0.09,-0.00,
0.189,-0.01,-0.12,0.09,0.11,0.10,-0.00,
0.19,0.03,-0.15,0.05,0.11,0.10,-0.00,
0.192,0.03,-0.15,0.05,0.11,0.10,-0.01,
0.194,0.03,-0.15,0.05,0.12,0.11,-0.01,
0.195,0.03,-0.19,-0.01,0.12,0.11,-0.01,
0.197,0.03,-0.19,-0.01,0.12,0.11,-0.01,
0.2,0.03,-0.19,-0.01,0.12,0.12,-0.01,
0.2,0.04,-0.20,-0.01,0.12,0.12,-0.01,
0.202,0.04,-0.20,-0.01,0.12,0.12,-0.02,
0.204,0.04,-0.20,-0.01,0.12,0.13,-0.02,
0.204,0.04,-0.20,-0.04,0.12,0.13,-0.02,
0.207,0.04,-0.20,-0.04,0.12,0.13,-0.03,
0.209,0.04,-0.20,-0.04,0.13,0.13,-0.03,
0.209,0.05,-0.22,-0.07,0.13,0.13,-0.03,
0.212,0.05,-0.22,-0.07,0.13,0.14,-0.04,
0.214,0.05,-0.21,-0.09,0.13,0.14,-0.04,
0.217,0.05,-0.21,-0.09,0.13,0.14,-0.04,
0.217,0.05,-0.21,-0.09,0.13,0.14,-0.05,
0.22,0.05,-0.21,-0.09,0.13,0.15,-0.06,
0.22,0.04,-0.24,-0.13,0.13,0.15,-0.06,
0.222,0.04,-0.24,-0.13,0.14,0.15,-0.06,
0.224,0.04,-0.24,-0.13,0.14,0.15,-0.07,
0.224,0.03,-0.24,-0.20,0.14,0.15,-0.07,
0.226,0.03,-0.24,-0.20,0.14,0.15,-0.07,
0.229,0.03,-0.22,-0.27,0.14,0.15,-0.07,
0.229,0.03,-0.22,-0.27,0.15,0.16,-0.08,
0.233,0.03,-0.22,-0.27,0.15,0.17,-0.09,
0.234,0.03,-0.22,-0.27,0.15,0.17,-0.10,
0.235,0.00,-0.23,-0.35,0.15,0.17,-0.10,
0.236,0.00,-0.23,-0.35,0.15,0.18,-0.10,
0.239,0.00,-0.23,-0.35,0.16,0.19,-0.11,
0.239,-0.01,-0.22,-0.42,0.16,0.19,-0.11,
0.241,-0.01,-0.22,-0.42,0.16,0.20,-0.12,
0.244,-0.01,-0.22,-0.42,0.16,0.21,-0.12,
0.244,-0.06,-0.25,-0.44,0.16,0.21,-0.12,
0.246,-0.06,-0.25,-0.44,0.17,0.22,-0.13,
0.249,-0.11,-0.30,-0.47,0.17,0.22,-0.13,
0.25,-0.11,-0.30,-0.47,0.17,0.23,-0.13,
0.252,-0.11,-0.30,-0.47,0.18,0.24,-0.14,
0.254,-0.11,-0.30,-0.47,0.19,0.25,-0.14,
0.254,-0.18,-0.41,-0.51,0.19,0.25,-0.14,
0.256,-0.18,-0.41,-0.51,0.19,0.26,-0.15,
0.259,-0.18,-0.41,-0.51,0.21,0.27,-0.16,
0.259,-0.23,-0.53,-0.57,0.21,0.27,-0.16,
0.261,-0.23,-0.53,-0.57,0.22,0.28,-0.16,
0.265,-0.23,-0.53,-0.57,0.23,0.29,-0.17,
0.265,-0.26,-0.69,-0.64,0.23,0.29,-0.17,
0.266,-0.26,-0.69,-0.64,0.24,0.30,-0.18,
0.269,-0.26,-0.84,-0.73,0.24,0.30,-0.18,
0.271,-0.26,-0.84,-0.73,0.26,0.31,-0.19,
0.271,-0.26,-0.84,-0.73,0.27,0.33,-0.20,
0.274,-0.26,-0.84,-0.73,0.29,0.34,-0.22,
0.274,-0.26,-0.99,-0.83,0.29,0.34,-0.22,
0.276,-0.26,-0.99,-0.83,0.30,0.36,-0.23,
0.279,-0.26,-0.99,-0.83,0.32,0.37,-0.25,
0.279,-0.29,-1.12,-0.91,0.32,0.37,-0.25,
0.284,-0.29,-1.12,-0.91,0.34,0.39,-0.28,
0.284,-0.29,-1.12,-0.91,0.37,0.41,-0.30,
0.284,-0.36,-1.30,-1.00,0.37,0.41,-0.30,
0.286,-0.36,-1.30,-1.00,0.39,0.42,-0.33,
0.289,-0.36,-1.30,-1.00,0.41,0.45,-0.35,
0.289,-0.35,-1.55,-1.18,0.41,0.45,-0.35,
0.291,-0.35,-1.55,-1.18,0.44,0.47,-0.38,
0.294,-0.24,-1.71,-1.26,0.44,0.47,-0.38,
0.294,-0.24,-1.71,-1.26,0.46,0.49,-0.42,
0.296,-0.24,-1.71,-1.26,0.49,0.51,-0.45,
0.3,-0.13,-1.85,-1.37,0.49,0.51,-0.45,
0.3,-0.13,-1.85,-1.37,0.52,0.54,-0.49,
0.301,-0.13,-1.85,-1.37,0.55,0.56,-0.54,
0.304,-0.13,-1.85,-1.37,0.57,0.59,-0.58,
0.304,-0.08,-2.01,-1.56,0.57,0.59,-0.58,
0.306,-0.08,-2.01,-1.56,0.60,0.63,-0.62,
0.308,-0.09,-2.18,-1.75,0.60,0.63,-0.62,
0.309,-0.09,-2.18,-1.75,0.63,0.67,-0.67,
0.311,-0.09,-2.18,-1.75,0.66,0.71,-0.71,
0.314,-0.03,-2.35,-1.85,0.66,0.71,-0.71,
0.314,-0.03,-2.35,-1.85,0.70,0.75,-0.76,
0.316,-0.03,-2.35,-1.85,0.73,0.80,-0.81,
0.319,0.05,-2.49,-1.92,0.73,0.80,-0.81,
0.319,0.05,-2.49,-1.92,0.77,0.85,-0.86,
0.321,0.05,-2.49,-1.92,0.81,0.90,-0.91,
0.323,0.05,-2.49,-1.92,0.85,0.95,-0.97,
0.324,0.14,-2.60,-2.00,0.85,0.95,-0.97,
0.334,0.14,-2.60,-2.00,0.90,1.01,-1.03,
0.334,0.22,-2.75,-2.05,0.90,1.01,-1.03,
0.335,0.22,-2.75,-2.05,0.94,1.07,-1.08,
0.335,0.22,-2.75,-2.05,0.99,1.12,-1.15,
0.338,0.31,-2.89,-2.15,0.99,1.12,-1.15,
0.338,0.31,-2.89,-2.15,1.04,1.19,-1.21,
0.339,0.40,-3.01,-2.23,1.04,1.19,-1.21,
0.339,0.40,-3.01,-2.23,1.10,1.26,-1.27,
0.339,0.40,-3.01,-2.23,1.15,1.33,-1.34,
0.343,0.44,-3.14,-2.25,1.15,1.33,-1.34,
0.343,0.44,-3.14,-2.25,1.20,1.41,-1.41,
0.344,0.44,-3.14,-2.25,1.26,1.49,-1.47,
0.346,0.44,-3.14,-2.25,1.31,1.57,-1.54,
0.35,0.42,-3.24,-2.26,1.31,1.57,-1.54,
0.35,0.42,-3.24,-2.26,1.37,1.65,-1.61,
0.351,0.42,-3.24,-2.26,1.43,1.74,-1.68,
0.353,0.42,-3.24,-2.26,1.49,1.82,-1.75,
0.354,0.36,-3.41,-2.22,1.49,1.82,-1.75,
0.356,0.36,-3.41,-2.22,1.56,1.89,-1.81,
0.358,0.36,-3.41,-2.22,1.62,1.96,-1.87,
0.358,0.24,-3.57,-2.19,1.62,1.96,-1.87,
0.36,0.24,-3.57,-2.19,1.69,2.04,-1.93,
0.363,0.24,-3.57,-2.19,1.75,2.12,-1.99,
0.363,0.16,-3.69,-2.17,1.75,2.12,-1.99,
0.367,0.16,-3.69,-2.17,1.82,2.19,-2.06,
0.369,0.05,-3.73,-2.15,1.82,2.19,-2.06,
0.369,0.05,-3.73,-2.15,1.89,2.25,-2.12,
0.371,0.05,-3.73,-2.15,1.95,2.32,-2.17,
0.373,-0.04,-3.80,-2.18,1.95,2.32,-2.17,
0.373,-0.04,-3.80,-2.18,2.02,2.38,-2.23,
0.375,-0.04,-3.80,-2.18,2.08,2.43,-2.29,
0.378,-0.04,-3.80,-2.18,2.14,2.49,-2.34,
0.378,-0.05,-3.91,-2.18,2.14,2.49,-2.34,
0.381,-0.05,-3.91,-2.18,2.20,2.55,-2.39,
0.383,0.04,-4.06,-2.09,2.20,2.55,-2.39,
0.383,0.04,-4.06,-2.09,2.26,2.61,-2.45,
0.385,0.04,-4.06,-2.09,2.32,2.67,-2.51,
0.388,0.23,-4.23,-1.96,2.32,2.67,-2.51,
0.388,0.23,-4.23,-1.96,2.39,2.72,-2.57,
0.39,0.23,-4.23,-1.96,2.45,2.77,-2.64,
0.393,0.47,-4.40,-1.84,2.45,2.77,-2.64,
0.393,0.47,-4.40,-1.84,2.52,2.83,-2.71,
0.395,0.47,-4.40,-1.84,2.59,2.88,-2.79,
0.398,0.47,-4.40,-1.84,2.66,2.93,-2.86,
0.399,0.68,-4.62,-1.77,2.66,2.93,-2.86,
0.402,0.68,-4.62,-1.77,2.73,2.97,-2.95,
0.403,0.83,-4.99,-1.58,2.73,2.97,-2.95,
0.403,0.83,-4.99,-1.58,2.80,3.01,-3.04,
0.405,0.83,-4.99,-1.58,2.88,3.04,-3.13,
0.408,0.98,-5.62,-1.28,2.88,3.04,-3.13,
0.408,0.98,-5.62,-1.28,2.95,3.05,-3.24,
0.411,0.98,-5.62,-1.28,3.03,3.05,-3.35,
0.413,1.40,-6.30,-0.98,3.03,3.05,-3.35,
0.413,1.40,-6.30,-0.98,3.12,3.06,-3.48,
0.415,1.40,-6.30,-0.98,3.21,3.06,-3.62,
0.419,1.40,-6.30,-0.98,3.31,3.07,-3.77,
0.419,2.01,-6.79,-0.83,3.31,3.07,-3.77,
0.42,2.01,-6.79,-0.83,3.40,3.09,-3.92,
0.423,2.61,-7.08,-0.72,3.40,3.09,-3.92,
0.423,2.61,-7.08,-0.72,3.50,3.11,-4.07,
0.425,2.61,-7.08,-0.72,3.60,3.14,-4.23,
0.427,2.61,-7.08,-0.72,3.71,3.16,-4.39,
0.428,3.26,-7.54,-0.52,3.71,3.16,-4.39,
0.431,3.26,-7.54,-0.52,3.82,3.16,-4.57,
0.432,3.26,-7.54,-0.52,3.93,3.14,-4.79,
0.433,4.82,-8.71,-0.24,3.93,3.14,-4.79,
0.435,4.82,-8.71,-0.24,4.04,3.15,-4.99,
0.438,4.82,-8.71,-0.24,4.13,3.16,-5.19,
0.438,4.20,-9.05,-0.90,4.13,3.16,-5.19,
0.44,4.20,-9.05,-0.90,4.21,3.19,-5.36,
0.442,4.20,-9.05,-0.90,4.28,3.21,-5.52,
0.442,3.43,-9.03,-1.29,4.28,3.21,-5.52,
0.445,3.43,-9.03,-1.29,4.35,3.23,-5.66,
0.449,2.77,-8.60,-1.46,4.35,3.23,-5.66,
0.449,2.77,-8.60,-1.46,4.41,3.26,-5.78,
0.45,2.77,-8.60,-1.46,4.48,3.29,-5.90,
0.453,2.77,-8.60,-1.46,4.54,3.33,-6.00,
0.453,2.16,-8.19,-1.67,4.54,3.33,-6.00,
0.455,2.16,-8.19,-1.67,4.59,3.36,-6.10,
0.457,2.16,-8.19,-1.67,4.65,3.40,-6.19,
0.458,1.62,-7.96,-1.91,4.65,3.40,-6.19,
0.46,1.62,-7.96,-1.91,4.70,3.43,-6.28,
0.462,1.62,-7.96,-1.91,4.74,3.46,-6.36,
0.462,1.18,-7.79,-2.28,4.74,3.46,-6.36,
0.465,1.18,-7.79,-2.28,4.76,3.48,-6.43,
0.467,1.18,-7.79,-2.28,4.77,3.49,-6.49,
0.467,0.51,-7.53,-2.87,4.77,3.49,-6.49,
0.47,0.51,-7.53,-2.87,4.76,3.50,-6.54,
0.472,0.51,-7.53,-2.87,4.73,3.49,-6.57,
0.473,-0.23,-7.15,-3.56,4.73,3.49,-6.57,
0.474,-0.23,-7.15,-3.56,4.68,3.48,-6.60,
0.477,-0.23,-7.15,-3.56,4.62,3.46,-6.61,
0.478,-0.80,-6.68,-4.20,4.62,3.46,-6.61,
0.481,-0.80,-6.68,-4.20,4.53,3.44,-6.61,
0.484,-0.80,-6.68,-4.20,4.44,3.42,-6.61,
0.484,-1.32,-6.06,-4.59,4.44,3.42,-6.61,
0.485,-1.32,-6.06,-4.59,4.32,3.40,-6.59,
0.487,-1.32,-6.06,-4.59,4.19,3.37,-6.58,
0.487,-1.77,-5.43,-4.80,4.19,3.37,-6.58,
0.489,-1.77,-5.43,-4.80,4.05,3.34,-6.55,
0.499,-1.77,-5.43,-4.80,3.90,3.31,-6.53,
0.499,-2.04,-4.80,-4.85,3.90,3.31,-6.53,
0.499,-2.04,-4.80,-4.85,3.74,3.26,-6.50,
0.499,-2.04,-4.80,-4.85,3.57,3.20,-6.48,
0.5,-2.25,-4.26,-4.61,3.57,3.20,-6.48,
0.5,-2.25,-4.26,-4.61,3.39,3.12,-6.45,
0.503,-2.25,-4.26,-4.61,3.21,3.03,-6.42,
0.503,-2.53,-3.82,-4.19,3.21,3.03,-6.42,
0.505,-2.53,-3.82,-4.19,3.02,2.92,-6.39,
0.507,-2.83,-3.49,-3.69,3.02,2.92,-6.39,
0.507,-2.83,-3.49,-3.69,2.84,2.80,-6.36,
0.509,-2.83,-3.49,-3.69,2.65,2.66,-6.32,
0.512,-3.11,-3.26,-3.11,2.65,2.66,-6.32,
0.512,-3.11,-3.26,-3.11,2.47,2.52,-6.28,
0.514,-3.11,-3.26,-3.11,2.29,2.37,-6.24,
0.517,-3.11,-3.26,-3.11,2.11,2.21,-6.20,
0.517,-3.42,-3.13,-2.45,2.11,2.21,-6.20,
0.519,-3.42,-3.13,-2.45,1.94,2.05,-6.16,
0.522,-3.74,-2.99,-1.75,1.94,2.05,-6.16,
0.522,-3.74,-2.99,-1.75,1.78,1.88,-6.11,
0.524,-3.74,-2.99,-1.75,1.63,1.72,-6.07,
0.527,-3.74,-2.99,-1.75,1.48,1.56,-6.02,
0.527,-4.18,-2.82,-1.07,1.48,1.56,-6.02,
0.529,-4.18,-2.82,-1.07,1.35,1.40,-5.96,
0.532,-4.69,-2.53,-0.24,1.35,1.40,-5.96,
0.532,-4.69,-2.53,-0.24,1.22,1.23,-5.90,
0.534,-4.69,-2.53,-0.24,1.09,1.07,-5.83,
0.537,-5.16,-2.00,0.53,1.09,1.07,-5.83,
0.537,-5.16,-2.00,0.53,0.98,0.89,-5.76,
0.539,-5.16,-2.00,0.53,0.87,0.72,-5.68,
0.541,-5.16,-2.00,0.53,0.76,0.55,-5.60,
0.541,-5.58,-1.31,1.08,0.76,0.55,-5.60,
0.544,-5.58,-1.31,1.08,0.65,0.37,-5.51,
0.546,-5.58,-1.31,1.08,0.55,0.21,-5.42,
0.546,-6.11,-0.61,1.54,0.55,0.21,-5.42,
0.551,-6.11,-0.61,1.54,0.44,0.05,-5.33,
0.551,-6.11,-0.61,1.54,0.34,-0.10,-5.23,
0.552,-6.68,0.08,1.95,0.34,-0.10,-5.23,
0.554,-6.68,0.08,1.95,0.24,-0.25,-5.12,
0.557,-7.15,0.71,2.45,0.24,-0.25,-5.12,
0.558,-7.15,0.71,2.45,0.15,-0.39,-5.01,
0.56,-7.15,0.71,2.45,0.06,-0.53,-4.89,
0.563,-7.40,1.30,2.94,0.06,-0.53,-4.89,
0.563,-7.40,1.30,2.94,-0.02,-0.66,-4.77,
0.565,-7.40,1.30,2.94,-0.09,-0.80,-4.65,
0.567,-7.40,1.30,2.94,-0.15,-0.92,-4.53,
0.568,-7.39,1.84,3.24,-0.15,-0.92,-4.53,
0.571,-7.39,1.84,3.24,-0.21,-1.04,-4.42,
0.572,-7.38,2.28,3.33,-0.21,-1.04,-4.42,
0.573,-7.38,2.28,3.33,-0.26,-1.16,-4.31,
0.574,-7.38,2.28,3.33,-0.31,-1.26,-4.20,
0.576,-7.55,2.65,3.37,-0.31,-1.26,-4.20,
0.577,-7.55,2.65,3.37,-0.35,-1.34,-4.08,
0.579,-7.55,2.65,3.37,-0.38,-1.40,-3.96,
0.582,-7.55,2.65,3.37,-0.40,-1.45,-3.84,
0.584,-7.76,3.03,3.51,-0.40,-1.45,-3.84,
0.584,-7.76,3.03,3.51,-0.42,-1.49,-3.72,
0.586,-7.76,3.03,3.51,-0.42,-1.52,-3.60,
0.587,-7.70,3.39,3.67,-0.42,-1.52,-3.60,
0.588,-7.70,3.39,3.67,-0.42,-1.53,-3.48,
0.591,-7.70,3.39,3.67,-0.40,-1.54,-3.36,
0.591,-7.37,3.73,3.73,-0.40,-1.54,-3.36,
0.593,-7.37,3.73,3.73,-0.38,-1.53,-3.25,
0.596,-7.37,3.73,3.73,-0.36,-1.51,-3.14,
0.596,-7.06,3.97,3.66,-0.36,-1.51,-3.14,
0.6,-7.06,3.97,3.66,-0.33,-1.48,-3.04,
0.601,-6.83,4.07,3.51,-0.33,-1.48,-3.04,
0.604,-6.83,4.07,3.51,-0.30,-1.44,-2.94,
0.605,-6.83,4.07,3.51,-0.27,-1.39,-2.84,
0.606,-6.83,4.07,3.51,-0.23,-1.34,-2.74,
0.606,-6.56,4.05,3.39,-0.23,-1.34,-2.74,
0.608,-6.56,4.05,3.39,-0.19,-1.28,-2.66,
0.611,-6.56,4.05,3.39,-0.15,-1.22,-2.58,
0.611,-6.13,4.00,3.33,-0.15,-1.22,-2.58,
0.613,-6.13,4.00,3.33,-0.10,-1.16,-2.51,
0.616,-6.13,4.00,3.33,-0.05,-1.09,-2.45,
0.617,-5.66,3.99,3.27,-0.05,-1.09,-2.45,
0.618,-5.66,3.99,3.27,-0.00,-1.03,-2.40,
0.621,-5.66,3.99,3.27,0.05,-0.97,-2.34,
0.621,-5.33,4.17,3.07,0.05,-0.97,-2.34,
0.624,-5.33,4.17,3.07,0.10,-0.90,-2.29,
0.626,-5.33,4.17,3.07,0.15,-0.82,-2.24,
0.626,-5.14,4.31,2.64,0.15,-0.82,-2.24,
0.628,-5.14,4.31,2.64,0.18,-0.75,-2.19,
0.636,-5.14,4.31,2.64,0.22,-0.68,-2.14,
0.654,-5.07,4.40,2.21,0.22,-0.68,-2.14,
0.656,-4.93,4.56,1.82,0.22,-0.68,-2.14,
0.656,-4.79,4.81,1.42,0.22,-0.68,-2.14,
0.656,-4.75,5.10,1.06,0.22,-0.68,-2.14,
0.657,-4.75,5.10,1.06,0.25,-0.62,-2.09,
0.657,-4.75,5.10,1.06,0.29,-0.56,-2.04,
0.657,-4.75,5.10,1.06,0.32,-0.49,-1.99,
0.658,-4.75,5.10,1.06,0.35,-0.43,-1.94,
0.658,-4.75,5.10,1.06,0.38,-0.35,-1.89,
0.658,-4.75,5.10,1.06,0.41,-0.26,-1.84,
0.658,-4.75,5.10,1.06,0.44,-0.16,-1.80,
0.658,-4.74,5.42,0.82,0.44,-0.16,-1.80,
0.659,-4.74,5.42,0.82,0.48,-0.04,-1.75,
0.659,-4.74,5.42,0.82,0.52,0.08,-1.69,
0.659,-4.71,5.73,0.71,0.52,0.08,-1.69,
0.679,-4.71,5.73,0.71,0.57,0.22,-1.64,
0.679,-4.71,5.73,0.71,0.62,0.37,-1.57,
0.679,-4.70,5.98,0.72,0.62,0.37,-1.57,
0.68,-4.70,5.98,0.72,0.68,0.52,-1.51,
0.68,-4.70,5.98,0.72,0.75,0.68,-1.43,
0.68,-4.66,6.13,0.71,0.75,0.68,-1.43,
0.68,-4.66,6.13,0.71,0.82,0.83,-1.36,
0.68,-4.66,6.13,0.71,0.90,0.98,-1.28,
0.681,-4.66,6.13,0.71,0.99,1.12,-1.19,
0.681,-4.68,6.20,0.62,0.99,1.12,-1.19,
0.681,-4.68,6.20,0.62,1.07,1.27,-1.11,
0.681,-4.68,6.20,0.62,1.16,1.41,-1.01,
0.681,-4.60,6.13,0.58,1.16,1.41,-1.01,
0.682,-4.60,6.13,0.58,1.25,1.54,-0.92,
0.682,-4.39,5.90,0.55,1.25,1.54,-0.92,
0.682,-4.39,5.90,0.55,1.34,1.67,-0.83,
0.685,-4.39,5.90,0.55,1.42,1.78,-0.74,
0.686,-4.39,5.90,0.55,1.50,1.87,-0.66,
0.686,-4.10,5.67,0.59,1.50,1.87,-0.66,
0.689,-4.10,5.67,0.59,1.57,1.94,-0.58,
0.69,-4.10,5.67,0.59,1.62,1.99,-0.51,
0.69,-3.98,5.56,0.39,1.62,1.99,-0.51,
0.693,-3.98,5.56,0.39,1.67,2.00,-0.44,
0.695,-3.98,5.56,0.39,1.72,1.98,-0.38,
0.696,-3.91,5.46,0.61,1.72,1.98,-0.38,
0.698,-3.91,5.46,0.61,1.76,1.94,-0.32,
0.7,-3.91,5.46,0.61,1.80,1.88,-0.26,
0.701,-3.65,5.28,0.75,1.80,1.88,-0.26,
0.703,-3.65,5.28,0.75,1.83,1.80,-0.22,
0.705,-3.65,5.28,0.75,1.84,1.70,-0.18,
0.706,-3.48,5.11,0.22,1.84,1.70,-0.18,
0.71,-3.48,5.11,0.22,1.84,1.58,-0.14,
0.71,-3.48,5.11,0.22,1.82,1.45,-0.09,
0.71,-3.63,4.91,-0.29,1.82,1.45,-0.09,
0.712,-3.63,4.91,-0.29,1.79,1.33,-0.04,
0.716,-3.63,4.91,-0.29,1.76,1.22,0.02,
0.716,-3.54,4.80,-0.64,1.76,1.22,0.02,
0.717,-3.54,4.80,-0.64,1.72,1.11,0.08,
0.721,-3.54,4.80,-0.64,1.68,1.01,0.14,
0.721,-3.40,4.97,-0.86,1.68,1.01,0.14,
0.723,-3.40,4.97,-0.86,1.64,0.92,0.20,
0.725,-3.40,4.97,-0.86,1.59,0.85,0.26,
0.725,-3.16,5.40,-1.74,1.59,0.85,0.26,
0.727,-3.16,5.40,-1.74,1.52,0.78,0.32,
0.73,-3.16,5.40,-1.74,1.45,0.73,0.39,
0.73,-3.25,5.77,-2.84,1.45,0.73,0.39,
0.732,-3.25,5.77,-2.84,1.37,0.68,0.46,
0.735,-3.37,6.07,-3.79,1.37,0.68,0.46,
0.736,-3.37,6.07,-3.79,1.28,0.64,0.54,
0.737,-3.37,6.07,-3.79,1.18,0.61,0.63,
0.74,-3.35,6.33,-4.60,1.18,0.61,0.63,
0.74,-3.35,6.33,-4.60,1.09,0.59,0.71,
0.742,-3.35,6.33,-4.60,0.99,0.59,0.80,
0.745,-3.16,6.33,-5.14,0.99,0.59,0.80,
0.745,-3.16,6.33,-5.14,0.89,0.60,0.89,
0.747,-3.16,6.33,-5.14,0.79,0.62,0.98,
0.75,-2.97,6.03,-5.51,0.79,0.62,0.98,
0.751,-2.97,6.03,-5.51,0.70,0.64,1.06,
0.752,-2.97,6.03,-5.51,0.61,0.68,1.14,
0.755,-2.64,5.52,-5.66,0.61,0.68,1.14,
0.755,-2.64,5.52,-5.66,0.53,0.73,1.21,
0.757,-2.64,5.52,-5.66,0.45,0.77,1.29,
0.76,-2.30,4.89,-5.63,0.45,0.77,1.29,
0.76,-2.30,4.89,-5.63,0.38,0.83,1.35,
0.763,-2.30,4.89,-5.63,0.32,0.90,1.41,
0.77,-1.99,4.26,-5.45,0.32,0.90,1.41,
0.771,-1.99,4.26,-5.45,0.27,0.98,1.47,
0.771,-1.99,4.26,-5.45,0.22,1.07,1.53,
0.771,-1.69,3.71,-5.40,0.22,1.07,1.53,
0.772,-1.69,3.71,-5.40,0.19,1.17,1.58,
0.774,-1.69,3.71,-5.40,0.17,1.29,1.63,
0.776,-1.51,3.17,-5.45,0.17,1.29,1.63,
0.776,-1.51,3.17,-5.45,0.15,1.42,1.68,
0.777,-1.51,3.17,-5.45,0.13,1.56,1.73,
0.78,-1.30,2.62,-5.39,0.13,1.56,1.73,
0.78,-1.30,2.62,-5.39,0.12,1.70,1.78,
0.782,-1.30,2.62,-5.39,0.11,1.83,1.82,
0.786,-1.13,2.13,-5.48,0.11,1.83,1.82,
0.786,-1.13,2.13,-5.48,0.09,1.97,1.85,
0.787,-1.13,2.13,-5.48,0.08,2.10,1.89,
0.789,-0.86,1.30,-5.22,0.08,2.10,1.89,
0.789,-0.86,1.30,-5.22,0.06,2.22,1.91,
0.792,-0.86,1.30,-5.22,0.05,2.35,1.91,
0.795,-0.55,0.36,-4.79,0.05,2.35,1.91,
0.795,-0.55,0.36,-4.79,0.02,2.48,1.89,
0.797,-0.55,0.36,-4.79,-0.00,2.57,1.85,
0.8,-0.23,-0.04,-4.06,-0.00,2.57,1.85,
0.801,-0.23,-0.04,-4.06,-0.02,2.63,1.81,
0.802,-0.23,-0.04,-4.06,-0.03,2.65,1.76,
0.804,-0.23,-0.04,-4.06,-0.01,2.63,1.72,
0.804,0.03,-0.42,-3.09,-0.01,2.63,1.72,
0.807,0.03,-0.42,-3.09,0.01,2.58,1.66,
0.809,0.03,-0.42,-3.09,0.04,2.51,1.61,
0.809,0.48,-0.91,-2.43,0.04,2.51,1.61,
0.811,0.48,-0.91,-2.43,0.06,2.43,1.55,
0.815,0.65,-1.30,-2.25,0.06,2.43,1.55,
0.816,0.65,-1.30,-2.25,0.07,2.33,1.50,
0.817,0.65,-1.30,-2.25,0.07,2.25,1.45,
0.819,0.65,-1.30,-2.25,0.05,2.18,1.41,
0.819,0.68,-1.30,-2.58,0.05,2.18,1.41,
0.831,0.68,-1.30,-2.58,0.01,2.12,1.39,
0.831,0.63,-1.19,-2.83,0.01,2.12,1.39,
0.831,0.63,-1.19,-2.83,-0.02,2.07,1.37,
0.831,0.63,-1.19,-2.83,-0.07,2.03,1.37,
0.832,0.63,-1.19,-2.83,-0.13,2.00,1.36,
0.832,0.60,-1.11,-3.28,-0.13,2.00,1.36,
0.832,0.60,-1.11,-3.28,-0.20,1.97,1.36,
0.834,0.78,-1.12,-3.69,-0.20,1.97,1.36,
0.835,0.78,-1.12,-3.69,-0.27,1.96,1.34,
0.837,0.78,-1.12,-3.69,-0.35,1.95,1.33,
0.839,0.78,-1.12,-3.69,-0.42,1.94,1.31,
0.839,0.93,-1.19,-3.89,-0.42,1.94,1.31,
0.841,0.93,-1.19,-3.89,-0.50,1.94,1.28,
0.844,1.36,-1.25,-3.79,-0.50,1.94,1.28,
0.844,1.36,-1.25,-3.79,-0.57,1.95,1.24,
0.848,1.36,-1.25,-3.79,-0.64,1.95,1.19,
0.85,1.24,-0.82,-3.48,-0.64,1.95,1.19,
0.85,1.24,-0.82,-3.48,-0.71,1.95,1.15,
0.851,1.24,-0.82,-3.48,-0.78,1.93,1.10,
0.854,1.24,-0.82,-3.48,-0.85,1.90,1.06,
0.854,1.14,-0.35,-3.18,-0.85,1.90,1.06,
0.856,1.14,-0.35,-3.18,-0.92,1.87,1.01,
0.859,1.14,-0.35,-3.18,-1.00,1.84,0.96,
0.86,1.23,-0.07,-3.03,-1.00,1.84,0.96,
0.864,1.23,-0.07,-3.03,-1.07,1.78,0.92,
0.864,1.23,-0.07,-3.03,-1.15,1.74,0.88,
0.864,1.48,0.02,-2.87,-1.15,1.74,0.88,
0.868,1.48,0.02,-2.87,-1.23,1.69,0.83,
0.869,1.48,0.02,-2.87,-1.29,1.65,0.78,
0.869,1.76,-0.27,-2.45,-1.29,1.65,0.78,
0.873,1.76,-0.27,-2.45,-1.36,1.60,0.73,
0.873,1.76,-0.27,-2.45,-1.45,1.55,0.66,
0.874,2.06,-0.38,-2.15,-1.45,1.55,0.66,
0.877,2.06,-0.38,-2.15,-1.53,1.48,0.60,
0.879,1.82,0.18,-2.02,-1.53,1.48,0.60,
0.879,1.82,0.18,-2.02,-1.62,1.44,0.55,
0.882,1.82,0.18,-2.02,-1.72,1.38,0.50,
0.885,1.82,0.18,-2.02,-1.82,1.33,0.46,
0.885,1.15,0.94,-1.64,-1.82,1.33,0.46,
0.887,1.15,0.94,-1.64,-1.90,1.30,0.44,
0.889,1.15,0.94,-1.64,-1.97,1.30,0.42,
0.889,0.64,1.53,-1.11,-1.97,1.30,0.42,
0.891,0.64,1.53,-1.11,-2.04,1.32,0.41,
0.893,0.64,1.53,-1.11,-2.07,1.35,0.43,
0.894,-0.37,1.15,-0.64,-2.07,1.35,0.43,
0.896,-0.37,1.15,-0.64,-2.08,1.36,0.47,
0.9,-0.37,1.15,-0.64,-2.06,1.37,0.52,
0.901,-1.08,0.31,1.05,-2.06,1.37,0.52,
0.901,-1.08,0.31,1.05,-2.01,1.37,0.56,
0.903,-0.73,0.31,1.28,-2.01,1.37,0.56,
0.904,-0.73,0.31,1.28,-1.96,1.41,0.58,
0.906,-0.73,0.31,1.28,-1.92,1.48,0.59,
0.908,-0.73,0.31,1.28,-1.89,1.57,0.60,
0.908,-0.51,1.72,0.60,-1.89,1.57,0.60,
0.911,-0.51,1.72,0.60,-1.87,1.69,0.64,
0.913,-0.51,1.72,0.60,-1.81,1.74,0.68,
0.914,-0.88,2.60,1.99,-1.81,1.74,0.68,
0.916,-0.88,2.60,1.99,-1.70,1.76,0.74,
0.918,-0.88,2.60,1.99,-1.56,1.77,0.80,
0.919,-2.08,0.15,2.94,-1.56,1.77,0.80,
0.921,-2.08,0.15,2.94,-1.43,1.77,0.84,
0.923,-2.08,0.15,2.94,-1.30,1.75,0.85,
0.923,-1.64,-1.21,2.85,-1.30,1.75,0.85,
0.926,-1.64,-1.21,2.85,-1.16,1.72,0.82,
0.928,-1.64,-1.21,2.85,-1.04,1.66,0.78,
0.928,-0.91,-1.50,3.01,-1.04,1.66,0.78,
0.93,-0.91,-1.50,3.01,-0.92,1.64,0.72,
0.934,-0.49,-1.66,3.21,-0.92,1.64,0.72,
0.934,-0.49,-1.66,3.21,-0.79,1.65,0.67,
0.936,-0.49,-1.66,3.21,-0.67,1.68,0.62,
0.938,0.12,-1.89,2.76,-0.67,1.68,0.62,
0.939,0.12,-1.89,2.76,-0.55,1.72,0.56,
0.941,0.12,-1.89,2.76,-0.44,1.76,0.51,
0.943,1.05,-2.13,1.95,-0.44,1.76,0.51,
0.944,1.05,-2.13,1.95,-0.34,1.79,0.44,
0.946,1.05,-2.13,1.95,-0.25,1.81,0.36,
0.95,1.59,-2.37,1.10,-0.25,1.81,0.36,
0.95,1.59,-2.37,1.10,-0.17,1.82,0.28,
0.951,1.59,-2.37,1.10,-0.11,1.82,0.20,
0.953,1.88,-2.52,0.44,-0.11,1.82,0.20,
0.953,1.88,-2.52,0.44,-0.06,1.82,0.12,
0.955,1.88,-2.52,0.44,-0.02,1.82,0.04,
0.958,1.94,-2.37,-0.06,-0.02,1.82,0.04,
0.958,1.94,-2.37,-0.06,0.00,1.82,-0.04,
0.961,1.94,-2.37,-0.06,0.01,1.80,-0.11,
0.963,1.94,-2.37,-0.06,0.01,1.78,-0.18,
0.963,2.11,-2.14,-0.51,0.01,1.78,-0.18,
0.966,2.11,-2.14,-0.51,-0.01,1.75,-0.24,
0.969,2.11,-2.14,-0.51,-0.03,1.72,-0.28,
0.969,2.00,-1.83,-0.81,-0.03,1.72,-0.28,
0.97,2.00,-1.83,-0.81,-0.06,1.70,-0.32,
0.973,2.00,-1.83,-0.81,-0.10,1.67,-0.35,
0.973,2.28,-1.60,-1.08,-0.10,1.67,-0.35,
0.975,2.28,-1.60,-1.08,-0.15,1.65,-0.37,
0.978,2.28,-1.60,-1.08,-0.20,1.65,-0.38,
0.978,1.54,-1.26,-1.30,-0.20,1.65,-0.38,
0.98,1.54,-1.26,-1.30,-0.25,1.68,-0.36,
0.984,0.78,-1.51,-1.14,-0.25,1.68,-0.36,
0.984,0.78,-1.51,-1.14,-0.30,1.71,-0.33,
0.986,0.78,-1.51,-1.14,-0.34,1.74,-0.28,
0.996,-0.29,-1.21,-0.88,-0.34,1.74,-0.28,
0.997,-0.29,-1.21,-0.88,-0.38,1.76,-0.21,
0.997,-0.29,-1.21,-0.88,-0.41,1.78,-0.14,
0.997,-1.21,-0.88,-0.35,-0.41,1.78,-0.14,
0.997,-1.21,-0.88,-0.35,-0.44,1.79,-0.05,
0.997,-1.21,-0.88,-0.35,-0.45,1.79,0.05,
0.999,-1.47,-0.69,0.06,-0.45,1.79,0.05,
0.999,-1.47,-0.69,0.06,-0.45,1.78,0.15,
1.001,-1.47,-0.69,0.06,-0.44,1.76,0.24,
1.005,-0.36,-1.26,-0.01,-0.44,1.76,0.24,
1.006,-0.36,-1.26,-0.01,-0.43,1.74,0.31,
1.006,-0.36,-1.26,-0.01,-0.43,1.72,0.35,
1.008,0.40,-1.76,-0.74,-0.43,1.72,0.35,
1.008,0.40,-1.76,-0.74,-0.43,1.74,0.37,
1.01,0.40,-1.76,-0.74,-0.43,1.78,0.35,
1.013,0.40,-1.76,-0.74,-0.44,1.84,0.30,
1.013,1.86,-2.11,-1.14,-0.44,1.84,0.30,
1.016,1.86,-2.11,-1.14,-0.43,1.89,0.23,
1.018,3.03,-2.00,-1.08,-0.43,1.89,0.23,
1.018,3.03,-2.00,-1.08,-0.42,1.88,0.13,
1.021,3.03,-2.00,-1.08,-0.40,1.80,0.02,
1.023,3.68,-1.40,-2.75,-0.40,1.80,0.02,
1.024,3.68,-1.40,-2.75,-0.42,1.51,-0.13,
1.026,3.68,-1.40,-2.75,-0.49,1.12,-0.28,
1.028,2.21,-1.34,-4.94,-0.49,1.12,-0.28,
1.029,2.21,-1.34,-4.94,-0.58,0.76,-0.43,
1.031,2.21,-1.34,-4.94,-0.69,0.49,-0.57,
1.033,1.56,-2.34,-5.73,-0.69,0.49,-0.57,
1.034,1.56,-2.34,-5.73,-0.81,0.32,-0.70,
1.035,1.56,-2.34,-5.73,-0.97,0.23,-0.82,
1.037,2.55,-2.57,-5.69,-0.97,0.23,-0.82,
1.038,2.55,-2.57,-5.69,-1.13,0.23,-0.95,
1.04,2.55,-2.57,-5.69,-1.30,0.31,-1.12,
1.042,2.55,-2.57,-5.69,-1.46,0.35,-1.29,
1.042,3.72,-2.45,-5.14,-1.46,0.35,-1.29,
1.045,3.72,-2.45,-5.14,-1.63,0.37,-1.45,
1.047,3.02,-2.14,-4.65,-1.63,0.37,-1.45,
1.047,3.02,-2.14,-4.65,-1.79,0.37,-1.60,
1.051,3.02,-2.14,-4.65,-1.93,0.32,-1.74,
1.052,3.02,-2.14,-4.65,-2.07,0.26,-1.88,
1.052,2.26,-1.72,-4.13,-2.07,0.26,-1.88,
1.055,2.26,-1.72,-4.13,-2.20,0.20,-2.00,
1.057,2.26,-1.72,-4.13,-2.31,0.13,-2.11,
1.057,1.05,-1.49,-3.55,-2.31,0.13,-2.11,
1.059,1.05,-1.49,-3.55,-2.41,0.06,-2.19,
1.062,1.05,-1.49,-3.55,-2.49,-0.02,-2.25,
1.062,-0.27,-1.42,-2.41,-2.49,-0.02,-2.25,
1.064,-0.27,-1.42,-2.41,-2.55,-0.08,-2.30,
1.075,-1.01,-1.25,-0.93,-2.55,-0.08,-2.30,
1.076,-1.01,-1.25,-0.93,-2.59,-0.15,-2.33,
1.076,-1.01,-1.25,-0.93,-2.61,-0.22,-2.36,
1.076,-1.01,-1.25,-0.93,-2.62,-0.28,-2.38,
1.076,-1.58,-0.92,0.15,-2.62,-0.28,-2.38,
1.077,-1.58,-0.92,0.15,-2.62,-0.32,-2.38,
1.077,-2.34,-0.63,1.01,-2.62,-0.32,-2.38,
1.077,-2.34,-0.63,1.01,-2.60,-0.37,-2.37,
1.08,-2.34,-0.63,1.01,-2.57,-0.41,-2.36,
1.082,-2.25,-0.06,1.50,-2.57,-0.41,-2.36,
1.083,-2.25,-0.06,1.50,-2.53,-0.42,-2.34,
1.093,-2.25,-0.06,1.50,-2.49,-0.38,-2.30,
1.094,-5.95,0.66,1.41,-2.49,-0.38,-2.30,
1.094,-5.53,1.41,1.32,-2.49,-0.38,-2.30,
1.094,-5.53,1.41,1.32,-2.44,-0.32,-2.21,
1.094,-5.53,1.41,1.32,-2.39,-0.23,-2.10,
1.094,-5.53,1.41,1.32,-2.35,-0.04,-2.02,
1.094,-5.53,1.41,1.32,-2.30,0.21,-1.97,
1.097,-4.09,1.76,1.66,-2.30,0.21,-1.97,
1.097,-4.09,1.76,1.66,-2.26,0.45,-1.94,
1.101,-4.09,1.76,1.66,-2.21,0.71,-1.92,
1.102,-2.59,1.67,1.72,-2.21,0.71,-1.92,
1.102,-2.59,1.67,1.72,-2.15,0.96,-1.91,
1.104,-2.59,1.67,1.72,-2.09,1.21,-1.91,
1.107,-1.31,0.52,2.02,-2.09,1.21,-1.91,
1.107,-1.31,0.52,2.02,-2.03,1.46,-1.94,
1.11,-1.31,0.52,2.02,-1.96,1.73,-1.99,
1.112,-1.33,0.32,1.48,-1.96,1.73,-1.99,
1.112,-1.33,0.32,1.48,-1.89,2.02,-2.03,
1.114,-1.33,0.32,1.48,-1.83,2.36,-2.05,
1.117,-1.33,0.32,1.48,-1.78,2.69,-2.08,
1.118,-0.58,0.20,1.27,-1.78,2.69,-2.08,
1.12,-0.58,0.20,1.27,-1.72,2.99,-2.13,
1.122,-0.58,0.20,1.27,-1.65,3.31,-2.18,
1.122,-0.82,-0.39,1.23,-1.65,3.31,-2.18,
1.125,-0.82,-0.39,1.23,-1.60,3.65,-2.22,
1.127,-0.82,-0.39,1.23,-1.54,3.99,-2.25,
1.127,-0.42,0.21,1.02,-1.54,3.99,-2.25,
1.129,-0.42,0.21,1.02,-1.49,4.30,-2.28,
1.132,0.18,0.14,1.44,-1.49,4.30,-2.28,
1.134,0.18,0.14,1.44,-1.43,4.60,-2.31,
1.135,0.18,0.14,1.44,-1.36,4.89,-2.35,
1.136,0.18,0.14,1.44,-1.31,5.19,-2.39,
1.137,0.96,-0.01,1.37,-1.31,5.19,-2.39,
1.141,0.96,-0.01,1.37,-1.25,5.48,-2.44,
1.142,0.96,-0.01,1.37,-1.18,5.75,-2.49,
1.142,1.67,-0.04,1.48,-1.18,5.75,-2.49,
1.144,1.67,-0.04,1.48,-1.11,5.95,-2.54,
1.147,1.67,-0.04,1.48,-1.03,6.05,-2.58,
1.148,1.01,-0.14,2.70,-1.03,6.05,-2.58,
1.15,1.01,-0.14,2.70,-0.92,6.12,-2.61,
1.151,1.01,-0.14,2.70,-0.81,6.18,-2.64,
1.167,1.27,-0.67,2.50,-0.81,6.18,-2.64,
1.168,1.27,-0.67,2.50,-0.68,6.20,-2.67,
1.168,1.52,-1.18,2.24,-0.68,6.20,-2.67,
1.168,1.52,-1.18,2.24,-0.54,6.16,-2.70,
1.169,1.52,-1.18,2.24,-0.36,5.99,-2.71,
1.169,0.83,-1.90,1.41,-0.36,5.99,-2.71,
1.169,0.83,-1.90,1.41,-0.17,5.65,-2.70,
1.17,0.83,-1.90,1.41,0.04,5.15,-2.65,
1.17,0.83,-1.90,1.41,0.27,4.54,-2.56,
1.17,-0.46,-2.53,-0.56,0.27,4.54,-2.56,
1.176,-0.46,-2.53,-0.56,0.50,3.84,-2.46,
1.179,-0.46,-2.53,-0.56,0.72,3.10,-2.32,
1.179,-0.46,-2.53,-0.56,0.91,2.36,-2.17,
1.18,-1.23,-3.08,-2.81,0.91,2.36,-2.17,
1.18,-1.33,-3.53,-4.25,0.91,2.36,-2.17,
1.18,-1.33,-3.53,-4.25,1.07,1.64,-2.02,
1.18,-1.33,-3.53,-4.25,1.19,0.97,-1.86,
1.182,-0.63,-3.51,-4.62,1.19,0.97,-1.86,
1.182,-0.63,-3.51,-4.62,1.28,0.36,-1.72,
1.184,-0.63,-3.51,-4.62,1.34,-0.17,-1.58,
1.187,0.72,-3.00,-4.13,1.34,-0.17,-1.58,
1.187,0.72,-3.00,-4.13,1.37,-0.61,-1.47,
1.189,0.72,-3.00,-4.13,1.39,-0.95,-1.36,
1.191,0.72,-3.00,-4.13,1.39,-1.21,-1.27,
1.191,1.76,-2.39,-3.32,1.39,-1.21,-1.27,
1.193,1.76,-2.39,-3.32,1.37,-1.38,-1.20,
1.196,1.76,-2.39,-3.32,1.35,-1.49,-1.12,
1.196,2.19,-1.50,-2.85,1.35,-1.49,-1.12,
1.199,2.19,-1.50,-2.85,1.32,-1.52,-1.04,
1.202,2.12,-0.50,-2.75,1.32,-1.52,-1.04,
1.202,2.12,-0.50,-2.75,1.28,-1.48,-0.95,
1.203,2.12,-0.50,-2.75,1.24,-1.40,-0.87,
1.206,2.12,-0.50,-2.75,1.19,-1.30,-0.79,
1.206,2.24,-0.20,-2.37,1.19,-1.30,-0.79,
1.208,2.24,-0.20,-2.37,1.14,-1.19,-0.70,
1.211,2.24,-0.20,-2.37,1.09,-1.09,-0.61,
1.211,2.10,0.00,-1.95,1.09,-1.09,-0.61,
1.213,2.10,0.00,-1.95,1.03,-0.99,-0.52,
1.217,2.10,0.00,-1.95,0.98,-0.90,-0.43,
1.217,1.96,0.09,-1.50,0.98,-0.90,-0.43,
1.218,1.96,0.09,-1.50,0.92,-0.81,-0.34,
1.221,1.96,0.09,-1.50,0.86,-0.74,-0.23,
1.221,1.61,0.36,-1.16,0.86,-0.74,-0.23,
1.223,1.61,0.36,-1.16,0.81,-0.70,-0.12,
1.226,1.61,0.36,-1.16,0.78,-0.77,0.00,
1.226,1.27,0.79,0.25,0.78,-0.77,0.00,
1.228,1.27,0.79,0.25,0.75,-0.81,0.13,
1.232,1.32,1.04,-0.01,0.75,-0.81,0.13,
1.232,1.32,1.04,-0.01,0.72,-0.79,0.25,
1.235,1.32,1.04,-0.01,0.70,-0.74,0.35,
1.236,1.59,1.30,0.63,0.70,-0.74,0.35,
1.236,1.59,1.30,0.63,0.69,-0.68,0.45,
1.238,1.59,1.30,0.63,0.70,-0.65,0.53,
1.241,1.72,1.29,1.29,0.70,-0.65,0.53,
1.242,1.72,1.29,1.29,0.72,-0.63,0.60,
1.244,1.72,1.29,1.29,0.74,-0.56,0.65,
1.251,0.65,0.35,0.13,0.74,-0.56,0.65,
1.251,0.61,-0.02,-0.02,0.74,-0.56,0.65,
1.251,0.61,-0.02,-0.02,0.76,-0.48,0.69,
1.252,0.61,-0.02,-0.02,0.78,-0.44,0.72,
1.252,0.61,-0.02,-0.02,0.80,-0.42,0.73,
1.253,0.61,-0.02,-0.02,0.83,-0.41,0.73,
1.255,0.61,-0.02,-0.02,0.86,-0.40,0.71,
1.256,0.62,-0.18,-0.17,0.86,-0.40,0.71,
1.258,0.62,-0.18,-0.17,0.89,-0.36,0.67,
1.261,0.47,-0.30,-0.65,0.89,-0.36,0.67,
1.261,0.47,-0.30,-0.65,0.92,-0.31,0.63,
1.263,0.47,-0.30,-0.65,0.96,-0.25,0.57,
1.267,0.44,-0.33,-0.81,0.96,-0.25,0.57,
1.267,0.44,-0.33,-0.81,1.00,-0.18,0.50,
1.268,0.44,-0.33,-0.81,1.04,-0.12,0.43,
1.27,0.44,-0.33,-0.81,1.09,-0.07,0.36,
1.27,0.60,0.03,-0.42,1.09,-0.07,0.36,
1.273,0.60,0.03,-0.42,1.14,-0.06,0.29,
1.275,0.57,0.09,0.11,1.14,-0.06,0.29,
1.275,0.57,0.09,0.11,1.19,-0.12,0.23,
1.277,0.57,0.09,0.11,1.25,-0.19,0.17,
1.28,0.57,0.09,0.11,1.32,-0.26,0.11,
1.281,1.00,0.01,0.23,1.32,-0.26,0.11,
1.284,1.00,0.01,0.23,1.40,-0.34,0.04,
1.286,1.00,0.01,0.23,1.49,-0.43,-0.03,
1.286,1.39,0.07,0.41,1.49,-0.43,-0.03,
1.287,1.39,0.07,0.41,1.57,-0.49,-0.10,
1.29,1.39,0.07,0.41,1.65,-0.45,-0.18,
1.29,2.40,0.61,0.26,1.65,-0.45,-0.18,
1.292,2.40,0.61,0.26,1.72,-0.31,-0.28,
1.295,2.40,0.61,0.26,1.77,-0.12,-0.38,
1.295,3.15,1.55,0.12,1.77,-0.12,-0.38,
1.297,3.15,1.55,0.12,1.82,0.07,-0.49,
1.302,2.95,1.02,0.18,1.82,0.07,-0.49,
1.302,2.95,1.02,0.18,1.86,0.20,-0.60,
1.302,2.95,1.02,0.18,1.90,0.25,-0.71,
1.307,2.85,0.73,0.54,1.90,0.25,-0.71,
1.307,2.85,0.73,0.54,1.92,0.23,-0.82,
1.307,2.85,0.73,0.54,1.94,0.15,-0.94,
1.31,2.85,0.73,0.54,1.95,0.03,-1.07,
1.311,3.12,0.55,0.78,1.95,0.03,-1.07,
1.312,3.12,0.55,0.78,1.94,-0.06,-1.22,
1.315,3.12,0.55,0.78,1.92,-0.12,-1.37,
1.315,2.77,0.33,0.68,1.92,-0.12,-1.37,
1.325,2.77,0.33,0.68,1.89,-0.20,-1.52,
1.325,2.27,0.18,0.21,1.89,-0.20,-1.52,
1.325,2.27,0.18,0.21,1.85,-0.32,-1.67,
1.325,2.27,0.18,0.21,1.80,-0.46,-1.81,
1.326,2.27,0.18,0.21,1.73,-0.61,-1.96,
1.326,2.05,0.16,0.17,1.73,-0.61,-1.96,
1.327,2.05,0.16,0.17,1.67,-0.79,-2.09,
1.33,2.05,0.16,0.17,1.60,-0.97,-2.21,
1.33,1.87,0.42,0.30,1.60,-0.97,-2.21,
1.334,1.87,0.42,0.30,1.53,-1.14,-2.33,
1.335,1.87,0.42,0.30,1.46,-1.29,-2.43,
1.336,1.57,0.55,0.12,1.46,-1.29,-2.43,
1.337,1.57,0.55,0.12,1.40,-1.42,-2.53,
1.34,1.57,0.55,0.12,1.33,-1.55,-2.61,
1.34,1.19,0.59,-0.23,1.33,-1.55,-2.61,
1.342,1.19,0.59,-0.23,1.26,-1.67,-2.69,
1.345,1.19,0.59,-0.23,1.20,-1.78,-2.76,
1.345,0.62,0.61,-0.81,1.20,-1.78,-2.76,
1.347,0.62,0.61,-0.81,1.13,-1.88,-2.81,
1.351,0.08,0.66,-1.48,1.13,-1.88,-2.81,
1.351,0.08,0.66,-1.48,1.06,-1.97,-2.85,
1.352,0.08,0.66,-1.48,0.96,-2.00,-2.88,
1.354,0.08,0.66,-1.48,0.64,-1.62,-2.78,
1.354,-3.64,1.41,-10.21,0.64,-1.62,-2.78,
1.357,-3.64,1.41,-10.21,0.34,-1.39,-2.65,
1.359,-3.64,1.41,-10.21,0.23,-1.56,-2.63,
1.359,-0.72,0.46,-1.96,0.23,-1.56,-2.63,
1.362,-0.72,0.46,-1.96,0.11,-1.67,-2.59,
1.364,-0.72,0.46,-1.96,-0.11,-1.63,-2.47,
1.364,-2.88,0.79,-6.36,-0.11,-1.63,-2.47,
1.367,-2.88,0.79,-6.36,-0.31,-1.64,-2.34,
1.373,-2.88,0.79,-6.36,-0.47,-1.70,-2.20,
1.373,-2.82,1.00,-4.99,-0.47,-1.70,-2.20,
1.373,-2.82,1.00,-4.99,-0.65,-1.74,-2.04,
1.374,-2.82,1.00,-4.99,-0.83,-1.77,-1.86,
1.374,-3.58,1.52,-5.26,-0.83,-1.77,-1.86,
1.377,-3.58,1.52,-5.26,-1.00,-1.80,-1.64,
1.379,-3.58,1.52,-5.26,-1.15,-1.80,-1.41,
1.379,-4.40,1.86,-4.89,-1.15,-1.80,-1.41,
1.381,-4.40,1.86,-4.89,-1.29,-1.75,-1.15,
1.385,-4.40,1.86,-4.89,-1.40,-1.69,-0.88,
1.385,-4.83,1.77,-4.76,-1.40,-1.69,-0.88,
1.387,-4.83,1.77,-4.76,-1.49,-1.59,-0.65,
1.39,-3.49,0.73,-4.27,-1.49,-1.59,-0.65,
1.39,-3.49,0.73,-4.27,-1.55,-1.47,-0.46,
1.391,-3.49,0.73,-4.27,-1.56,-1.33,-0.29,
1.394,-3.49,0.73,-4.27,-1.53,-1.19,-0.17,
1.394,-2.56,0.02,-3.22,-1.53,-1.19,-0.17,
1.396,-2.56,0.02,-3.22,-1.47,-1.07,-0.08,
1.399,-2.56,0.02,-3.22,-1.39,-0.99,-0.02,
1.399,-1.58,0.47,-2.34,-1.39,-0.99,-0.02,
1.402,-1.58,0.47,-2.34,-1.30,-0.95,0.03,
1.404,-1.58,0.47,-2.34,-1.21,-0.92,0.07,
1.404,-1.46,1.48,-1.64,-1.21,-0.92,0.07,
1.406,-1.46,1.48,-1.64,-1.12,-0.91,0.10,
1.411,-1.46,1.48,-1.64,-1.04,-0.89,0.12,
1.411,-1.29,1.96,-1.73,-1.04,-0.89,0.12,
1.411,-1.29,1.96,-1.73,-0.97,-0.88,0.13,
1.414,-1.29,1.96,-1.73,-0.92,-0.86,0.12,
1.414,-0.97,1.97,-2.29,-0.92,-0.86,0.12,
1.417,-0.97,1.97,-2.29,-0.89,-0.84,0.10,
1.419,-0.97,1.97,-2.29,-0.88,-0.82,0.06,
1.419,-0.77,2.06,-2.87,-0.88,-0.82,0.06,
1.421,-0.77,2.06,-2.87,-0.87,-0.80,0.01,
1.424,-0.77,2.06,-2.87,-0.88,-0.77,-0.04,
1.424,-0.72,2.23,-3.20,-0.88,-0.77,-0.04,
1.426,-0.72,2.23,-3.20,-0.89,-0.75,-0.10,
1.429,-0.72,2.23,-3.20,-0.90,-0.74,-0.14,
1.429,-1.03,2.23,-3.50,-0.90,-0.74,-0.14,
1.431,-1.03,2.23,-3.50,-0.92,-0.75,-0.19,
1.434,-1.04,2.30,-3.22,-0.92,-0.75,-0.19,
1.434,-1.04,2.30,-3.22,-0.94,-0.78,-0.22,
1.436,-1.04,2.30,-3.22,-0.96,-0.86,-0.25,
1.439,-1.04,2.30,-3.22,-0.96,-0.89,-0.29,
1.439,-0.73,2.29,-3.10,-0.96,-0.89,-0.29,
1.441,-0.73,2.29,-3.10,-0.96,-0.87,-0.33,
1.444,-0.73,2.29,-3.10,-0.94,-0.84,-0.37,
1.444,-0.50,2.58,-2.93,-0.94,-0.84,-0.37,
1.446,-0.50,2.58,-2.93,-0.91,-0.82,-0.42,
1.449,-0.50,2.58,-2.93,-0.88,-0.78,-0.49,
1.449,-0.21,2.85,-2.87,-0.88,-0.78,-0.49,
1.452,-0.21,2.85,-2.87,-0.85,-0.73,-0.56,
1.454,-0.21,2.85,-2.87,-0.82,-0.70,-0.64,
1.454,-0.39,3.42,-2.93,-0.82,-0.70,-0.64,
1.456,-0.39,3.42,-2.93,-0.81,-0.67,-0.73,
1.458,-0.39,3.42,-2.93,-0.82,-0.66,-0.82,
1.459,-0.53,4.12,-3.18,-0.82,-0.66,-0.82,
1.461,-0.53,4.12,-3.18,-0.84,-0.69,-0.93,
1.463,0.36,3.76,-3.09,-0.84,-0.69,-0.93,
1.464,0.36,3.76,-3.09,-0.89,-0.79,-1.07,
1.466,0.36,3.76,-3.09,-0.99,-0.97,-1.26,
1.469,0.36,3.76,-3.09,-1.10,-1.21,-1.46,
1.469,1.22,2.90,-2.90,-1.10,-1.21,-1.46,
1.471,1.22,2.90,-2.90,-1.23,-1.49,-1.66,
1.474,1.22,2.90,-2.90,-1.37,-1.82,-1.85,
1.474,1.78,2.25,-2.94,-1.37,-1.82,-1.85,
1.476,1.78,2.25,-2.94,-1.52,-2.15,-2.02,
1.479,2.18,1.08,-3.78,-1.52,-2.15,-2.02,
1.479,2.18,1.08,-3.78,-1.68,-2.50,-2.16,
1.481,2.18,1.08,-3.78,-1.85,-2.82,-2.24,
1.494,2.18,1.08,-3.78,-1.98,-3.09,-2.29,
1.495,2.71,0.40,-3.92,-1.98,-3.09,-2.29,
1.495,2.71,0.40,-3.92,-2.08,-3.31,-2.30,
1.495,2.71,0.40,-3.92,-2.16,-3.45,-2.27,
1.495,2.91,0.71,-4.48,-2.16,-3.45,-2.27,
1.496,2.91,0.71,-4.48,-2.23,-3.53,-2.19,
1.496,2.91,0.71,-4.48,-2.30,-3.59,-2.07,
1.496,1.96,1.27,-4.65,-2.30,-3.59,-2.07,
1.496,1.96,1.27,-4.65,-2.37,-3.66,-1.94,
1.499,1.96,1.27,-4.65,-2.42,-3.68,-1.79,
1.506,1.17,1.06,-4.40,-2.42,-3.68,-1.79,
1.507,1.17,1.06,-4.40,-2.41,-3.60,-1.64,
1.507,1.17,1.06,-4.40,-2.37,-3.46,-1.51,
1.507,-0.13,-0.44,-3.79,-2.37,-3.46,-1.51,
1.507,-0.13,-0.44,-3.79,-2.31,-3.31,-1.40,
1.509,-0.13,-0.44,-3.79,-2.27,-3.16,-1.32,
1.509,-1.22,-1.39,-3.11,-2.27,-3.16,-1.32,
1.511,-1.22,-1.39,-3.11,-2.26,-3.02,-1.28,
1.513,-1.22,-1.39,-3.11,-2.22,-2.85,-1.27,
1.514,-1.87,-2.14,-2.22,-2.22,-2.85,-1.27,
1.516,-1.87,-2.14,-2.22,-2.19,-2.64,-1.29,
1.519,-1.87,-2.14,-2.22,-2.15,-2.41,-1.33,
1.519,-2.76,-2.44,-1.63,-2.15,-2.41,-1.33,
1.521,-2.76,-2.44,-1.63,-2.12,-2.15,-1.39,
1.526,-2.76,-2.44,-1.63,-2.10,-1.88,-1.46,
1.526,-2.76,-2.44,-1.63,-2.07,-1.61,-1.53,
1.527,-4.57,-1.76,-1.36,-2.07,-1.61,-1.53,
1.528,-4.57,-1.76,-1.36,-2.03,-1.35,-1.59,
1.528,-5.71,-1.21,-0.92,-2.03,-1.35,-1.59,
1.53,-5.71,-1.21,-0.92,-1.99,-1.11,-1.65,
1.535,-5.71,-1.21,-0.92,-1.95,-0.90,-1.71,
1.536,-5.73,-0.85,-0.29,-1.95,-0.90,-1.71,
1.536,-5.73,-0.85,-0.29,-1.88,-0.70,-1.75,
1.538,-5.73,-0.85,-0.29,-1.80,-0.49,-1.77,
1.538,-5.46,-0.76,0.41,-1.80,-0.49,-1.77,
1.54,-5.46,-0.76,0.41,-1.70,-0.33,-1.77,
1.543,-5.46,-0.76,0.41,-1.60,-0.23,-1.73,
1.543,-4.71,-0.30,0.94,-1.60,-0.23,-1.73,
1.545,-4.71,-0.30,0.94,-1.49,-0.16,-1.68,
1.548,-4.71,-0.30,0.94,-1.38,-0.13,-1.61,
1.548,-3.64,-0.03,1.19,-1.38,-0.13,-1.61,
1.551,-3.64,-0.03,1.19,-1.26,-0.11,-1.53,
1.553,-3.64,-0.03,1.19,-1.15,-0.10,-1.43,
1.553,-2.61,0.16,1.15,-1.15,-0.10,-1.43,
1.555,-2.61,0.16,1.15,-1.04,-0.11,-1.33,
1.558,-2.61,0.16,1.15,-0.94,-0.11,-1.21,
1.558,-1.56,0.50,1.09,-0.94,-0.11,-1.21,
1.56,-1.56,0.50,1.09,-0.84,-0.13,-1.09,
1.563,-1.56,0.50,1.09,-0.72,-0.15,-0.95,
1.563,-0.65,0.39,1.28,-0.72,-0.15,-0.95,
1.565,-0.65,0.39,1.28,-0.62,-0.18,-0.82,
1.569,-0.65,0.39,1.28,-0.52,-0.19,-0.69,
1.57,0.67,-0.51,1.11,-0.52,-0.19,-0.69,
1.57,0.67,-0.51,1.11,-0.42,-0.17,-0.57,
1.573,0.67,-0.51,1.11,-0.31,-0.14,-0.46,
1.573,2.11,-1.98,1.17,-0.31,-0.14,-0.46,
1.576,2.11,-1.98,1.17,-0.20,-0.11,-0.36,
1.578,2.11,-1.98,1.17,-0.08,-0.05,-0.28,
1.578,3.57,-3.00,1.63,-0.08,-0.05,-0.28,
1.58,3.57,-3.00,1.63,0.05,0.05,-0.22,
1.584,3.57,-3.00,1.63,0.19,0.18,-0.18,
1.584,4.48,-3.02,1.67,0.19,0.18,-0.18,
1.588,4.48,-3.02,1.67,0.31,0.33,-0.14,
1.588,4.48,-3.02,1.67,0.44,0.49,-0.12,
1.588,4.41,-2.33,1.55,0.44,0.49,-0.12,
1.59,4.41,-2.33,1.55,0.57,0.62,-0.09,
1.593,4.08,-1.81,1.27,0.57,0.62,-0.09,
1.593,4.08,-1.81,1.27,0.67,0.75,-0.06,
1.595,4.08,-1.81,1.27,0.75,0.84,-0.05,
1.597,4.08,-1.81,1.27,0.81,0.92,-0.04,
1.598,3.53,-1.75,0.74,0.81,0.92,-0.04,
1.602,3.53,-1.75,0.74,0.84,0.96,-0.04,
1.604,3.53,-1.75,0.74,0.87,0.98,-0.04,
1.604,2.97,-1.59,0.53,0.87,0.98,-0.04,
1.605,2.97,-1.59,0.53,0.90,1.01,-0.05,
1.608,2.97,-1.59,0.53,0.93,1.02,-0.06,
1.608,2.54,-1.96,0.66,0.93,1.02,-0.06,
1.611,2.54,-1.96,0.66,0.96,1.03,-0.06,
1.613,2.54,-1.96,0.66,0.99,1.03,-0.05,
1.614,2.01,-2.25,0.90,0.99,1.03,-0.05,
1.616,2.01,-2.25,0.90,1.02,1.01,-0.03,
1.618,2.01,-2.25,0.90,1.05,0.97,-0.00,
1.619,1.46,-2.48,1.19,1.05,0.97,-0.00,
1.621,1.46,-2.48,1.19,1.08,0.91,0.04,
1.622,1.46,-2.48,1.19,1.09,0.85,0.09,
1.622,0.85,-2.54,1.16,1.09,0.85,0.09,
1.625,0.85,-2.54,1.16,1.10,0.78,0.15,
1.627,0.85,-2.54,1.16,1.11,0.69,0.22,
1.628,0.34,-2.61,1.31,1.11,0.69,0.22,
1.63,0.34,-2.61,1.31,1.12,0.59,0.29,
1.632,0.34,-2.61,1.31,1.13,0.48,0.38,
1.633,0.07,-2.78,1.73,1.13,0.48,0.38,
1.636,0.07,-2.78,1.73,1.14,0.36,0.47,
1.638,0.07,-2.78,1.73,1.16,0.25,0.56,
1.638,0.02,-2.87,2.01,1.16,0.25,0.56,
1.639,0.02,-2.87,2.01,1.19,0.14,0.65,
1.642,0.02,-2.87,2.01,1.22,0.03,0.74,
1.642,-0.12,-2.77,2.04,1.22,0.03,0.74,
1.645,-0.12,-2.77,2.04,1.24,-0.08,0.83,
1.647,-0.12,-2.77,2.04,1.27,-0.19,0.92,
1.672,-0.28,-2.63,1.90,1.27,-0.19,0.92,
1.672,-0.28,-2.63,1.90,1.29,-0.31,1.02,
1.672,-0.28,-2.63,1.90,1.31,-0.41,1.13,
1.672,-0.31,-2.38,1.85,1.31,-0.41,1.13,
1.672,-0.31,-2.38,1.85,1.33,-0.52,1.23,
1.673,-0.31,-2.38,1.85,1.40,-0.57,1.27,
1.673,0.07,-1.82,2.20,1.40,-0.57,1.27,
1.673,0.07,-1.82,2.20,1.47,-0.61,1.28,
1.673,0.07,-1.82,2.20,1.52,-0.66,1.28,
1.673,-0.05,-0.87,2.35,1.52,-0.66,1.28,
1.674,-0.05,-0.87,2.35,1.54,-0.71,1.30,
1.674,-0.05,-0.87,2.35,1.52,-0.76,1.33,
1.674,-0.51,-0.08,2.12,1.52,-0.76,1.33,
1.674,-0.51,-0.08,2.12,1.46,-0.82,1.37,
1.674,-0.51,-0.08,2.12,1.37,-0.92,1.40,
1.675,-0.85,0.19,2.11,1.37,-0.92,1.40,
1.675,-0.85,0.19,2.11,1.28,-1.05,1.41,
1.677,-0.85,0.19,2.11,1.20,-1.19,1.42,
1.678,-1.22,0.29,2.51,1.20,-1.19,1.42,
1.679,-1.22,0.29,2.51,1.14,-1.33,1.41,
1.681,-1.22,0.29,2.51,1.11,-1.45,1.38,
1.682,-1.56,0.52,2.75,1.11,-1.45,1.38,
1.684,-1.56,0.52,2.75,1.08,-1.54,1.35,
1.688,-2.05,0.93,2.59,1.08,-1.54,1.35,
1.692,-2.51,1.38,2.07,1.08,-1.54,1.35,
1.692,-2.51,1.38,2.07,1.05,-1.61,1.31,
1.692,-2.51,1.38,2.07,0.99,-1.67,1.28,
1.692,-2.51,1.38,2.07,0.90,-1.71,1.24,
1.694,-2.51,1.38,2.07,0.83,-1.69,1.20,
1.697,-2.51,1.38,2.07,0.77,-1.61,1.16,
1.697,-2.82,1.79,1.78,0.77,-1.61,1.16,
1.699,-2.82,1.79,1.78,0.73,-1.48,1.11,
1.703,-2.98,2.18,1.70,0.73,-1.48,1.11,
1.703,-2.98,2.18,1.70,0.70,-1.29,1.04,
1.704,-2.98,2.18,1.70,0.71,-1.05,0.97,
1.709,-2.98,2.18,1.70,0.73,-0.78,0.90,
1.709,-2.98,2.18,1.70,0.75,-0.51,0.81,
1.712,-2.98,2.18,1.70,0.76,-0.25,0.73,
1.714,-3.07,2.49,1.53,0.76,-0.25,0.73,
1.714,-2.73,2.55,1.12,0.76,-0.25,0.73,
1.715,-2.73,2.55,1.12,0.77,-0.02,0.64,
1.719,-2.12,2.23,0.68,0.77,-0.02,0.64,
1.719,-2.12,2.23,0.68,0.74,0.14,0.55,
1.722,-1.69,1.66,0.26,0.74,0.14,0.55,
1.723,-1.69,1.66,0.26,0.67,0.21,0.47,
1.723,-1.69,1.66,0.26,0.58,0.24,0.41,
1.725,-1.69,1.66,0.26,0.51,0.25,0.36,
1.726,-1.41,1.01,0.34,0.51,0.25,0.36,
1.727,-1.41,1.01,0.34,0.44,0.22,0.33,
1.729,-1.41,1.01,0.34,0.36,0.15,0.31,
1.731,-1.41,1.01,0.34,0.30,0.09,0.29,
1.731,-0.93,0.50,0.64,0.30,0.09,0.29,
1.736,-0.93,0.50,0.64,0.28,0.06,0.27,
1.736,-0.61,0.11,0.77,0.28,0.06,0.27,
1.736,-0.61,0.11,0.77,0.28,0.06,0.26,
1.74,-0.61,0.11,0.77,0.30,0.09,0.25,
1.743,-0.44,-0.07,0.68,0.30,0.09,0.25,
1.743,-0.44,-0.07,0.68,0.33,0.11,0.24,
1.745,-0.44,-0.07,0.68,0.36,0.11,0.23,
1.748,-0.17,-0.14,0.19,0.36,0.11,0.23,
1.748,-0.17,-0.14,0.19,0.37,0.09,0.23,
1.749,-0.17,-0.14,0.19,0.35,0.04,0.22,
1.755,0.19,0.08,0.03,0.35,0.04,0.22,
1.755,0.19,0.08,0.03,0.32,-0.02,0.21,
1.755,0.19,0.08,0.03,0.28,-0.08,0.20,
1.758,0.53,0.53,0.12,0.28,-0.08,0.20,
1.759,0.53,0.53,0.12,0.23,-0.17,0.19,
1.759,0.53,0.53,0.12,0.15,-0.25,0.18,
1.761,0.64,1.09,0.24,0.15,-0.25,0.18,
1.761,0.64,1.09,0.24,0.05,-0.35,0.16,
1.764,0.64,1.09,0.24,-0.06,-0.47,0.16,
1.768,0.35,2.03,0.35,-0.06,-0.47,0.16,
1.772,0.35,2.03,0.35,-0.20,-0.62,0.18,
1.772,0.35,2.03,0.35,-0.32,-0.77,0.21,
1.773,0.35,2.03,0.35,-0.38,-0.83,0.22,
1.773,0.26,3.14,0.76,-0.38,-0.83,0.22,
1.773,0.26,3.14,0.76,-0.37,-0.83,0.21,
1.776,-0.02,3.95,1.00,-0.37,-0.83,0.21,
1.777,-0.02,3.95,1.00,-0.32,-0.78,0.18,
1.778,-0.02,3.95,1.00,-0.25,-0.71,0.14,
1.781,-0.02,3.95,1.00,-0.19,-0.65,0.11,
1.781,-0.96,4.79,0.40,-0.19,-0.65,0.11,
1.789,-0.96,4.79,0.40,-0.16,-0.64,0.11,
1.789,-0.96,4.79,0.40,-0.16,-0.67,0.14,
1.79,-1.92,5.61,-0.26,-0.16,-0.67,0.14,
1.79,-1.92,5.61,-0.26,-0.16,-0.70,0.15,
1.791,-1.43,5.51,-0.27,-0.16,-0.70,0.15,
1.791,-1.43,5.51,-0.27,-0.16,-0.69,0.13,
1.793,-1.43,5.51,-0.27,-0.14,-0.63,0.11,
1.798,-1.09,5.54,0.31,-0.14,-0.63,0.11,
1.798,-1.09,5.54,0.31,-0.09,-0.52,0.07,
1.805,-0.49,5.20,0.95,-0.09,-0.52,0.07,
1.805,-0.49,5.20,0.95,-0.04,-0.40,0.04,
1.805,-0.49,5.20,0.95,0.02,-0.28,0.00,
1.805,-0.49,5.20,0.95,0.08,-0.18,-0.03,
1.806,-0.49,5.20,0.95,0.13,-0.10,-0.07,
1.807,0.27,4.47,1.50,0.13,-0.10,-0.07,
1.808,0.27,4.47,1.50,0.17,-0.04,-0.11,
1.811,1.03,3.52,1.93,0.17,-0.04,-0.11,
1.811,1.03,3.52,1.93,0.22,0.01,-0.14,
1.822,1.03,3.52,1.93,0.27,0.06,-0.18,
1.822,1.03,3.52,1.93,0.31,0.10,-0.22,
1.822,1.88,2.67,2.20,0.31,0.10,-0.22,
1.822,1.88,2.67,2.20,0.36,0.13,-0.27,
1.822,1.88,2.67,2.20,0.39,0.16,-0.31,
1.823,2.52,1.77,2.05,0.39,0.16,-0.31,
1.825,2.52,1.77,2.05,0.42,0.21,-0.34,
1.826,2.52,1.77,2.05,0.45,0.25,-0.38,
1.827,2.97,1.18,1.84,0.45,0.25,-0.38,
1.828,2.97,1.18,1.84,0.48,0.29,-0.42,
1.831,3.16,0.64,1.73,0.48,0.29,-0.42,
1.831,3.16,0.64,1.73,0.53,0.32,-0.47,
1.833,3.16,0.64,1.73,0.58,0.34,-0.53,
1.836,3.16,0.64,1.73,0.62,0.32,-0.58,
1.837,2.81,0.69,1.79,0.62,0.32,-0.58,
1.838,2.81,0.69,1.79,0.67,0.28,-0.62,
1.841,2.81,0.69,1.79,0.72,0.24,-0.66,
1.841,2.42,1.22,1.75,0.72,0.24,-0.66,
1.843,2.42,1.22,1.75,0.76,0.20,-0.71,
1.846,2.42,1.22,1.75,0.80,0.16,-0.76,
1.846,2.23,1.41,1.46,0.80,0.16,-0.76,
1.848,2.23,1.41,1.46,0.84,0.14,-0.81,
1.853,2.23,1.41,1.46,0.88,0.12,-0.88,
1.854,1.92,1.68,1.31,0.88,0.12,-0.88,
1.854,1.92,1.68,1.31,0.91,0.11,-0.95,
1.857,1.66,2.15,1.22,0.91,0.11,-0.95,
1.858,1.66,2.15,1.22,0.94,0.10,-1.03,
1.858,1.66,2.15,1.22,0.96,0.09,-1.12,
1.862,1.66,2.15,1.22,0.99,0.07,-1.21,
1.862,1.37,2.75,1.09,0.99,0.07,-1.21,
1.862,1.37,2.75,1.09,1.00,0.07,-1.30,
1.866,0.97,3.39,1.02,1.00,0.07,-1.30,
1.866,0.97,3.39,1.02,1.01,0.10,-1.39,
1.869,0.97,3.39,1.02,1.02,0.13,-1.49,
1.872,0.43,3.69,1.59,1.02,0.13,-1.49,
1.872,0.43,3.69,1.59,1.05,0.17,-1.58,
1.873,0.43,3.69,1.59,1.09,0.21,-1.68,
1.876,-0.26,3.56,1.84,1.09,0.21,-1.68,
1.876,-0.26,3.56,1.84,1.12,0.23,-1.77,
1.879,-0.26,3.56,1.84,1.16,0.25,-1.89,
1.88,-0.26,3.56,1.84,1.21,0.28,-2.01,
1.88,-0.74,3.44,2.08,1.21,0.28,-2.01,
1.882,-0.74,3.44,2.08,1.26,0.35,-2.10,
1.887,-0.74,3.44,2.08,1.29,0.46,-2.19,
1.887,-0.92,3.23,2.14,1.29,0.46,-2.19,
1.887,-0.92,3.23,2.14,1.34,0.50,-2.25,
1.89,-0.20,2.59,3.08,1.34,0.50,-2.25,
1.89,-0.20,2.59,3.08,1.40,0.50,-2.35,
1.892,-0.20,2.59,3.08,1.47,0.52,-2.49,
1.895,-0.20,2.59,3.08,1.52,0.58,-2.61,
1.895,0.22,1.45,2.02,1.52,0.58,-2.61,
1.898,0.22,1.45,2.02,1.55,0.65,-2.73,
1.901,0.22,1.45,2.02,1.57,0.72,-2.91,
1.903,0.68,0.46,1.49,1.57,0.72,-2.91,
1.903,0.68,0.46,1.49,1.60,0.80,-3.10,
1.905,0.68,0.46,1.49,1.61,0.94,-3.28,
1.905,0.60,-0.15,1.64,1.61,0.94,-3.28,
1.907,0.60,-0.15,1.64,1.61,1.10,-3.42,
1.91,-0.03,-1.19,2.00,1.61,1.10,-3.42,
1.91,-0.03,-1.19,2.00,1.63,1.20,-3.53,
1.913,-0.03,-1.19,2.00,1.62,1.35,-3.62,
1.916,1.86,-0.60,-0.33,1.62,1.35,-3.62,
1.917,1.86,-0.60,-0.33,1.49,1.67,-3.77,
1.917,1.86,-0.60,-0.33,1.40,2.12,-3.90,
1.921,1.86,-0.60,-0.33,1.30,2.60,-4.02,
1.921,2.91,-1.71,-1.18,1.30,2.60,-4.02,
1.93,2.21,-2.85,-1.71,1.30,2.60,-4.02,
1.931,1.75,-3.03,-1.32,1.30,2.60,-4.02,
1.931,1.75,-3.03,-1.32,1.22,3.10,-4.11,
1.931,1.75,-3.03,-1.32,1.11,3.51,-4.17,
1.932,1.75,-3.03,-1.32,1.01,3.79,-4.23,
1.932,1.75,-3.03,-1.32,0.91,3.99,-4.30,
1.932,1.75,-3.03,-1.32,0.82,4.19,-4.37,
1.937,1.67,-2.77,-1.18,0.82,4.19,-4.37,
1.937,1.67,-2.77,-1.18,0.79,4.43,-4.43,
1.938,1.67,-2.77,-1.18,0.81,4.66,-4.49,
1.94,1.76,-2.48,-0.81,0.81,4.66,-4.49,
1.94,1.76,-2.48,-0.81,0.85,4.89,-4.54,
1.942,1.76,-2.48,-0.81,0.93,5.13,-4.59,
1.945,2.17,-1.97,-0.93,0.93,5.13,-4.59,
1.945,2.17,-1.97,-0.93,1.01,5.37,-4.64,
1.947,2.17,-1.97,-0.93,1.10,5.59,-4.72,
1.95,2.17,-1.97,-0.93,1.21,5.77,-4.83,
1.95,2.22,-1.52,-0.41,1.21,5.77,-4.83,
1.954,2.22,-1.52,-0.41,1.32,5.91,-4.93,
1.955,1.89,-0.94,0.37,1.32,5.91,-4.93,
1.955,1.89,-0.94,0.37,1.45,6.00,-5.01,
1.957,1.89,-0.94,0.37,1.63,5.99,-5.05,
1.959,1.81,0.03,0.08,1.63,5.99,-5.05,
1.96,1.81,0.03,0.08,1.82,5.93,-5.05,
1.962,1.81,0.03,0.08,2.03,5.87,-5.03,
1.964,1.81,0.03,0.08,2.22,5.80,-4.99,
1.965,1.62,0.69,-0.22,2.22,5.80,-4.99,
1.968,1.62,0.69,-0.22,2.42,5.69,-4.93,
1.97,1.53,1.07,-0.64,2.42,5.69,-4.93,
1.97,1.53,1.07,-0.64,2.59,5.54,-4.88,
1.972,1.53,1.07,-0.64,2.73,5.37,-4.84,
1.974,1.85,1.39,-1.86,2.73,5.37,-4.84,
1.975,1.85,1.39,-1.86,2.84,5.21,-4.81,
1.976,1.85,1.39,-1.86,2.91,5.03,-4.79,
1.988,1.52,1.82,-2.72,2.91,5.03,-4.79,
1.988,1.52,1.82,-2.72,2.94,4.83,-4.77,
1.988,1.52,1.82,-2.72,2.97,4.62,-4.74,
1.988,0.58,2.53,-3.04,2.97,4.62,-4.74,
1.988,0.58,2.53,-3.04,2.99,4.42,-4.67,
1.989,0.58,2.53,-3.04,3.00,4.25,-4.57,
1.992,0.58,2.53,-3.04,2.98,4.06,-4.42,
1.993,-0.32,2.90,-3.83,2.98,4.06,-4.42,
1.993,-0.32,2.90,-3.83,2.94,3.83,-4.27,
1.995,-0.32,2.90,-3.83,2.83,3.55,-4.12,
1.996,-0.78,2.62,-4.94,2.83,3.55,-4.12,
1.996,-0.78,2.62,-4.94,2.60,3.15,-3.99,
1.999,-1.89,1.57,-4.19,2.60,3.15,-3.99,
1.999,-1.89,1.57,-4.19,2.34,2.55,-3.84,
2.002,-1.89,1.57,-4.19,2.17,1.88,-3.71,
2.005,-1.89,1.57,-4.19,1.99,1.30,-3.58,
2.005,-2.42,0.98,-2.77,1.99,1.30,-3.58,
2.007,-2.42,0.98,-2.77,1.80,0.94,-3.46,
2.009,-2.70,0.15,-4.46,1.80,0.94,-3.46,
2.009,-2.70,0.15,-4.46,1.63,0.77,-3.35,
2.011,-2.70,0.15,-4.46,1.48,0.70,-3.23,
2.014,-2.76,-1.19,-4.29,1.48,0.70,-3.23,
2.014,-2.76,-1.19,-4.29,1.35,0.64,-3.11,
2.016,-2.76,-1.19,-4.29,1.23,0.56,-2.98,
2.019,-2.84,-2.53,-3.21,1.23,0.56,-2.98,
2.02,-2.84,-2.53,-3.21,1.13,0.44,-2.84,
2.021,-2.84,-2.53,-3.21,1.04,0.29,-2.68,
2.024,-3.28,-3.94,-2.83,1.04,0.29,-2.68,
2.024,-3.28,-3.94,-2.83,0.95,0.13,-2.48,
2.026,-3.28,-3.94,-2.83,0.87,-0.01,-2.28,
2.028,-3.28,-3.94,-2.83,0.79,-0.14,-2.06,
2.029,-3.05,-5.29,-2.78,0.79,-0.14,-2.06,
2.031,-3.05,-5.29,-2.78,0.72,-0.26,-1.85,
2.034,-2.32,-5.91,-2.44,0.72,-0.26,-1.85,
2.036,-2.32,-5.91,-2.44,0.65,-0.38,-1.63,
2.036,-2.32,-5.91,-2.44,0.60,-0.50,-1.42,
2.038,-2.32,-5.91,-2.44,0.55,-0.63,-1.20,
2.039,-1.76,-5.56,-1.73,0.55,-0.63,-1.20,
2.041,-1.76,-5.56,-1.73,0.50,-0.74,-0.97,
2.044,-1.76,-5.56,-1.73,0.47,-0.81,-0.75,
2.044,-0.71,-4.50,-1.02,0.47,-0.81,-0.75,
2.046,-0.71,-4.50,-1.02,0.45,-0.83,-0.54,
2.049,-0.71,-4.50,-1.02,0.43,-0.78,-0.33,
2.049,-0.21,-3.10,-1.04,0.43,-0.78,-0.33,
2.051,-0.21,-3.10,-1.04,0.40,-0.68,-0.14,
2.054,-0.21,-3.10,-1.04,0.37,-0.55,0.04,
2.054,-0.05,-1.45,-1.31,0.37,-0.55,0.04,
2.056,-0.05,-1.45,-1.31,0.32,-0.41,0.20,
2.059,-0.05,-1.45,-1.31,0.27,-0.29,0.34,
2.059,-0.16,-0.63,-1.51,0.27,-0.29,0.34,
2.061,-0.16,-0.63,-1.51,0.21,-0.22,0.45,
2.064,-0.16,-0.63,-1.51,0.14,-0.18,0.55,
2.064,-0.25,-0.18,-1.30,0.14,-0.18,0.55,
2.066,-0.25,-0.18,-1.30,0.08,-0.14,0.65,
2.069,-0.25,-0.18,-1.30,0.01,-0.10,0.76,
2.073,-0.65,0.42,-1.47,0.01,-0.10,0.76,
2.073,-0.65,0.42,-1.47,-0.05,-0.06,0.87,
2.074,-0.65,0.42,-1.47,-0.13,-0.02,0.99,
2.075,-1.06,0.78,-1.61,-0.13,-0.02,0.99,
2.076,-1.06,0.78,-1.61,-0.19,0.02,1.11,
2.082,-1.20,0.77,-1.55,-0.19,0.02,1.11,
2.082,-1.20,0.77,-1.55,-0.26,0.04,1.24,
2.083,-1.20,0.77,-1.55,-0.33,0.05,1.36,
2.087,-1.20,0.77,-1.55,-0.40,0.04,1.47,
2.087,-1.16,0.35,-1.42,-0.40,0.04,1.47,
2.087,-1.16,0.35,-1.42,-0.47,0.02,1.57,
2.089,-1.16,0.35,-1.42,-0.54,-0.01,1.68,
2.09,-1.39,-0.05,-1.29,-0.54,-0.01,1.68,
2.092,-1.39,-0.05,-1.29,-0.61,-0.05,1.78,
2.093,-1.71,-0.17,-1.09,-0.61,-0.05,1.78,
2.093,-1.71,-0.17,-1.09,-0.67,-0.09,1.89,
2.096,-1.71,-0.17,-1.09,-0.72,-0.12,2.00,
2.098,-2.01,-0.13,-0.73,-0.72,-0.12,2.00,
2.098,-2.01,-0.13,-0.73,-0.76,-0.15,2.11,
2.102,-2.01,-0.13,-0.73,-0.78,-0.18,2.23,
2.103,-2.01,-0.13,-0.73,-0.79,-0.22,2.36,
2.103,-1.86,-0.29,-0.18,-0.79,-0.22,2.36,
2.105,-1.86,-0.29,-0.18,-0.77,-0.26,2.49,
2.108,-1.86,-0.29,-0.18,-0.74,-0.30,2.63,
2.108,-1.50,-0.51,0.59,-0.74,-0.30,2.63,
2.11,-1.50,-0.51,0.59,-0.69,-0.35,2.77,
2.113,-1.50,-0.51,0.59,-0.61,-0.42,2.93,
2.113,-1.26,-0.80,1.33,-0.61,-0.42,2.93,
2.115,-1.26,-0.80,1.33,-0.52,-0.51,3.08,
2.118,-1.26,-0.80,1.33,-0.41,-0.63,3.24,
2.118,-1.06,-1.21,2.48,-0.41,-0.63,3.24,
2.12,-1.06,-1.21,2.48,-0.28,-0.77,3.39,
2.123,-1.06,-1.21,2.48,-0.13,-0.90,3.55,
2.123,-0.99,-1.40,3.54,-0.13,-0.90,3.55,
2.125,-0.99,-1.40,3.54,0.05,-1.03,3.71,
2.128,-0.94,-1.53,4.42,0.05,-1.03,3.71,
2.128,-0.94,-1.53,4.42,0.24,-1.17,3.88,
2.13,-0.94,-1.53,4.42,0.45,-1.33,4.04,
2.133,-0.94,-1.53,4.42,0.68,-1.49,4.19,
2.133,-0.75,-1.68,5.27,0.68,-1.49,4.19,
2.136,-0.75,-1.68,5.27,0.91,-1.65,4.35,
2.138,-0.88,-1.72,5.64,0.91,-1.65,4.35,
2.138,-0.88,-1.72,5.64,1.15,-1.81,4.52,
2.14,-0.88,-1.72,5.64,1.39,-1.97,4.68,
2.143,-0.88,-1.72,5.64,1.63,-2.15,4.85,
2.155,-0.92,-1.54,5.72,1.63,-2.15,4.85,
2.155,-0.92,-1.54,5.72,1.86,-2.33,5.02,
2.156,-0.92,-1.54,5.72,2.08,-2.52,5.18,
2.156,-0.68,-1.36,5.54,2.08,-2.52,5.18,
2.156,-0.68,-1.36,5.54,2.29,-2.70,5.33,
2.156,-0.68,-1.36,5.54,2.48,-2.89,5.48,
2.156,-0.28,-1.26,5.25,2.48,-2.89,5.48,
2.157,-0.28,-1.26,5.25,2.65,-3.07,5.61,
2.16,-0.05,-1.14,4.94,2.65,-3.07,5.61,
2.162,-0.05,-1.14,4.94,2.81,-3.24,5.75,
2.163,-0.05,-1.14,4.94,2.95,-3.41,5.88,
2.163,-0.05,-1.14,4.94,3.07,-3.59,6.00,
2.164,0.17,-1.27,4.81,3.07,-3.59,6.00,
2.166,0.17,-1.27,4.81,3.14,-3.81,6.09,
2.169,0.17,-1.27,4.81,3.14,-4.09,6.15,
2.173,0.30,-2.09,3.65,3.14,-4.09,6.15,
2.174,0.30,-2.09,3.65,3.05,-4.38,6.19,
2.174,0.30,-2.09,3.65,2.91,-4.55,6.22,
2.174,-0.44,-3.32,2.13,2.91,-4.55,6.22,
2.177,-0.44,-3.32,2.13,2.75,-4.60,6.23,
2.179,-0.52,-6.35,-6.26,2.75,-4.60,6.23,
2.18,-0.52,-6.35,-6.26,2.48,-4.45,6.20,
2.181,-0.52,-6.35,-6.26,1.89,-3.38,5.98,
2.184,-0.52,-6.35,-6.26,1.65,-2.73,5.31,
2.184,5.07,-12.27,3.61,1.65,-2.73,5.31,
2.187,5.07,-12.27,3.61,1.43,-2.81,4.40,
2.188,5.07,-12.27,3.61,0.97,-2.47,3.48,
2.188,2.60,-15.85,1.18,0.97,-2.47,3.48,
2.191,2.60,-15.85,1.18,0.71,-1.96,2.52,
2.194,2.60,-15.85,1.18,0.44,-1.64,1.63,
2.194,-0.59,-14.32,4.91,0.44,-1.64,1.63,
2.196,-0.59,-14.32,4.91,0.18,-1.22,0.87,
2.199,-3.69,-9.13,3.53,0.18,-1.22,0.87,
2.199,-3.69,-9.13,3.53,-0.05,-0.66,0.25,
2.2,-3.69,-9.13,3.53,-0.26,-0.14,-0.20,
2.204,-5.19,-2.83,1.51,-0.26,-0.14,-0.20,
2.204,-5.19,-2.83,1.51,-0.46,0.33,-0.46,
2.206,-5.19,-2.83,1.51,-0.63,0.77,-0.58,
2.207,-5.19,-2.83,1.51,-0.80,1.16,-0.58,
2.208,-5.30,1.40,-0.90,-0.80,1.16,-0.58,
2.209,-5.30,1.40,-0.90,-0.96,1.46,-0.48,
2.212,-5.30,1.40,-0.90,-1.12,1.63,-0.35,
2.212,-3.54,2.74,-2.04,-1.12,1.63,-0.35,
2.215,-3.54,2.74,-2.04,-1.30,1.67,-0.21,
2.219,-3.54,2.74,-2.04,-1.46,1.66,-0.09,
2.22,0.30,2.66,-3.12,-1.46,1.66,-0.09,
2.22,0.30,2.66,-3.12,-1.63,1.63,-0.01,
2.222,0.30,2.66,-3.12,-1.80,1.60,0.05,
2.222,3.08,2.13,-3.79,-1.80,1.60,0.05,
2.224,3.08,2.13,-3.79,-1.94,1.58,0.07,
2.227,3.08,2.13,-3.79,-2.04,1.56,0.09,
2.227,3.84,1.29,-3.23,-2.04,1.56,0.09,
2.229,3.84,1.29,-3.23,-2.09,1.57,0.09,
2.232,3.84,1.29,-3.23,-2.09,1.57,0.10,
2.232,3.43,0.17,-1.72,-2.09,1.57,0.10,
2.236,3.43,0.17,-1.72,-2.03,1.55,0.13,
2.237,2.66,-0.53,-0.67,-2.03,1.55,0.13,
2.238,2.66,-0.53,-0.67,-1.95,1.52,0.16,
2.239,2.66,-0.53,-0.67,-1.86,1.47,0.22,
2.242,1.97,-0.78,-0.01,-1.86,1.47,0.22,
2.242,1.97,-0.78,-0.01,-1.74,1.39,0.28,
2.244,1.97,-0.78,-0.01,-1.61,1.28,0.36,
2.247,1.97,-0.78,-0.01,-1.48,1.13,0.44,
2.247,1.54,-0.86,0.41,-1.48,1.13,0.44,
2.249,1.54,-0.86,0.41,-1.34,0.95,0.52,
2.253,1.54,-0.86,0.41,-1.19,0.76,0.60,
2.254,1.37,-1.01,0.78,-1.19,0.76,0.60,
2.255,1.37,-1.01,0.78,-1.04,0.58,0.68,
2.257,1.37,-1.01,0.78,-0.88,0.39,0.77,
2.257,1.17,-0.96,0.79,-0.88,0.39,0.77,
2.259,1.17,-0.96,0.79,-0.72,0.22,0.85,
2.262,1.17,-0.96,0.79,-0.55,0.06,0.93,
2.262,1.10,-0.75,0.66,-0.55,0.06,0.93,
2.264,1.10,-0.75,0.66,-0.40,-0.07,1.01,
2.267,1.10,-0.75,0.66,-0.24,-0.17,1.08,
2.267,1.07,-0.51,0.58,-0.24,-0.17,1.08,
2.275,1.07,-0.51,0.58,-0.08,-0.25,1.14,
2.276,1.07,-0.51,0.58,0.09,-0.27,1.08,
2.276,1.34,-1.35,0.57,0.09,-0.27,1.08,
2.276,1.34,-1.35,0.57,0.24,-0.32,0.95,
2.279,1.34,-1.35,0.57,0.36,-0.38,0.80,
2.279,0.89,-1.68,0.57,0.36,-0.38,0.80,
2.28,0.89,-1.68,0.57,0.47,-0.40,0.67,
2.282,-0.03,-1.41,0.80,0.47,-0.40,0.67,
2.282,-0.03,-1.41,0.80,0.58,-0.38,0.54,
2.285,-0.03,-1.41,0.80,0.68,-0.34,0.43,
2.287,-0.03,-1.41,0.80,0.78,-0.28,0.33,
2.287,-0.47,-0.65,0.71,0.78,-0.28,0.33,
2.289,-0.47,-0.65,0.71,0.85,-0.21,0.24,
2.292,-0.47,-0.65,0.71,0.90,-0.15,0.18,
2.292,-0.83,0.25,0.33,0.90,-0.15,0.18,
2.294,-0.83,0.25,0.33,0.93,-0.10,0.13,
2.296,-0.83,0.25,0.33,0.94,-0.06,0.09,
2.297,-0.96,0.91,-0.08,0.94,-0.06,0.09,
2.299,-0.96,0.91,-0.08,0.92,-0.01,0.07,
2.301,-0.96,0.91,-0.08,0.89,0.03,0.06,
2.302,-1.12,1.52,-0.62,0.89,0.03,0.06,
2.304,-1.12,1.52,-0.62,0.84,0.08,0.06,
2.307,-1.12,1.52,-0.62,0.77,0.12,0.06,
2.307,-1.04,2.08,-1.00,0.77,0.12,0.06,
2.321,-1.04,2.08,-1.00,0.69,0.16,0.07,
2.321,-1.04,2.08,-1.00,0.61,0.21,0.07,
2.321,-0.39,2.63,-1.10,0.61,0.21,0.07,
2.321,-0.39,2.63,-1.10,0.52,0.25,0.06,
2.322,-0.39,2.63,-1.10,0.44,0.29,0.06,
2.322,0.10,2.93,-0.99,0.44,0.29,0.06,
2.322,0.10,2.93,-0.99,0.35,0.34,0.05,
2.322,0.10,2.93,-0.99,0.28,0.39,0.05,
2.322,0.55,3.00,-0.74,0.28,0.39,0.05,
2.323,0.55,3.00,-0.74,0.21,0.43,0.04,
2.326,0.55,3.00,-0.74,0.15,0.49,0.03,
2.327,1.16,2.95,-0.55,0.15,0.49,0.03,
2.329,1.16,2.95,-0.55,0.10,0.53,0.02,
2.331,1.16,2.95,-0.55,0.07,0.57,0.02,
2.331,1.52,2.87,0.11,0.07,0.57,0.02,
2.333,1.52,2.87,0.11,0.05,0.60,0.01,
2.337,1.52,2.87,0.11,0.04,0.63,-0.00,
2.338,1.85,2.80,0.47,0.04,0.63,-0.00,
2.338,1.85,2.80,0.47,0.04,0.65,-0.00,
2.341,1.85,2.80,0.47,0.05,0.66,-0.01,
2.341,2.05,2.67,0.58,0.05,0.66,-0.01,
2.343,2.05,2.67,0.58,0.05,0.66,-0.01,
2.346,2.05,2.67,0.58,0.06,0.65,-0.01,
2.346,2.17,2.51,0.51,0.06,0.65,-0.01,
2.348,2.17,2.51,0.51,0.06,0.63,-0.01,
2.351,2.17,2.51,0.51,0.06,0.62,-0.01,
2.351,2.28,2.42,0.33,0.06,0.62,-0.01,
2.353,2.28,2.42,0.33,0.06,0.60,-0.02,
2.356,2.28,2.42,0.33,0.06,0.58,-0.02,
2.356,2.37,2.37,0.13,0.06,0.58,-0.02,
2.358,2.37,2.37,0.13,0.06,0.55,-0.02,
2.361,2.37,2.37,0.13,0.05,0.53,-0.02,
2.361,2.43,2.29,0.04,0.05,0.53,-0.02,
2.363,2.43,2.29,0.04,0.05,0.51,-0.02,
2.366,2.43,2.29,0.04,0.06,0.51,-0.03,
2.366,2.46,2.27,-0.02,0.06,0.51,-0.03,
2.369,2.46,2.27,-0.02,0.06,0.52,-0.02,
2.371,2.46,2.27,-0.02,0.07,0.53,-0.02,
2.371,2.39,2.25,0.03,0.07,0.53,-0.02,
2.373,2.39,2.25,0.03,0.08,0.54,-0.02,
2.376,2.30,2.25,0.06,0.08,0.54,-0.02,
2.377,2.30,2.25,0.06,0.09,0.55,-0.01,
2.378,2.30,2.25,0.06,0.10,0.54,-0.01,
2.381,2.30,2.25,0.06,0.11,0.54,-0.01,
2.381,2.29,2.19,0.03,0.11,0.54,-0.01,
2.383,2.29,2.19,0.03,0.11,0.53,-0.00,
2.387,2.25,2.18,-0.04,0.11,0.53,-0.00,
2.387,2.25,2.18,-0.04,0.12,0.51,0.00,
2.391,2.16,2.15,-0.12,0.12,0.51,0.00,
2.391,2.16,2.15,-0.12,0.12,0.50,0.00,
2.391,2.16,2.15,-0.12,0.12,0.48,0.01,
2.393,2.16,2.15,-0.12,0.12,0.47,0.02,
2.396,2.16,2.15,-0.12,0.12,0.46,0.02,
2.396,2.15,2.10,-0.26,0.12,0.46,0.02,
2.4,2.15,2.10,-0.26,0.13,0.46,0.02,
2.402,2.15,2.10,-0.26,0.13,0.46,0.03,
2.402,2.03,2.00,-0.46,0.13,0.46,0.03,
2.403,2.03,2.00,-0.46,0.14,0.48,0.03,
2.406,1.84,1.93,-0.59,0.14,0.48,0.03,
2.406,1.84,1.93,-0.59,0.14,0.49,0.03,
2.408,1.84,1.93,-0.59,0.14,0.50,0.04,
2.41,1.84,1.93,-0.59,0.15,0.50,0.05,
2.411,1.61,1.81,-0.71,0.15,0.50,0.05,
2.413,1.61,1.81,-0.71,0.15,0.49,0.06,
2.415,1.61,1.81,-0.71,0.16,0.48,0.07,
2.415,1.39,1.64,-0.71,0.16,0.48,0.07,
2.42,1.39,1.64,-0.71,0.17,0.47,0.08,
2.42,1.39,1.64,-0.71,0.18,0.45,0.09,
2.421,1.30,1.58,-0.57,0.18,0.45,0.09,
2.423,1.30,1.58,-0.57,0.20,0.44,0.09,
2.425,1.30,1.58,-0.57,0.21,0.44,0.08,
2.426,1.35,1.59,-0.60,0.21,0.44,0.08,
2.428,1.35,1.59,-0.60,0.23,0.45,0.08,
2.43,1.35,1.59,-0.60,0.25,0.46,0.07,
2.43,1.13,1.41,-0.71,0.25,0.46,0.07,
2.433,1.13,1.41,-0.71,0.25,0.47,0.08,
2.436,1.13,1.41,-0.71,0.26,0.47,0.08,
2.437,0.93,1.14,-0.84,0.26,0.47,0.08,
2.438,0.93,1.14,-0.84,0.27,0.47,0.07,
2.44,0.93,1.14,-0.84,0.27,0.47,0.07,
2.44,0.91,0.89,-0.87,0.27,0.47,0.07,
2.443,0.91,0.89,-0.87,0.29,0.49,0.07,
2.446,0.72,0.68,-0.88,0.29,0.49,0.07,
2.446,0.72,0.68,-0.88,0.30,0.50,0.06,
2.448,0.72,0.68,-0.88,0.31,0.52,0.06,
2.45,0.52,0.52,-0.97,0.31,0.52,0.06,
2.45,0.52,0.52,-0.97,0.32,0.54,0.06,
2.454,0.52,0.52,-0.97,0.32,0.56,0.06,
2.456,0.52,0.52,-0.97,0.33,0.58,0.07,
2.456,0.37,0.38,-1.07,0.33,0.58,0.07,
2.458,0.37,0.38,-1.07,0.33,0.60,0.07,
2.46,0.37,0.38,-1.07,0.33,0.63,0.08,
2.461,0.35,0.21,-1.15,0.33,0.63,0.08,
2.463,0.35,0.21,-1.15,0.33,0.66,0.08,
2.472,0.38,-0.00,-1.31,0.33,0.66,0.08,
2.472,0.38,-0.00,-1.31,0.33,0.69,0.08,
2.472,0.41,-0.19,-1.46,0.33,0.69,0.08,
2.472,0.41,-0.19,-1.46,0.33,0.73,0.08,
2.472,0.41,-0.19,-1.46,0.32,0.77,0.09,
2.474,0.41,-0.19,-1.46,0.31,0.81,0.09,
2.487,0.42,-0.34,-1.60,0.31,0.81,0.09,
2.487,0.42,-0.34,-1.60,0.30,0.85,0.10,
2.487,0.42,-0.34,-1.60,0.28,0.89,0.12,
2.488,0.42,-0.34,-1.60,0.27,0.92,0.13,
2.488,0.47,-0.52,-1.80,0.27,0.92,0.13,
2.488,0.47,-0.52,-1.80,0.24,0.96,0.15,
2.489,0.52,-0.65,-1.96,0.24,0.96,0.15,
2.489,0.52,-0.65,-1.96,0.21,0.99,0.17,
2.489,0.52,-0.65,-1.96,0.18,1.04,0.20,
2.49,0.48,-0.64,-2.15,0.18,1.04,0.20,
2.49,0.48,-0.64,-2.15,0.16,1.07,0.23,
2.492,0.48,-0.64,-2.15,0.14,1.13,0.27,
2.495,0.39,-0.70,-2.23,0.14,1.13,0.27,
2.495,0.39,-0.70,-2.23,0.12,1.18,0.30,
2.497,0.39,-0.70,-2.23,0.10,1.23,0.34,
2.5,0.38,-0.75,-2.61,0.10,1.23,0.34,
2.5,0.38,-0.75,-2.61,0.07,1.27,0.37,
2.502,0.38,-0.75,-2.61,0.04,1.31,0.40,
2.506,0.33,-0.76,-2.82,0.04,1.31,0.40,
2.506,0.33,-0.76,-2.82,0.01,1.34,0.42,
2.507,0.33,-0.76,-2.82,-0.01,1.37,0.45,
2.51,0.33,-0.76,-2.82,-0.03,1.39,0.47,
2.51,0.21,-0.77,-2.89,-0.03,1.39,0.47,
2.512,0.21,-0.77,-2.89,-0.06,1.40,0.48,
2.514,0.21,-0.77,-2.89,-0.08,1.40,0.49,
2.514,0.07,-0.87,-2.90,-0.08,1.40,0.49,
2.517,0.07,-0.87,-2.90,-0.11,1.38,0.50,
2.52,-0.04,-1.09,-2.84,-0.11,1.38,0.50,
2.52,-0.04,-1.09,-2.84,-0.13,1.34,0.49,
2.522,-0.04,-1.09,-2.84,-0.16,1.30,0.49,
2.524,-0.04,-1.09,-2.84,-0.18,1.27,0.49,
2.524,-0.41,-1.17,-2.76,-0.18,1.27,0.49,
2.527,-0.41,-1.17,-2.76,-0.19,1.25,0.48,
2.529,-0.41,-1.17,-2.76,-0.20,1.22,0.48,
2.529,-0.54,-1.24,-2.61,-0.20,1.22,0.48,
2.532,-0.54,-1.24,-2.61,-0.21,1.19,0.48,
2.535,-0.54,-1.24,-2.61,-0.21,1.17,0.48,
2.535,-0.64,-1.22,-2.45,-0.21,1.17,0.48,
2.538,-0.64,-1.22,-2.45,-0.21,1.15,0.47,
2.54,-0.77,-1.25,-2.15,-0.21,1.15,0.47,
2.541,-0.77,-1.25,-2.15,-0.20,1.12,0.47,
2.543,-0.77,-1.25,-2.15,-0.19,1.08,0.46,
2.545,-0.77,-1.25,-2.15,-0.18,1.04,0.45,
2.546,-0.82,-1.31,-1.77,-0.18,1.04,0.45,
2.548,-0.82,-1.31,-1.77,-0.17,0.97,0.44,
2.549,-0.82,-1.31,-1.77,-0.16,0.89,0.42,
2.549,-0.72,-1.47,-0.96,-0.16,0.89,0.42,
2.553,-0.72,-1.47,-0.96,-0.14,0.78,0.40,
2.554,-0.72,-1.47,-0.96,-0.12,0.65,0.38,
2.555,-0.54,-1.91,-0.10,-0.12,0.65,0.38,
2.557,-0.54,-1.91,-0.10,-0.10,0.51,0.35,
2.559,-0.54,-1.91,-0.10,-0.08,0.37,0.33,
2.56,-0.26,-2.15,0.55,-0.08,0.37,0.33,
2.561,-0.26,-2.15,0.55,-0.06,0.26,0.31,
2.564,-0.26,-2.15,0.55,-0.04,0.16,0.29,
2.564,-0.03,-2.08,0.63,-0.04,0.16,0.29,
2.567,-0.03,-2.08,0.63,-0.02,0.09,0.27,
2.57,-0.03,-2.08,0.63,-0.01,0.05,0.26,
2.574,0.22,-1.89,0.32,-0.01,0.05,0.26,
2.574,0.22,-1.89,0.32,0.00,0.04,0.25,
2.574,0.22,-1.89,0.32,0.00,0.04,0.23,
2.575,0.50,-1.72,-0.34,0.00,0.04,0.23,
2.576,0.50,-1.72,-0.34,0.00,0.05,0.22,
2.579,0.50,-1.72,-0.34,-0.01,0.08,0.20,
2.58,0.75,-1.83,-1.32,-0.01,0.08,0.20,
2.581,0.75,-1.83,-1.32,-0.02,0.11,0.18,
2.584,0.75,-1.83,-1.32,-0.03,0.16,0.15,
2.584,1.01,-2.22,-2.40,-0.03,0.16,0.15,
2.587,1.01,-2.22,-2.40,-0.04,0.21,0.12,
2.589,1.01,-2.22,-2.40,-0.05,0.27,0.08,
2.589,1.15,-2.71,-3.47,-0.05,0.27,0.08,
2.591,1.15,-2.71,-3.47,-0.05,0.34,0.03,
2.594,1.15,-2.71,-3.47,-0.05,0.40,-0.01,
2.594,1.10,-3.15,-4.35,-0.05,0.40,-0.01,
2.596,1.10,-3.15,-4.35,-0.05,0.45,-0.05,
2.599,1.10,-3.15,-4.35,-0.05,0.49,-0.10,
2.599,1.01,-3.46,-5.07,-0.05,0.49,-0.10,
2.603,1.01,-3.46,-5.07,-0.04,0.53,-0.14,
2.604,1.01,-3.46,-5.07,-0.03,0.58,-0.17,
2.605,0.89,-3.47,-5.62,-0.03,0.58,-0.17,
2.607,0.89,-3.47,-5.62,-0.01,0.60,-0.20,
2.609,0.89,-3.47,-5.62,-0.00,0.58,-0.23,
2.609,0.95,-3.72,-5.55,-0.00,0.58,-0.23,
2.611,0.95,-3.72,-5.55,-0.00,0.53,-0.26,
2.614,0.95,-3.72,-5.55,-0.00,0.45,-0.29,
2.614,0.77,-3.94,-4.86,-0.00,0.45,-0.29,
2.616,0.77,-3.94,-4.86,-0.01,0.33,-0.31,
2.619,0.46,-4.12,-3.59,-0.01,0.33,-0.31,
2.621,0.46,-4.12,-3.59,-0.02,0.20,-0.32,
2.622,0.46,-4.12,-3.59,-0.03,0.07,-0.33,
2.624,0.46,-4.12,-3.59,-0.04,-0.06,-0.34,
2.624,0.25,-4.26,-1.91,-0.04,-0.06,-0.34,
2.626,0.25,-4.26,-1.91,-0.05,-0.19,-0.34,
2.628,0.25,-4.26,-1.91,-0.05,-0.29,-0.34,
2.629,0.32,-4.31,-0.23,-0.05,-0.29,-0.34,
2.631,0.32,-4.31,-0.23,-0.05,-0.39,-0.34,
2.633,0.32,-4.31,-0.23,-0.05,-0.45,-0.34,
2.634,0.10,-4.23,0.81,-0.05,-0.45,-0.34,
2.637,0.10,-4.23,0.81,-0.05,-0.50,-0.33,
2.639,-0.15,-4.21,1.58,-0.05,-0.50,-0.33,
2.656,-0.15,-4.21,1.58,-0.06,-0.54,-0.33,
2.656,-0.15,-4.21,1.58,-0.08,-0.61,-0.33,
2.656,-0.15,-4.21,1.58,-0.09,-0.68,-0.32,
2.657,-0.34,-4.26,2.36,-0.09,-0.68,-0.32,
2.657,-0.34,-4.26,2.36,-0.10,-0.75,-0.32,
2.658,-0.34,-4.26,2.36,-0.11,-0.82,-0.32,
2.658,-0.53,-4.38,2.76,-0.11,-0.82,-0.32,
2.659,-0.53,-4.38,2.76,-0.12,-0.87,-0.33,
2.659,-0.77,-4.45,2.84,-0.12,-0.87,-0.33,
2.659,-0.77,-4.45,2.84,-0.13,-0.91,-0.33,
2.66,-0.77,-4.45,2.84,-0.14,-0.95,-0.34,
2.66,-0.77,-4.45,2.84,-0.14,-0.97,-0.34,
2.661,-0.85,-4.36,2.98,-0.14,-0.97,-0.34,
2.661,-0.85,-4.36,2.98,-0.15,-0.99,-0.33,
2.664,-0.85,-4.36,2.98,-0.15,-1.01,-0.33,
2.665,-0.91,-4.04,2.69,-0.15,-1.01,-0.33,
2.666,-0.91,-4.04,2.69,-0.17,-1.01,-0.33,
2.677,-1.08,-3.55,2.34,-0.17,-1.01,-0.33,
2.678,-1.08,-3.55,2.34,-0.18,-1.00,-0.32,
2.678,-1.08,-3.55,2.34,-0.19,-0.97,-0.31,
2.678,-1.08,-3.55,2.34,-0.19,-0.93,-0.30,
2.679,-1.09,-3.02,2.11,-0.19,-0.93,-0.30,
2.679,-1.09,-3.02,2.11,-0.19,-0.87,-0.30,
2.679,-1.09,-3.02,2.11,-0.19,-0.81,-0.29,
2.679,-1.09,-2.31,2.08,-0.19,-0.81,-0.29,
2.681,-1.09,-2.31,2.08,-0.19,-0.75,-0.29,
2.683,-1.09,-2.31,2.08,-0.18,-0.70,-0.28,
2.683,-1.15,-1.53,2.34,-0.18,-0.70,-0.28,
2.687,-1.15,-1.53,2.34,-0.17,-0.65,-0.27,
2.689,-1.15,-0.85,2.63,-0.17,-0.65,-0.27,
2.689,-1.15,-0.85,2.63,-0.16,-0.61,-0.26,
2.69,-1.15,-0.85,2.63,-0.15,-0.57,-0.24,
2.693,-1.15,-0.85,2.63,-0.14,-0.54,-0.22,
2.693,-1.12,-0.13,2.96,-0.14,-0.54,-0.22,
2.695,-1.12,-0.13,2.96,-0.13,-0.52,-0.20,
2.698,-1.12,-0.13,2.96,-0.12,-0.52,-0.17,
2.698,-1.20,0.61,3.42,-0.12,-0.52,-0.17,
2.7,-1.20,0.61,3.42,-0.10,-0.53,-0.14,
2.703,-1.20,0.61,3.42,-0.07,-0.55,-0.11,
2.704,-1.34,1.36,3.93,-0.07,-0.55,-0.11,
2.705,-1.34,1.36,3.93,-0.05,-0.58,-0.08,
2.708,-1.34,1.36,3.93,-0.02,-0.61,-0.06,
2.708,-1.39,1.91,3.50,-0.02,-0.61,-0.06,
2.71,-1.39,1.91,3.50,-0.03,-0.57,-0.03,
2.713,-1.39,1.91,3.50,0.01,-0.58,-0.01,
2.713,-1.62,2.29,4.66,0.01,-0.58,-0.01,
2.715,-1.62,2.29,4.66,0.05,-0.59,0.02,
2.719,-1.62,2.29,4.66,0.09,-0.60,0.04,
2.719,-1.98,2.46,4.84,0.09,-0.60,0.04,
2.721,-1.98,2.46,4.84,0.13,-0.61,0.07,
2.724,-1.98,2.46,4.84,0.16,-0.62,0.09,
2.724,-2.15,2.65,4.82,0.16,-0.62,0.09,
2.726,-2.15,2.65,4.82,0.20,-0.62,0.11,
2.728,-2.15,2.65,4.82,0.23,-0.61,0.13,
2.728,-2.27,2.78,4.69,0.23,-0.61,0.13,
2.73,-2.27,2.78,4.69,0.25,-0.61,0.15,
2.732,-2.27,2.78,4.69,0.28,-0.58,0.18,
2.733,-2.13,2.89,4.28,0.28,-0.58,0.18,
2.736,-2.13,2.89,4.28,0.30,-0.54,0.21,
2.738,-2.13,2.89,4.28,0.31,-0.48,0.24,
2.738,-2.28,2.74,3.85,0.31,-0.48,0.24,
2.74,-2.28,2.74,3.85,0.31,-0.43,0.27,
2.743,-2.28,2.74,3.85,0.31,-0.37,0.28,
2.743,-2.13,2.47,3.31,0.31,-0.37,0.28,
2.746,-2.13,2.47,3.31,0.30,-0.31,0.29,
2.748,-2.13,2.47,3.31,0.29,-0.24,0.29,
2.748,-2.17,2.30,2.73,0.29,-0.24,0.29,
2.75,-2.17,2.30,2.73,0.28,-0.15,0.27,
2.753,-2.17,2.30,2.73,0.27,-0.05,0.21,
2.754,-1.95,2.14,2.04,0.27,-0.05,0.21,
2.755,-1.95,2.14,2.04,0.26,0.04,0.11,
2.758,-1.95,2.14,2.04,0.24,0.11,-0.00,
2.758,-1.62,1.52,1.43,0.24,0.11,-0.00,
2.76,-1.62,1.52,1.43,0.21,0.18,-0.11,
2.763,-1.62,1.52,1.43,0.19,0.25,-0.22,
2.763,-1.36,1.10,0.94,0.19,0.25,-0.22,
2.765,-1.36,1.10,0.94,0.16,0.31,-0.32,
2.767,-1.36,1.10,0.94,0.13,0.38,-0.40,
2.767,-1.32,0.81,0.63,0.13,0.38,-0.40,
2.77,-1.32,0.81,0.63,0.11,0.43,-0.46,
2.772,-1.32,0.81,0.63,0.08,0.47,-0.49,
2.773,-1.20,0.56,0.37,0.08,0.47,-0.49,
2.775,-1.20,0.56,0.37,0.04,0.51,-0.51,
2.777,-1.20,0.56,0.37,0.02,0.54,-0.50,
2.777,-0.93,0.31,0.11,0.02,0.54,-0.50,
2.779,-0.93,0.31,0.11,-0.01,0.56,-0.48,
2.782,-0.93,0.31,0.11,-0.05,0.56,-0.46,
2.782,-0.40,-0.00,-0.08,-0.05,0.56,-0.46,
2.784,-0.40,-0.00,-0.08,-0.09,0.56,-0.43,
2.788,0.34,-0.15,-0.48,-0.09,0.56,-0.43,
2.788,0.34,-0.15,-0.48,-0.14,0.55,-0.41,
2.79,0.34,-0.15,-0.48,-0.20,0.54,-0.38,
2.792,0.34,-0.15,-0.48,-0.25,0.54,-0.36,
2.793,0.87,-0.04,-0.77,-0.25,0.54,-0.36,
2.794,0.87,-0.04,-0.77,-0.27,0.57,-0.37,
2.797,0.87,-0.04,-0.77,-0.28,0.58,-0.40,
2.798,1.10,0.15,-0.37,-0.28,0.58,-0.40,
2.799,1.10,0.15,-0.37,-0.30,0.53,-0.42,
2.803,1.10,0.15,-0.37,-0.31,0.48,-0.43,
2.811,1.10,0.15,-0.37,-0.32,0.41,-0.46,
2.825,1.10,0.15,-0.37,-0.32,0.33,-0.48,
2.825,1.10,0.15,-0.37,-0.32,0.23,-0.51,
2.825,1.19,0.25,0.38,-0.32,0.23,-0.51,
2.825,1.28,0.33,0.81,-0.32,0.23,-0.51,
2.826,1.28,0.33,0.81,-0.32,0.14,-0.53,
2.826,1.23,0.49,0.93,-0.32,0.14,-0.53,
2.826,1.23,0.49,0.93,-0.33,0.05,-0.54,
2.826,1.23,0.49,0.93,-0.34,-0.02,-0.56,
2.827,1.42,0.56,0.59,-0.34,-0.02,-0.56,
2.827,1.42,0.56,0.59,-0.36,-0.06,-0.56,
2.827,1.42,0.56,0.59,-0.38,-0.08,-0.57,
2.827,1.70,0.54,0.04,-0.38,-0.08,-0.57,
2.827,1.70,0.54,0.04,-0.41,-0.10,-0.57,
2.828,1.70,0.54,0.04,-0.43,-0.10,-0.57,
2.828,1.99,0.55,-0.23,-0.43,-0.10,-0.57,
2.83,1.99,0.55,-0.23,-0.44,-0.08,-0.57,
2.832,1.99,0.55,-0.23,-0.46,-0.07,-0.56,
2.833,2.18,0.61,-0.28,-0.46,-0.07,-0.56,
2.835,2.18,0.61,-0.28,-0.47,-0.05,-0.55,
2.837,2.18,0.61,-0.28,-0.47,-0.04,-0.55,
2.838,2.34,0.80,-0.17,-0.47,-0.04,-0.55,
2.839,2.34,0.80,-0.17,-0.48,-0.04,-0.54,
2.842,2.34,0.80,-0.17,-0.48,-0.05,-0.52,
2.842,2.40,1.03,-0.03,-0.48,-0.05,-0.52,
2.846,2.40,1.03,-0.03,-0.48,-0.07,-0.51,
2.847,2.40,1.03,-0.03,-0.47,-0.09,-0.50,
2.847,2.38,1.24,0.06,-0.47,-0.09,-0.50,
2.849,2.38,1.24,0.06,-0.47,-0.12,-0.48,
2.852,2.38,1.48,0.23,-0.47,-0.12,-0.48,
2.853,2.38,1.48,0.23,-0.46,-0.15,-0.46,
2.854,2.38,1.48,0.23,-0.45,-0.18,-0.44,
2.857,2.38,1.48,0.23,-0.45,-0.21,-0.42,
2.857,2.23,1.66,0.28,-0.45,-0.21,-0.42,
2.859,2.23,1.66,0.28,-0.44,-0.23,-0.40,
2.861,2.23,1.66,0.28,-0.44,-0.26,-0.37,
2.862,2.11,1.90,0.43,-0.44,-0.26,-0.37,
2.864,2.11,1.90,0.43,-0.44,-0.28,-0.34,
2.866,2.11,1.90,0.43,-0.44,-0.31,-0.32,
2.867,2.12,2.04,0.65,-0.44,-0.31,-0.32,
2.869,2.12,2.04,0.65,-0.44,-0.34,-0.30,
2.872,2.04,2.18,0.74,-0.44,-0.34,-0.30,
2.872,2.04,2.18,0.74,-0.44,-0.36,-0.27,
2.874,2.04,2.18,0.74,-0.45,-0.39,-0.24,
2.876,2.04,2.18,0.74,-0.46,-0.40,-0.22,
2.876,2.10,2.33,0.77,-0.46,-0.40,-0.22,
2.879,2.10,2.33,0.77,-0.47,-0.41,-0.20,
2.881,2.10,2.33,0.77,-0.47,-0.41,-0.18,
2.881,2.18,2.49,0.75,-0.47,-0.41,-0.18,
2.884,2.18,2.49,0.75,-0.48,-0.40,-0.15,
2.887,2.18,2.49,0.75,-0.48,-0.38,-0.12,
2.887,2.19,2.58,0.60,-0.48,-0.38,-0.12,
2.889,2.19,2.58,0.60,-0.47,-0.35,-0.10,
2.893,2.19,2.58,0.60,-0.47,-0.32,-0.07,
2.893,2.20,2.65,0.45,-0.47,-0.32,-0.07,
2.894,2.20,2.65,0.45,-0.46,-0.29,-0.05,
2.899,2.13,2.65,0.36,-0.46,-0.29,-0.05,
2.899,2.13,2.65,0.36,-0.46,-0.27,-0.03,
2.899,2.13,2.65,0.36,-0.45,-0.24,-0.02,
2.901,2.13,2.65,0.36,-0.43,-0.22,-0.00,
2.901,2.00,2.64,0.42,-0.43,-0.22,-0.00,
2.904,2.00,2.64,0.42,-0.41,-0.21,0.01,
2.906,2.00,2.64,0.42,-0.37,-0.21,0.01,
2.907,1.81,2.59,0.61,-0.37,-0.21,0.01,
2.908,1.81,2.59,0.61,-0.34,-0.22,0.02,
2.911,1.62,2.51,0.65,-0.34,-0.22,0.02,
2.911,1.62,2.51,0.65,-0.30,-0.23,0.02,
2.913,1.62,2.51,0.65,-0.26,-0.26,0.02,
2.917,1.62,2.51,0.65,-0.22,-0.29,0.02,
2.917,1.50,2.37,0.61,-0.22,-0.29,0.02,
2.921,1.50,2.37,0.61,-0.18,-0.34,0.02,
2.921,1.50,2.37,0.61,-0.12,-0.40,0.02,
2.922,1.35,2.15,1.31,-0.12,-0.40,0.02,
2.923,1.35,2.15,1.31,-0.07,-0.47,0.01,
2.927,1.35,2.15,1.31,-0.04,-0.50,0.02,
2.927,1.60,2.09,0.39,-0.04,-0.50,0.02,
2.928,1.60,2.09,0.39,0.01,-0.49,0.01,
2.931,1.60,2.09,0.39,0.04,-0.49,0.02,
2.931,1.63,1.87,0.31,0.04,-0.49,0.02,
2.933,1.63,1.87,0.31,0.07,-0.50,0.02,
2.937,1.42,1.71,0.21,0.07,-0.50,0.02,
2.939,1.42,1.71,0.21,0.10,-0.51,0.03,
2.939,1.42,1.71,0.21,0.11,-0.51,0.04,
2.941,1.42,1.71,0.21,0.13,-0.51,0.05,
2.941,1.19,1.50,0.09,0.13,-0.51,0.05,
2.943,1.19,1.50,0.09,0.14,-0.51,0.06,
2.947,0.80,1.33,0.05,0.14,-0.51,0.06,
2.947,0.80,1.33,0.05,0.14,-0.52,0.08,
2.948,0.80,1.33,0.05,0.15,-0.53,0.08,
2.951,0.80,1.33,0.05,0.15,-0.56,0.09,
2.951,0.41,1.10,0.00,0.15,-0.56,0.09,
2.954,0.41,1.10,0.00,0.16,-0.57,0.09,
2.956,0.41,1.10,0.00,0.16,-0.57,0.09,
2.956,0.02,0.89,-0.19,0.16,-0.57,0.09,
2.958,0.02,0.89,-0.19,0.16,-0.57,0.08,
2.961,0.02,0.89,-0.19,0.15,-0.56,0.08,
2.961,-0.32,0.71,-0.40,0.15,-0.56,0.08,
2.963,-0.32,0.71,-0.40,0.16,-0.54,0.08,
2.966,-0.32,0.71,-0.40,0.15,-0.51,0.07,
2.966,-0.57,0.53,-0.64,0.15,-0.51,0.07,
2.968,-0.57,0.53,-0.64,0.15,-0.48,0.06,
2.978,-0.57,0.53,-0.64,0.15,-0.46,0.05,
2.978,-0.88,0.37,-0.77,0.15,-0.46,0.05,
2.978,-0.88,0.37,-0.77,0.16,-0.44,0.04,
2.978,-1.23,0.30,-0.81,0.16,-0.44,0.04,
2.978,-1.23,0.30,-0.81,0.16,-0.42,0.03,
2.978,-1.23,0.30,-0.81,0.16,-0.41,0.02,
2.985,-1.23,0.30,-0.81,0.16,-0.42,0.01,
2.986,-1.52,0.28,-0.87,0.16,-0.42,0.01,
2.986,-1.52,0.28,-0.87,0.17,-0.42,0.01,
2.986,-1.75,0.41,-1.19,0.17,-0.42,0.01,
2.986,-1.75,0.41,-1.19,0.18,-0.39,0.02,
2.992,-1.81,0.66,-1.32,0.18,-0.39,0.02,
2.992,-1.81,0.66,-1.32,0.19,-0.35,0.03,
2.993,-1.81,0.66,-1.32,0.20,-0.32,0.05,
2.995,-1.81,0.66,-1.32,0.20,-0.30,0.06,
2.995,-1.94,0.79,-1.22,0.20,-0.30,0.06,
2.996,-1.94,0.79,-1.22,0.20,-0.29,0.08,
2.998,-1.94,0.79,-1.22,0.19,-0.29,0.10,
3.0,-1.94,0.79,-1.22,0.18,-0.31,0.12,
3.0,-2.06,0.96,-1.18,0.18,-0.31,0.12,
3.003,-2.06,0.96,-1.18,0.17,-0.33,0.15,
3.006,-2.19,0.99,-1.28,0.17,-0.33,0.15,
3.006,-2.19,0.99,-1.28,0.15,-0.34,0.17,
3.008,-2.19,0.99,-1.28,0.13,-0.33,0.19,
3.011,-2.31,0.84,-1.26,0.13,-0.33,0.19,
3.011,-2.31,0.84,-1.26,0.11,-0.33,0.20,
3.013,-2.31,0.84,-1.26,0.09,-0.33,0.20,
3.016,-2.31,0.84,-1.26,0.05,-0.32,0.19,
3.017,-2.31,0.37,-1.23,0.05,-0.32,0.19,
3.019,-2.31,0.37,-1.23,0.04,-0.33,0.19,
3.021,-2.31,0.37,-1.23,0.04,-0.33,0.23,
3.022,-2.65,0.62,-0.85,0.04,-0.33,0.23,
3.024,-2.65,0.62,-0.85,0.05,-0.32,0.28,
3.026,-2.65,0.62,-0.85,0.07,-0.33,0.33,
3.027,-2.45,0.82,-0.58,0.07,-0.33,0.33,
3.029,-2.45,0.82,-0.58,0.09,-0.36,0.37,
3.03,-2.45,0.82,-0.58,0.11,-0.40,0.38,
3.03,-2.12,0.75,-0.61,0.11,-0.40,0.38,
3.033,-2.12,0.75,-0.61,0.12,-0.43,0.37,
3.036,-2.22,0.64,-0.48,0.12,-0.43,0.37,
3.037,-2.22,0.64,-0.48,0.14,-0.45,0.35,
3.039,-2.22,0.64,-0.48,0.15,-0.47,0.33,
3.04,-2.22,0.64,-0.48,0.17,-0.47,0.30,
3.04,-2.54,0.80,-0.41,0.17,-0.47,0.30,
3.042,-2.54,0.80,-0.41,0.19,-0.47,0.28,
3.045,-2.62,1.08,-0.55,0.19,-0.47,0.28,
3.045,-2.62,1.08,-0.55,0.20,-0.46,0.27,
3.047,-2.62,1.08,-0.55,0.21,-0.44,0.26,
3.05,-2.62,1.08,-0.55,0.22,-0.42,0.25,
3.05,-2.39,1.24,-0.76,0.22,-0.42,0.25,
3.053,-2.39,1.24,-0.76,0.21,-0.40,0.25,
3.056,-2.08,1.92,-0.90,0.21,-0.40,0.25,
3.056,-2.08,1.92,-0.90,0.21,-0.38,0.25,
3.057,-2.08,1.92,-0.90,0.20,-0.37,0.25,
3.06,-2.08,1.92,-0.90,0.26,-0.37,0.26,
3.06,-1.79,5.19,-0.80,0.26,-0.37,0.26,
3.062,-1.79,5.19,-0.80,0.31,-0.41,0.25,
3.065,-1.79,5.19,-0.80,0.33,-0.49,0.20,
3.065,-1.46,2.00,-0.72,0.33,-0.49,0.20,
3.068,-1.46,2.00,-0.72,0.36,-0.55,0.14,
3.071,-1.66,1.45,-0.86,0.36,-0.55,0.14,
3.072,-1.66,1.45,-0.86,0.40,-0.58,0.08,
3.072,-1.66,1.45,-0.86,0.43,-0.57,0.03,
3.075,-2.33,1.09,-1.20,0.43,-0.57,0.03,
3.076,-2.33,1.09,-1.20,0.46,-0.55,-0.01,
3.077,-2.33,1.09,-1.20,0.47,-0.50,-0.03,
3.08,-2.33,1.09,-1.20,0.47,-0.46,-0.05,
3.08,-2.73,0.52,-1.73,0.47,-0.46,-0.05,
3.082,-2.73,0.52,-1.73,0.45,-0.40,-0.06,
3.085,-2.73,0.52,-1.73,0.42,-0.37,-0.06,
3.085,-3.18,0.16,-2.04,0.42,-0.37,-0.06,
3.09,-3.18,0.16,-2.04,0.36,-0.36,-0.04,
3.09,-3.18,0.16,-2.04,0.28,-0.34,-0.01,
3.09,-3.32,-0.39,-2.26,0.28,-0.34,-0.01,
3.096,-3.32,-0.39,-2.26,0.20,-0.31,0.01,
3.096,-3.32,-0.39,-2.26,0.11,-0.28,0.04,
3.097,-3.61,-0.98,-2.40,0.11,-0.28,0.04,
3.097,-3.61,-0.98,-2.40,0.03,-0.20,0.06,
3.099,-3.61,-0.98,-2.40,-0.05,-0.10,0.08,
3.099,-4.00,-0.55,-2.81,-0.05,-0.10,0.08,
3.102,-4.00,-0.55,-2.81,-0.13,0.02,0.09,
3.105,-4.00,-0.55,-2.81,-0.20,0.12,0.10,
3.106,-3.99,-0.35,-3.04,-0.20,0.12,0.10,
3.107,-3.99,-0.35,-3.04,-0.28,0.20,0.10,
3.109,-3.99,-0.35,-3.04,-0.35,0.25,0.10,
3.11,-3.95,-0.63,-3.02,-0.35,0.25,0.10,
3.112,-3.95,-0.63,-3.02,-0.41,0.27,0.10,
3.114,-3.95,-0.63,-3.02,-0.45,0.28,0.12,
3.114,-3.85,-0.86,-2.74,-0.45,0.28,0.12,
3.117,-3.85,-0.86,-2.74,-0.48,0.29,0.13,
3.12,-3.85,-0.86,-2.74,-0.51,0.29,0.14,
3.12,-3.57,-1.40,-2.35,-0.51,0.29,0.14,
3.122,-3.57,-1.40,-2.35,-0.52,0.27,0.16,
3.124,-3.57,-1.40,-2.35,-0.53,0.23,0.18,
3.125,-3.11,-1.76,-1.73,-0.53,0.23,0.18,
3.127,-3.11,-1.76,-1.73,-0.54,0.17,0.19,
3.129,-3.11,-1.76,-1.73,-0.56,0.11,0.20,
3.129,-2.55,-1.98,-0.89,-0.56,0.11,0.20,
3.131,-2.55,-1.98,-0.89,-0.56,0.04,0.20,
3.134,-2.55,-1.98,-0.89,-0.57,-0.01,0.20,
3.146,-2.17,-2.21,0.04,-0.57,-0.01,0.20,
3.147,-2.17,-2.21,0.04,-0.57,-0.06,0.19,
3.147,-2.17,-2.21,0.04,-0.57,-0.09,0.18,
3.147,-1.88,-2.46,1.03,-0.57,-0.09,0.18,
3.147,-1.88,-2.46,1.03,-0.56,-0.12,0.17,
3.147,-1.88,-2.46,1.03,-0.56,-0.15,0.15,
3.147,-1.65,-2.62,2.01,-0.56,-0.15,0.15,
3.148,-1.65,-2.62,2.01,-0.54,-0.18,0.13,
3.149,-1.65,-2.62,2.01,-0.52,-0.22,0.10,
3.15,-1.52,-2.75,2.98,-0.52,-0.22,0.10,
3.153,-1.52,-2.75,2.98,-0.50,-0.27,0.08,
3.154,-1.52,-2.75,2.98,-0.47,-0.33,0.06,
3.156,-1.45,-2.63,3.88,-0.47,-0.33,0.06,
3.156,-1.45,-2.63,3.88,-0.43,-0.34,0.04,
3.159,-1.45,-2.63,3.88,-0.39,-0.33,0.02,
3.159,-1.40,-2.35,4.42,-0.39,-0.33,0.02,
3.161,-1.40,-2.35,4.42,-0.35,-0.31,0.00,
3.164,-1.40,-2.35,4.42,-0.32,-0.32,-0.02,
3.164,-1.53,-2.12,4.87,-0.32,-0.32,-0.02,
3.166,-1.53,-2.12,4.87,-0.30,-0.33,-0.03,
3.17,-1.51,-1.66,5.10,-0.30,-0.33,-0.03,
3.17,-1.51,-1.66,5.10,-0.28,-0.34,-0.04,
3.172,-1.51,-1.66,5.10,-0.25,-0.33,-0.05,
3.174,-1.51,-1.66,5.10,-0.22,-0.32,-0.05,
3.175,-1.36,-1.30,5.19,-0.22,-0.32,-0.05,
3.176,-1.36,-1.30,5.19,-0.19,-0.31,-0.05,
3.179,-1.36,-1.30,5.19,-0.16,-0.29,-0.04,
3.179,-1.03,-1.37,5.19,-0.16,-0.29,-0.04,
3.181,-1.03,-1.37,5.19,-0.12,-0.27,-0.02,
3.184,-1.03,-1.37,5.19,-0.08,-0.24,0.01,
3.184,-0.51,-1.47,5.02,-0.08,-0.24,0.01,
3.187,-0.51,-1.47,5.02,-0.04,-0.20,0.05,
3.189,0.08,-1.40,4.71,-0.04,-0.20,0.05,
3.189,0.08,-1.40,4.71,0.01,-0.15,0.09,
3.191,0.08,-1.40,4.71,0.06,-0.08,0.13,
3.195,0.08,-1.40,4.71,0.10,0.02,0.17,
3.195,0.89,-1.68,4.07,0.10,0.02,0.17,
3.197,0.89,-1.68,4.07,0.15,0.12,0.19,
3.199,1.51,-2.50,3.88,0.15,0.12,0.19,
3.2,1.51,-2.50,3.88,0.19,0.19,0.20,
3.202,1.51,-2.50,3.88,0.22,0.25,0.22,
3.204,1.51,-2.50,3.88,0.26,0.31,0.23,
3.21,1.65,-3.22,3.51,0.26,0.31,0.23,
3.21,1.65,-3.22,3.51,0.28,0.39,0.24,
3.21,1.93,-3.62,2.95,0.28,0.39,0.24,
3.211,1.93,-3.62,2.95,0.30,0.46,0.24,
3.211,1.93,-3.62,2.95,0.31,0.52,0.23,
3.214,1.93,-3.62,2.95,0.31,0.55,0.22,
3.215,2.04,-3.73,2.60,0.31,0.55,0.22,
3.216,2.04,-3.73,2.60,0.31,0.57,0.19,
3.219,2.04,-3.73,2.60,0.30,0.57,0.16,
3.219,1.87,-3.76,2.29,0.30,0.57,0.16,
3.221,1.87,-3.76,2.29,0.30,0.56,0.13,
3.224,1.87,-3.76,2.29,0.29,0.55,0.10,
3.224,1.73,-3.47,1.56,0.29,0.55,0.10,
3.226,1.73,-3.47,1.56,0.27,0.53,0.07,
3.228,1.73,-3.47,1.56,0.24,0.50,0.08,
3.228,1.55,-3.56,0.72,0.24,0.50,0.08,
3.231,1.55,-3.56,0.72,0.19,0.46,0.17,
3.233,1.55,-3.56,0.72,0.09,0.34,0.17,
3.234,2.78,-4.49,0.44,0.09,0.34,0.17,
3.236,2.78,-4.49,0.44,-0.10,0.08,-0.17,
3.239,2.78,-4.49,0.44,-0.28,-0.12,-0.56,
3.239,0.57,-3.68,0.43,-0.28,-0.12,-0.56,
3.241,0.57,-3.68,0.43,-0.43,-0.26,-0.83,
3.243,0.38,-2.17,0.63,-0.43,-0.26,-0.83,
3.243,0.38,-2.17,0.63,-0.56,-0.32,-1.17,
3.247,0.38,-2.17,0.63,-0.68,-0.39,-1.61,
3.249,0.38,-2.17,0.63,-0.83,-0.50,-2.05,
3.249,-0.07,-1.47,0.66,-0.83,-0.50,-2.05,
3.251,-0.07,-1.47,0.66,-0.99,-0.53,-2.43,
3.254,-1.09,-1.25,-0.37,-0.99,-0.53,-2.43,
3.256,-1.09,-1.25,-0.37,-1.13,-0.43,-2.70,
3.259,0.55,-2.02,-1.12,-1.13,-0.43,-2.70,
3.259,0.55,-2.02,-1.12,-1.25,-0.23,-2.89,
3.26,0.55,-2.02,-1.12,-1.35,0.01,-3.05,
3.261,0.55,-2.02,-1.12,-1.44,0.27,-3.16,
3.263,0.55,-2.02,-1.12,-1.53,0.54,-3.22,
3.264,0.95,-1.86,-2.26,-1.53,0.54,-3.22,
3.266,0.95,-1.86,-2.26,-1.61,0.81,-3.23,
3.268,1.96,-2.07,-2.62,-1.61,0.81,-3.23,
3.269,1.96,-2.07,-2.62,-1.67,1.07,-3.24,
3.273,1.96,-2.07,-2.62,-1.72,1.26,-3.23,
3.274,1.95,-1.89,-3.00,-1.72,1.26,-3.23,
3.274,1.95,-1.89,-3.00,-1.77,1.42,-3.22,
3.277,1.95,-1.89,-3.00,-1.79,1.56,-3.22,
3.278,1.95,-1.89,-3.00,-1.81,1.63,-3.22,
3.279,1.82,-1.54,-2.64,-1.81,1.63,-3.22,
3.281,1.82,-1.54,-2.64,-1.83,1.69,-3.23,
3.283,1.29,-0.96,-1.85,-1.83,1.69,-3.23,
3.284,1.29,-0.96,-1.85,-1.85,1.71,-3.24,
3.287,1.29,-0.96,-1.85,-1.84,1.70,-3.25,
3.292,1.29,-0.96,-1.85,-1.81,1.63,-3.27,
3.292,0.60,-0.38,-0.06,-1.81,1.63,-3.27,
3.292,0.60,-0.38,-0.06,-1.77,1.53,-3.29,
3.294,0.60,-0.38,-0.06,-1.72,1.44,-3.34,
3.294,0.14,0.04,0.64,-1.72,1.44,-3.34,
3.296,0.14,0.04,0.64,-1.65,1.36,-3.38,
3.299,0.14,0.04,0.64,-1.56,1.31,-3.43,
3.299,-0.16,0.52,0.73,-1.56,1.31,-3.43,
3.309,-0.16,0.52,0.73,-1.47,1.28,-3.48,
3.31,-0.05,1.25,0.79,-1.47,1.28,-3.48,
3.31,-0.05,1.25,0.79,-1.36,1.27,-3.53,
3.31,-0.05,1.25,0.79,-1.23,1.28,-3.57,
3.31,-0.29,1.76,0.80,-1.23,1.28,-3.57,
3.31,-0.29,1.76,0.80,-1.10,1.29,-3.59,
3.311,-0.29,1.76,0.80,-0.97,1.31,-3.61,
3.314,-0.47,2.06,0.85,-0.97,1.31,-3.61,
3.314,-0.47,2.06,0.85,-0.83,1.32,-3.62,
3.315,-0.47,2.06,0.85,-0.70,1.33,-3.62,
3.318,-0.47,2.06,0.85,-0.57,1.35,-3.61,
3.318,-0.44,2.32,0.93,-0.57,1.35,-3.61,
3.322,-0.44,2.32,0.93,-0.43,1.42,-3.62,
3.323,-0.44,2.32,0.93,-0.24,1.59,-3.64,
3.323,-0.33,2.03,0.52,-0.24,1.59,-3.64,
3.325,-0.33,2.03,0.52,-0.07,1.71,-3.65,
3.327,-0.33,2.03,0.52,0.09,1.79,-3.66,
3.328,-0.46,2.08,0.79,0.09,1.79,-3.66,
3.33,-0.46,2.08,0.79,0.25,1.84,-3.66,
3.333,-0.46,2.08,0.79,0.40,1.90,-3.64,
3.333,-0.61,2.14,0.94,0.40,1.90,-3.64,
3.336,-0.61,2.14,0.94,0.54,1.93,-3.63,
3.338,-0.57,2.12,1.07,0.54,1.93,-3.63,
3.339,-0.57,2.12,1.07,0.66,1.92,-3.64,
3.341,-0.57,2.12,1.07,0.77,1.90,-3.67,
3.343,-0.57,2.12,1.07,0.87,1.87,-3.71,
3.343,-0.58,2.33,1.25,0.87,1.87,-3.71,
3.346,-0.58,2.33,1.25,0.97,1.86,-3.72,
3.347,-0.58,2.33,1.25,1.07,1.89,-3.67,
3.348,-0.93,2.83,0.99,1.07,1.89,-3.67,
3.35,-0.93,2.83,0.99,1.18,1.94,-3.56,
3.353,-0.93,2.83,0.99,1.27,1.99,-3.41,
3.353,-1.20,3.38,0.57,1.27,1.99,-3.41,
3.356,-1.20,3.38,0.57,1.33,1.98,-3.23,
3.357,-1.20,3.38,0.57,1.36,1.92,-3.03,
3.357,-0.93,3.68,0.47,1.36,1.92,-3.03,
3.359,-0.93,3.68,0.47,1.37,1.87,-2.83,
3.362,-0.93,3.68,0.47,1.35,1.80,-2.61,
3.362,-0.57,3.87,0.25,1.35,1.80,-2.61,
3.364,-0.57,3.87,0.25,1.32,1.73,-2.40,
3.367,-0.57,3.87,0.25,1.26,1.66,-2.18,
3.367,-0.30,3.96,-0.06,1.26,1.66,-2.18,
3.371,-0.30,3.96,-0.06,1.18,1.59,-1.97,
3.374,-0.30,3.96,-0.06,1.09,1.53,-1.77,
3.374,0.18,4.00,-0.07,1.09,1.53,-1.77,
3.375,0.18,4.00,-0.07,0.99,1.46,-1.58,
3.377,0.72,3.94,0.03,0.99,1.46,-1.58,
3.377,0.72,3.94,0.03,0.88,1.40,-1.40,
3.382,0.72,3.94,0.03,0.76,1.34,-1.23,
3.383,1.23,3.82,0.37,0.76,1.34,-1.23,
3.383,1.23,3.82,0.37,0.63,1.28,-1.07,
3.384,1.23,3.82,0.37,0.51,1.24,-0.92,
3.388,1.23,3.82,0.37,0.39,1.20,-0.78,
3.39,1.72,3.54,0.77,0.39,1.20,-0.78,
3.391,1.72,3.54,0.77,0.28,1.18,-0.65,
3.392,1.72,3.54,0.77,0.17,1.17,-0.53,
3.394,2.10,3.23,0.88,0.17,1.17,-0.53,
3.394,2.10,3.23,0.88,0.05,1.18,-0.42,
3.398,2.10,3.23,0.88,-0.06,1.19,-0.32,
3.398,2.39,2.82,0.79,-0.06,1.19,-0.32,
3.4,2.39,2.82,0.79,-0.18,1.20,-0.23,
3.402,2.39,2.82,0.79,-0.29,1.21,-0.14,
3.402,2.42,2.19,0.57,-0.29,1.21,-0.14,
3.406,2.42,2.19,0.57,-0.39,1.22,-0.08,
3.409,2.42,2.19,0.57,-0.47,1.22,-0.03,
3.409,2.56,1.99,0.78,-0.47,1.22,-0.03,
3.41,2.56,1.99,0.78,-0.53,1.22,0.01,
3.412,2.56,1.99,0.78,-0.57,1.22,0.04,
3.412,2.58,2.37,0.66,-0.57,1.22,0.04,
3.414,2.58,2.37,0.66,-0.60,1.23,0.04,
3.417,2.40,2.71,0.17,-0.60,1.23,0.04,
3.418,2.40,2.71,0.17,-0.62,1.25,0.04,
3.42,2.40,2.71,0.17,-0.62,1.28,0.02,
3.423,2.14,2.82,-0.06,-0.62,1.28,0.02,
3.423,2.14,2.82,-0.06,-0.61,1.30,0.01,
3.424,2.14,2.82,-0.06,-0.59,1.32,-0.01,
3.427,2.14,2.82,-0.06,-0.56,1.33,-0.02,
3.428,1.93,2.72,-0.20,-0.56,1.33,-0.02,
3.429,1.93,2.72,-0.20,-0.52,1.33,-0.03,
3.432,1.77,2.87,-0.27,-0.52,1.33,-0.03,
3.432,1.77,2.87,-0.27,-0.47,1.33,-0.03,
3.436,1.77,2.87,-0.27,-0.41,1.31,-0.01,
3.439,1.90,3.03,-0.16,-0.41,1.31,-0.01,
3.441,1.90,3.03,-0.16,-0.35,1.26,0.01,
3.443,1.90,3.03,-0.16,-0.29,1.20,0.04,
3.443,2.14,2.91,0.06,-0.29,1.20,0.04,
3.443,2.14,2.91,0.06,-0.23,1.13,0.07,
3.444,2.14,2.91,0.06,-0.15,1.05,0.11,
3.447,2.29,2.74,0.28,-0.15,1.05,0.11,
3.447,2.29,2.74,0.28,-0.08,0.97,0.15,
3.449,2.29,2.74,0.28,-0.00,0.90,0.19,
3.452,2.36,2.46,0.32,-0.00,0.90,0.19,
3.452,2.36,2.46,0.32,0.07,0.84,0.23,
3.455,2.36,2.46,0.32,0.15,0.79,0.28,
3.457,2.46,2.20,0.31,0.15,0.79,0.28,
3.458,2.46,2.20,0.31,0.22,0.75,0.33,
3.459,2.46,2.20,0.31,0.29,0.71,0.37,
3.462,2.46,2.20,0.31,0.36,0.68,0.42,
3.462,2.60,2.00,0.28,0.36,0.68,0.42,
3.464,2.60,2.00,0.28,0.42,0.65,0.46,
3.488,2.60,2.00,0.28,0.47,0.63,0.50,
3.489,2.65,1.83,0.21,0.47,0.63,0.50,
3.489,2.65,1.83,0.21,0.52,0.61,0.54,
3.489,2.65,1.83,0.21,0.56,0.60,0.58,
3.489,2.51,1.78,-0.00,0.56,0.60,0.58,
3.49,2.51,1.78,-0.00,0.59,0.60,0.62,
3.49,2.51,1.78,-0.00,0.62,0.59,0.67,
3.49,2.40,1.73,-0.32,0.62,0.59,0.67,
3.49,2.40,1.73,-0.32,0.64,0.59,0.71,
3.491,2.40,1.73,-0.32,0.65,0.60,0.75,
3.491,2.38,1.66,-0.67,0.65,0.60,0.75,
3.491,2.38,1.66,-0.67,0.66,0.62,0.78,
3.491,2.38,1.66,-0.67,0.66,0.65,0.82,
3.492,2.08,1.49,-1.29,0.66,0.65,0.82,
3.492,2.08,1.49,-1.29,0.65,0.67,0.85,
3.492,2.08,1.49,-1.29,0.64,0.70,0.88,
3.492,1.94,1.27,-1.78,0.64,0.70,0.88,
3.494,1.94,1.27,-1.78,0.63,0.74,0.90,
3.497,1.94,1.27,-1.78,0.61,0.77,0.93,
3.497,1.73,1.06,-2.19,0.61,0.77,0.93,
3.498,1.73,1.06,-2.19,0.59,0.80,0.95,
3.501,1.73,1.06,-2.19,0.56,0.82,0.97,
3.501,1.62,0.83,-2.62,0.56,0.82,0.97,
3.506,1.62,0.83,-2.62,0.53,0.84,0.98,
3.507,1.47,0.51,-2.93,0.53,0.84,0.98,
3.507,1.47,0.51,-2.93,0.50,0.86,1.00,
3.508,1.47,0.51,-2.93,0.47,0.86,1.02,
3.511,1.47,0.51,-2.93,0.43,0.86,1.04,
3.511,1.27,0.18,-3.14,0.43,0.86,1.04,
3.513,1.27,0.18,-3.14,0.40,0.86,1.05,
3.516,1.27,0.18,-3.14,0.36,0.85,1.06,
3.516,1.17,-0.15,-3.19,0.36,0.85,1.06,
3.519,1.17,-0.15,-3.19,0.33,0.83,1.07,
3.521,0.84,-0.10,-3.03,0.33,0.83,1.07,
3.521,0.84,-0.10,-3.03,0.30,0.77,1.08,
3.529,0.84,-0.10,-3.03,0.26,0.69,1.09,
3.53,0.84,-0.10,-3.03,0.23,0.60,1.11,
3.53,0.84,-0.10,-3.03,0.22,0.50,1.15,
3.53,0.08,-0.09,-2.63,0.22,0.50,1.15,
3.532,-0.33,0.04,-2.00,0.22,0.50,1.15,
3.532,-0.33,0.04,-2.00,0.22,0.35,1.19,
3.534,-0.33,0.04,-2.00,0.21,0.22,1.23,
3.538,-0.33,0.04,-2.00,0.20,0.12,1.25,
3.538,0.07,-0.30,-2.32,0.20,0.12,1.25,
3.539,0.07,-0.30,-2.32,0.19,0.06,1.27,
3.542,0.07,-0.30,-2.32,0.19,0.02,1.28,
3.542,0.44,-0.53,-2.08,0.19,0.02,1.28,
3.543,0.44,-0.53,-2.08,0.21,-0.02,1.28,
3.546,0.44,-0.53,-2.08,0.23,-0.06,1.29,
3.546,0.32,-0.86,-1.29,0.23,-0.06,1.29,
3.548,0.32,-0.86,-1.29,0.27,-0.12,1.29,
3.55,0.32,-0.86,-1.29,0.31,-0.19,1.28,
3.551,0.27,-1.39,-0.48,0.31,-0.19,1.28,
3.553,0.27,-1.39,-0.48,0.37,-0.28,1.28,
3.556,0.27,-1.39,-0.48,0.42,-0.38,1.27,
3.556,0.26,-1.79,0.14,0.42,-0.38,1.27,
3.558,0.26,-1.79,0.14,0.47,-0.48,1.26,
3.56,0.26,-1.79,0.14,0.53,-0.57,1.25,
3.561,0.19,-1.98,0.49,0.53,-0.57,1.25,
3.563,0.19,-1.98,0.49,0.58,-0.66,1.24,
3.566,0.28,-2.05,0.25,0.58,-0.66,1.24,
3.566,0.28,-2.05,0.25,0.63,-0.70,1.22,
3.568,0.28,-2.05,0.25,0.67,-0.71,1.20,
3.571,0.28,-2.05,0.25,0.70,-0.69,1.16,
3.572,0.48,-2.19,-0.72,0.70,-0.69,1.16,
3.573,0.48,-2.19,-0.72,0.67,-0.62,1.12,
3.576,0.48,-2.19,-0.72,0.64,-0.48,1.06,
3.576,0.93,-2.53,-1.84,0.64,-0.48,1.06,
3.578,0.93,-2.53,-1.84,0.66,-0.38,0.99,
3.581,0.93,-2.53,-1.84,0.64,-0.30,0.93,
3.581,0.48,-2.51,-2.10,0.64,-0.30,0.93,
3.583,0.48,-2.51,-2.10,0.59,-0.23,0.87,
3.586,0.35,-2.64,-3.52,0.59,-0.23,0.87,
3.586,0.35,-2.64,-3.52,0.54,-0.15,0.81,
3.591,0.35,-2.64,-3.52,0.48,-0.07,0.74,
3.592,0.35,-2.64,-3.52,0.42,-0.01,0.67,
3.592,0.13,-2.72,-4.65,0.42,-0.01,0.67,
3.593,0.13,-2.72,-4.65,0.34,0.05,0.60,
3.595,0.13,-2.72,-4.65,0.26,0.13,0.52,
3.595,0.14,-2.89,-5.57,0.26,0.13,0.52,
3.598,0.14,-2.89,-5.57,0.19,0.20,0.44,
3.601,0.14,-2.89,-5.57,0.10,0.26,0.35,
3.601,0.21,-3.14,-6.25,0.10,0.26,0.35,
3.606,0.28,-3.51,-6.43,0.10,0.26,0.35,
3.607,0.28,-3.51,-6.43,0.02,0.32,0.26,
3.607,0.28,-3.51,-6.43,-0.06,0.38,0.16,
3.607,0.28,-3.51,-6.43,-0.13,0.42,0.05,
3.611,-0.01,-3.67,-5.82,-0.13,0.42,0.05,
3.611,-0.01,-3.67,-5.82,-0.19,0.43,-0.04,
3.613,-0.01,-3.67,-5.82,-0.23,0.42,-0.12,
3.616,-0.59,-3.49,-5.20,-0.23,0.42,-0.12,
3.616,-0.59,-3.49,-5.20,-0.26,0.39,-0.18,
3.617,-0.59,-3.49,-5.20,-0.28,0.35,-0.22,
3.622,-0.59,-3.49,-5.20,-0.28,0.28,-0.23,
3.622,-0.84,-3.24,-4.10,-0.28,0.28,-0.23,
3.623,-0.84,-3.24,-4.10,-0.27,0.20,-0.23,
3.63,-0.64,-3.00,-2.57,-0.27,0.20,-0.23,
3.63,-0.64,-3.00,-2.57,-0.23,0.11,-0.22,
3.63,-0.64,-3.00,-2.57,-0.19,0.02,-0.21,
3.63,-0.64,-3.00,-2.57,-0.14,-0.07,-0.20,
3.644,-0.15,-2.92,-1.03,-0.14,-0.07,-0.20,
3.644,-0.15,-2.92,-1.03,-0.09,-0.16,-0.19,
3.644,-0.15,-2.92,-1.03,-0.03,-0.24,-0.18,
3.644,0.25,-3.08,0.43,-0.03,-0.24,-0.18,
3.644,0.25,-3.08,0.43,0.04,-0.33,-0.17,
3.645,0.51,-3.30,1.78,0.04,-0.33,-0.17,
3.645,0.51,-3.30,1.78,0.11,-0.42,-0.16,
3.645,0.51,-3.30,1.78,0.18,-0.51,-0.15,
3.646,1.04,-3.50,2.40,0.18,-0.51,-0.15,
3.646,1.04,-3.50,2.40,0.24,-0.57,-0.16,
3.649,1.04,-3.50,2.40,0.31,-0.62,-0.18,
3.65,1.04,-3.50,2.40,0.38,-0.71,-0.19,
3.65,1.10,-3.76,3.83,0.38,-0.71,-0.19,
3.652,1.10,-3.76,3.83,0.45,-0.78,-0.20,
3.656,1.26,-3.96,4.34,0.45,-0.78,-0.20,
3.657,1.26,-3.96,4.34,0.52,-0.85,-0.21,
3.657,1.26,-3.96,4.34,0.59,-0.92,-0.23,
3.66,1.26,-3.96,4.34,0.66,-0.98,-0.25,
3.66,1.26,-3.85,4.74,0.66,-0.98,-0.25,
3.662,1.26,-3.85,4.74,0.73,-1.03,-0.26,
3.665,0.96,-3.68,4.86,0.73,-1.03,-0.26,
3.665,0.96,-3.68,4.86,0.80,-1.08,-0.27,
3.667,0.96,-3.68,4.86,0.86,-1.11,-0.28,
3.672,0.96,-3.68,4.86,0.91,-1.14,-0.28,
3.672,0.79,-3.48,4.66,0.91,-1.14,-0.28,
3.673,0.79,-3.48,4.66,0.95,-1.16,-0.28,
3.675,0.79,-3.48,4.66,0.98,-1.17,-0.29,
3.675,0.67,-3.24,4.11,0.98,-1.17,-0.29,
3.677,0.67,-3.24,4.11,1.00,-1.16,-0.29,
3.68,0.67,-3.24,4.11,1.01,-1.13,-0.29,
3.68,0.71,-2.92,3.64,1.01,-1.13,-0.29,
3.682,0.71,-2.92,3.64,1.02,-1.08,-0.29,
3.686,0.61,-2.40,3.41,1.02,-1.08,-0.29,
3.687,0.61,-2.40,3.41,1.02,-1.00,-0.29,
3.689,0.61,-2.40,3.41,1.02,-0.91,-0.29,
3.697,0.61,-2.40,3.41,1.02,-0.81,-0.27,
3.697,0.35,-1.82,3.17,1.02,-0.81,-0.27,
3.697,0.35,-1.82,3.17,1.01,-0.69,-0.26,
3.697,0.35,-1.82,3.17,0.99,-0.59,-0.23,
3.697,0.06,-1.25,3.14,0.99,-0.59,-0.23,
3.698,0.06,-1.25,3.14,0.98,-0.51,-0.21,
3.701,-0.36,-0.79,3.28,0.98,-0.51,-0.21,
3.701,-0.36,-0.79,3.28,0.95,-0.46,-0.18,
3.703,-0.36,-0.79,3.28,0.93,-0.43,-0.14,
3.707,-0.78,-0.38,3.52,0.93,-0.43,-0.14,
3.707,-0.78,-0.38,3.52,0.90,-0.41,-0.09,
3.708,-0.78,-0.38,3.52,0.88,-0.41,-0.05,
3.71,-1.06,-0.06,3.69,0.88,-0.41,-0.05,
3.71,-1.06,-0.06,3.69,0.86,-0.41,0.01,
3.712,-1.06,-0.06,3.69,0.84,-0.40,0.06,
3.715,-1.06,-0.06,3.69,0.82,-0.39,0.11,
3.715,-1.39,0.19,3.85,0.82,-0.39,0.11,
3.717,-1.39,0.19,3.85,0.81,-0.39,0.17,
3.719,-1.39,0.19,3.85,0.79,-0.38,0.24,
3.719,-1.73,0.48,3.92,0.79,-0.38,0.24,
3.722,-1.73,0.48,3.92,0.78,-0.36,0.30,
3.725,-1.73,0.48,3.92,0.76,-0.34,0.36,
3.725,-2.21,0.83,3.79,0.76,-0.34,0.36,
3.727,-2.21,0.83,3.79,0.75,-0.31,0.44,
3.729,-2.21,0.83,3.79,0.73,-0.27,0.51,
3.73,-2.76,1.08,3.58,0.73,-0.27,0.51,
3.732,-2.76,1.08,3.58,0.72,-0.23,0.59,
3.734,-2.76,1.08,3.58,0.70,-0.21,0.67,
3.735,-3.16,1.25,3.51,0.70,-0.21,0.67,
3.736,-3.16,1.25,3.51,0.68,-0.20,0.75,
3.741,-3.29,1.36,3.23,0.68,-0.20,0.75,
3.742,-3.29,1.36,3.23,0.66,-0.19,0.83,
3.742,-3.29,1.36,3.23,0.63,-0.18,0.91,
3.744,-3.29,1.36,3.23,0.59,-0.17,0.97,
3.745,-3.24,1.25,2.80,0.59,-0.17,0.97,
3.747,-3.24,1.25,2.80,0.55,-0.18,1.04,
3.749,-3.24,1.25,2.80,0.51,-0.16,1.12,
3.749,-3.11,1.28,2.14,0.51,-0.16,1.12,
3.751,-3.11,1.28,2.14,0.47,-0.08,1.17,
3.754,-3.11,1.28,2.14,0.41,-0.03,1.22,
3.755,-2.86,0.75,1.34,0.41,-0.03,1.22,
3.758,-2.86,0.75,1.34,0.35,0.03,1.27,
3.76,-2.86,0.75,1.34,0.29,0.11,1.30,
3.76,-2.32,0.52,0.86,0.29,0.11,1.30,
3.761,-2.32,0.52,0.86,0.22,0.18,1.31,
3.764,-2.32,0.52,0.86,0.15,0.24,1.31,
3.765,-1.72,0.30,0.53,0.15,0.24,1.31,
3.766,-1.72,0.30,0.53,0.09,0.30,1.31,
3.769,-1.72,0.30,0.53,0.03,0.36,1.29,
3.77,-1.33,0.11,0.33,0.03,0.36,1.29,
3.773,-1.33,0.11,0.33,-0.02,0.41,1.27,
3.775,-0.97,0.07,0.09,-0.02,0.41,1.27,
3.776,-0.97,0.07,0.09,-0.07,0.45,1.24,
3.777,-0.97,0.07,0.09,-0.13,0.48,1.21,
3.779,-0.97,0.07,0.09,-0.18,0.50,1.17,
3.78,-0.78,0.19,-0.09,-0.18,0.50,1.17,
3.782,-0.78,0.19,-0.09,-0.23,0.50,1.12,
3.784,-0.78,0.19,-0.09,-0.28,0.48,1.07,
3.784,-0.63,0.29,-0.27,-0.28,0.48,1.07,
3.787,-0.63,0.29,-0.27,-0.32,0.44,1.02,
3.791,-0.35,0.30,-0.01,-0.32,0.44,1.02,
3.791,-0.35,0.30,-0.01,-0.35,0.39,0.96,
3.797,-0.35,0.30,-0.01,-0.36,0.35,0.91,
3.798,-0.35,0.30,-0.01,-0.35,0.31,0.85,
3.798,-0.01,0.30,0.45,-0.35,0.31,0.85,
3.821,-0.01,0.30,0.45,-0.32,0.27,0.79,
3.821,0.37,0.28,0.78,-0.32,0.27,0.79,
3.821,0.37,0.28,0.78,-0.28,0.23,0.73,
3.822,0.37,0.28,0.78,-0.22,0.21,0.66,
3.822,0.37,0.28,0.78,-0.16,0.19,0.60,
3.822,0.79,0.42,0.68,-0.16,0.19,0.60,
3.822,1.23,0.67,0.25,-0.16,0.19,0.60,
3.823,1.23,0.67,0.25,-0.10,0.17,0.54,
3.823,1.23,0.67,0.25,-0.05,0.16,0.47,
3.823,1.23,0.67,0.25,-0.01,0.14,0.41,
3.823,1.23,0.67,0.25,0.02,0.11,0.35,
3.824,1.36,0.98,-0.21,0.02,0.11,0.35,
3.824,1.36,0.98,-0.21,0.05,0.08,0.30,
3.824,1.36,0.98,-0.21,0.07,0.04,0.26,
3.824,1.38,1.23,-0.30,0.07,0.04,0.26,
3.824,1.38,1.23,-0.30,0.10,-0.02,0.22,
3.825,1.38,1.23,-0.30,0.13,-0.07,0.18,
3.825,1.44,1.40,-0.05,0.13,-0.07,0.18,
3.826,1.44,1.40,-0.05,0.16,-0.13,0.15,
3.83,1.44,1.40,-0.05,0.19,-0.20,0.12,
3.83,1.58,1.42,0.18,0.19,-0.20,0.12,
3.831,1.58,1.42,0.18,0.23,-0.27,0.09,
3.833,1.58,1.42,0.18,0.26,-0.35,0.07,
3.834,1.68,1.48,0.35,0.26,-0.35,0.07,
3.836,1.68,1.48,0.35,0.29,-0.43,0.05,
3.839,1.65,1.56,0.51,0.29,-0.43,0.05,
3.841,1.65,1.56,0.51,0.33,-0.48,0.04,
3.841,1.65,1.56,0.51,0.36,-0.54,0.03,
3.843,1.64,1.68,0.40,0.36,-0.54,0.03,
3.844,1.64,1.68,0.40,0.39,-0.58,0.02,
3.846,1.64,1.68,0.40,0.41,-0.62,0.02,
3.849,1.64,1.68,0.40,0.43,-0.65,0.02,
3.85,1.67,1.86,0.24,0.43,-0.65,0.02,
3.852,1.67,1.86,0.24,0.44,-0.67,0.02,
3.853,1.67,1.86,0.24,0.45,-0.67,0.01,
3.853,1.64,2.11,-0.00,0.45,-0.67,0.01,
3.856,1.64,2.11,-0.00,0.44,-0.66,0.01,
3.859,1.64,2.11,-0.00,0.44,-0.66,0.02,
3.859,1.56,2.44,-0.18,0.44,-0.66,0.02,
3.861,1.56,2.44,-0.18,0.42,-0.65,0.03,
3.864,1.56,2.44,-0.18,0.40,-0.64,0.04,
3.864,1.34,2.71,-0.29,0.40,-0.64,0.04,
3.866,1.34,2.71,-0.29,0.38,-0.63,0.06,
3.868,1.34,2.71,-0.29,0.35,-0.63,0.07,
3.868,1.24,2.83,-0.23,0.35,-0.63,0.07,
3.872,1.24,2.83,-0.23,0.32,-0.62,0.09,
3.873,1.07,2.77,-0.08,0.32,-0.62,0.09,
3.874,1.07,2.77,-0.08,0.30,-0.62,0.11,
3.875,1.07,2.77,-0.08,0.27,-0.61,0.13,
3.878,1.07,2.77,-0.08,0.25,-0.61,0.15,
3.878,1.03,2.69,-0.01,0.25,-0.61,0.15,
3.881,1.03,2.69,-0.01,0.22,-0.62,0.16,
3.883,1.03,2.69,-0.01,0.19,-0.63,0.17,
3.883,1.04,2.61,0.08,0.19,-0.63,0.17,
3.885,1.04,2.61,0.08,0.16,-0.63,0.17,
3.893,1.02,2.53,0.28,0.16,-0.63,0.17,
3.893,1.02,2.53,0.28,0.13,-0.65,0.17,
3.894,1.02,2.53,0.28,0.11,-0.65,0.16,
3.894,1.02,2.53,0.28,0.10,-0.66,0.16,
3.901,0.97,2.57,0.50,0.10,-0.66,0.16,
3.901,0.97,2.57,0.50,0.09,-0.68,0.16,
3.902,0.84,2.47,0.63,0.09,-0.68,0.16,
3.902,0.84,2.47,0.63,0.08,-0.70,0.15,
3.902,0.84,2.47,0.63,0.07,-0.71,0.14,
3.903,0.84,2.47,0.63,0.07,-0.72,0.13,
3.904,0.97,2.33,0.65,0.07,-0.72,0.13,
3.907,0.97,2.33,0.65,0.06,-0.75,0.12,
3.909,0.97,2.33,0.65,0.06,-0.76,0.11,
3.91,0.95,2.14,0.47,0.06,-0.76,0.11,
3.911,0.95,2.14,0.47,0.05,-0.77,0.09,
3.913,0.95,2.14,0.47,0.04,-0.77,0.08,
3.913,0.95,2.00,0.31,0.04,-0.77,0.08,
3.915,0.95,2.00,0.31,0.04,-0.77,0.07,
3.918,0.95,2.00,0.31,0.03,-0.77,0.06,
3.918,0.93,1.86,0.18,0.03,-0.77,0.06,
3.92,0.93,1.86,0.18,0.03,-0.77,0.05,
3.923,0.93,1.86,0.18,0.02,-0.76,0.04,
3.924,0.87,1.63,0.03,0.02,-0.76,0.04,
3.926,0.87,1.63,0.03,0.02,-0.75,0.03,
3.928,0.95,1.39,-0.04,0.02,-0.75,0.03,
3.928,0.95,1.39,-0.04,0.02,-0.74,0.02,
3.93,0.95,1.39,-0.04,0.02,-0.73,0.01,
3.933,0.95,1.39,-0.04,0.02,-0.72,-0.00,
3.933,0.86,1.30,-0.20,0.02,-0.72,-0.00,
3.935,0.86,1.30,-0.20,0.01,-0.71,-0.01,
3.939,0.86,1.30,-0.20,0.01,-0.71,-0.01,
3.94,0.69,1.16,-0.41,0.01,-0.71,-0.01,
3.941,0.69,1.16,-0.41,0.01,-0.71,-0.01,
3.943,0.62,1.06,-0.62,0.01,-0.71,-0.01,
3.944,0.62,1.06,-0.62,0.00,-0.71,-0.02,
3.945,0.62,1.06,-0.62,-0.01,-0.71,-0.02,
3.948,0.62,1.06,-0.62,-0.01,-0.71,-0.02,
3.948,0.46,1.02,-0.88,-0.01,-0.71,-0.02,
3.95,0.46,1.02,-0.88,-0.02,-0.70,-0.02,
3.952,0.46,1.02,-0.88,-0.03,-0.69,-0.01,
3.953,0.24,0.95,-1.10,-0.03,-0.69,-0.01,
3.956,0.24,0.95,-1.10,-0.04,-0.69,-0.01,
3.959,-0.02,0.80,-1.31,-0.04,-0.69,-0.01,
3.96,-0.02,0.80,-1.31,-0.05,-0.68,-0.00,
3.96,-0.02,0.80,-1.31,-0.06,-0.68,0.01,
3.993,-0.34,0.76,-1.51,-0.06,-0.68,0.01,
3.994,-0.34,0.76,-1.51,-0.07,-0.66,0.02,
3.994,-0.34,0.76,-1.51,-0.08,-0.64,0.03,
3.995,-0.79,0.68,-1.54,-0.08,-0.64,0.03,
3.995,-0.79,0.68,-1.54,-0.08,-0.63,0.04,
3.996,-0.79,0.68,-1.54,-0.09,-0.62,0.06,
3.996,-1.21,0.60,-1.56,-0.09,-0.62,0.06,
3.996,-1.21,0.60,-1.56,-0.09,-0.61,0.08,
3.997,-1.21,0.60,-1.56,-0.09,-0.60,0.09,
3.997,-1.60,0.64,-1.62,-0.09,-0.60,0.09,
3.998,-1.60,0.64,-1.62,-0.09,-0.60,0.11,
3.998,-1.60,0.64,-1.62,-0.09,-0.60,0.13,
3.998,-1.93,0.73,-1.68,-0.09,-0.60,0.13,
3.999,-1.93,0.73,-1.68,-0.09,-0.59,0.15,
3.999,-1.93,0.73,-1.68,-0.10,-0.59,0.17,
3.999,-2.30,0.77,-1.71,-0.10,-0.59,0.17,
4.0,-2.30,0.77,-1.71,-0.10,-0.59,0.20,
4.0,-2.30,0.77,-1.71,-0.11,-0.59,0.22,
4.001,-2.52,0.88,-1.69,-0.11,-0.59,0.22,
4.001,-2.52,0.88,-1.69,-0.11,-0.59,0.25,
4.001,-2.52,0.88,-1.69,-0.12,-0.59,0.27,
4.002,-2.52,0.88,-1.69,-0.12,-0.60,0.29,
4.002,-2.75,0.97,-1.65,-0.12,-0.60,0.29,
4.003,-2.75,0.97,-1.65,-0.13,-0.60,0.32,
4.003,-2.99,1.05,-1.55,-0.13,-0.60,0.32,
4.003,-2.99,1.05,-1.55,-0.14,-0.60,0.35,
4.007,-2.99,1.05,-1.55,-0.15,-0.60,0.37,
4.008,-2.99,1.05,-1.55,-0.16,-0.60,0.40,
4.008,-3.04,1.06,-1.36,-0.16,-0.60,0.40,
4.01,-3.04,1.06,-1.36,-0.16,-0.60,0.41,
4.013,-3.04,1.06,-1.36,-0.17,-0.59,0.43,
4.014,-3.09,0.99,-1.12,-0.17,-0.59,0.43,
4.015,-3.09,0.99,-1.12,-0.18,-0.59,0.43,
4.017,-3.09,0.99,-1.12,-0.18,-0.59,0.44,
4.018,-3.11,0.99,-0.88,-0.18,-0.59,0.44,
4.02,-3.11,0.99,-0.88,-0.18,-0.58,0.44,
4.023,-2.99,1.03,-0.78,-0.18,-0.58,0.44,
4.023,-2.99,1.03,-0.78,-0.19,-0.57,0.44,
4.024,-2.99,1.03,-0.78,-0.19,-0.56,0.44,
4.027,-2.99,1.03,-0.78,-0.19,-0.53,0.43,
4.027,-2.97,0.88,-0.64,-0.19,-0.53,0.43,
4.029,-2.97,0.88,-0.64,-0.20,-0.51,0.43,
4.032,-2.97,0.88,-0.64,-0.19,-0.48,0.41,
4.032,-2.71,0.80,-0.45,-0.19,-0.48,0.41,
4.035,-2.71,0.80,-0.45,-0.19,-0.45,0.39,
4.037,-2.50,0.63,-0.16,-0.19,-0.45,0.39,
4.037,-2.50,0.63,-0.16,-0.18,-0.42,0.37,
4.053,-2.50,0.63,-0.16,-0.17,-0.39,0.34,
4.056,-2.39,0.53,0.09,-0.17,-0.39,0.34,
4.057,-2.39,0.53,0.09,-0.16,-0.35,0.31,
4.057,-2.39,0.53,0.09,-0.14,-0.32,0.28,
4.058,-2.39,0.53,0.09,-0.13,-0.29,0.25,
4.058,-2.19,0.42,0.25,-0.13,-0.29,0.25,
4.059,-2.19,0.42,0.25,-0.12,-0.27,0.22,
4.06,-2.19,0.42,0.25,-0.10,-0.27,0.18,
4.061,-1.90,0.40,0.29,-0.10,-0.27,0.18,
4.061,-1.90,0.40,0.29,-0.09,-0.25,0.14,
4.061,-1.90,0.40,0.29,-0.08,-0.20,0.11,
4.062,-1.66,0.64,-0.37,-0.08,-0.20,0.11,
4.062,-1.66,0.64,-0.37,-0.08,-0.16,0.08,
4.062,-1.66,0.64,-0.37,-0.09,-0.12,0.07,
4.062,-1.75,1.09,-1.07,-0.09,-0.12,0.07,
4.064,-1.75,1.09,-1.07,-0.10,-0.06,0.06,
4.066,-1.75,1.09,-1.07,-0.11,-0.01,0.07,
4.067,-2.20,1.48,-1.63,-0.11,-0.01,0.07,
4.069,-2.20,1.48,-1.63,-0.13,0.03,0.08,
4.072,-2.20,1.48,-1.63,-0.14,0.05,0.11,
4.072,-2.94,1.45,-2.00,-0.14,0.05,0.11,
4.075,-2.94,1.45,-2.00,-0.16,0.04,0.14,
4.077,-2.94,1.45,-2.00,-0.18,0.02,0.18,
4.077,-3.58,1.18,-2.32,-0.18,0.02,0.18,
4.078,-3.58,1.18,-2.32,-0.19,0.00,0.23,
4.082,-3.58,1.18,-2.32,-0.19,-0.02,0.27,
4.082,-3.99,0.80,-2.69,-0.19,-0.02,0.27,
4.084,-3.99,0.80,-2.69,-0.19,-0.04,0.32,
4.086,-3.99,0.80,-2.69,-0.19,-0.07,0.36,
4.087,-4.32,0.25,-2.91,-0.19,-0.07,0.36,
4.089,-4.32,0.25,-2.91,-0.18,-0.11,0.40,
4.091,-4.32,0.25,-2.91,-0.17,-0.15,0.44,
4.092,-4.49,-0.35,-2.98,-0.17,-0.15,0.44,
4.095,-4.49,-0.35,-2.98,-0.15,-0.18,0.48,
4.096,-4.49,-0.35,-2.98,-0.13,-0.21,0.51,
4.097,-4.40,-1.03,-2.85,-0.13,-0.21,0.51,
4.098,-4.40,-1.03,-2.85,-0.11,-0.24,0.53,
4.101,-4.40,-1.03,-2.85,-0.09,-0.27,0.55,
4.102,-4.11,-1.75,-2.25,-0.09,-0.27,0.55,
4.103,-4.11,-1.75,-2.25,-0.06,-0.28,0.56,
4.107,-4.11,-1.75,-2.25,-0.03,-0.31,0.57,
4.107,-3.83,-2.13,-1.19,-0.03,-0.31,0.57,
4.108,-3.83,-2.13,-1.19,-0.00,-0.34,0.58,
4.113,-3.46,-2.86,0.01,-0.00,-0.34,0.58,
4.113,-3.46,-2.86,0.01,0.02,-0.37,0.59,
4.114,-3.46,-2.86,0.01,0.03,-0.42,0.59,
4.116,-3.46,-2.86,0.01,0.03,-0.46,0.58,
4.116,-3.03,-3.56,1.37,0.03,-0.46,0.58,
4.12,-3.03,-3.56,1.37,0.03,-0.49,0.56,
4.125,-3.03,-3.56,1.37,0.02,-0.51,0.54,
4.125,-2.72,-4.13,2.57,0.02,-0.51,0.54,
4.126,-2.72,-4.13,2.57,0.01,-0.52,0.51,
4.126,-2.72,-4.13,2.57,-0.01,-0.51,0.49,
4.141,-2.58,-4.48,3.70,-0.01,-0.51,0.49,
4.141,-2.58,-4.48,3.70,-0.03,-0.49,0.46,
4.141,-2.58,-4.48,3.70,-0.05,-0.45,0.44,
4.142,-2.52,-4.64,4.62,-0.05,-0.45,0.44,
4.142,-2.52,-4.64,4.62,-0.07,-0.39,0.42,
4.142,-2.27,-4.72,5.25,-0.07,-0.39,0.42,
4.142,-2.27,-4.72,5.25,-0.10,-0.33,0.38,
4.142,-2.27,-4.72,5.25,-0.13,-0.27,0.35,
4.142,-2.27,-4.72,5.25,-0.16,-0.20,0.31,
4.143,-2.00,-4.65,5.58,-0.16,-0.20,0.31,
4.143,-2.00,-4.65,5.58,-0.20,-0.15,0.28,
4.146,-1.52,-4.59,5.65,-0.20,-0.15,0.28,
4.147,-1.52,-4.59,5.65,-0.23,-0.10,0.24,
4.149,-1.52,-4.59,5.65,-0.26,-0.06,0.20,
4.155,-1.52,-4.59,5.65,-0.29,-0.03,0.16,
4.156,-0.83,-4.59,5.47,-0.29,-0.03,0.16,
4.156,-0.83,-4.59,5.47,-0.32,-0.01,0.12,
4.157,-0.83,-4.59,5.47,-0.35,0.01,0.09,
4.157,0.10,-4.18,5.08,-0.35,0.01,0.09,
4.158,0.10,-4.18,5.08,-0.37,0.03,0.08,
4.161,0.10,-4.18,5.08,-0.39,0.05,0.08,
4.161,0.88,-3.64,4.58,-0.39,0.05,0.08,
4.163,0.88,-3.64,4.58,-0.39,0.08,0.08,
4.166,1.64,-3.17,4.02,-0.39,0.08,0.08,
4.166,1.64,-3.17,4.02,-0.39,0.12,0.10,
4.168,1.64,-3.17,4.02,-0.38,0.17,0.12,
4.171,2.48,-2.93,3.40,-0.38,0.17,0.12,
4.171,2.48,-2.93,3.40,-0.36,0.22,0.13,
4.173,2.48,-2.93,3.40,-0.35,0.26,0.13,
4.175,3.10,-2.77,2.69,-0.35,0.26,0.13,
4.176,3.10,-2.77,2.69,-0.32,0.31,0.14,
4.179,3.10,-2.77,2.69,-0.30,0.35,0.14,
4.182,3.10,-2.77,2.69,-0.27,0.39,0.15,
4.182,3.38,-2.70,1.88,-0.27,0.39,0.15,
4.184,3.38,-2.70,1.88,-0.25,0.41,0.17,
4.186,3.38,-2.70,1.88,-0.23,0.42,0.19,
4.187,3.55,-2.79,1.13,-0.23,0.42,0.19,
4.189,3.55,-2.79,1.13,-0.21,0.41,0.20,
4.191,3.55,-2.79,1.13,-0.19,0.39,0.21,
4.191,3.90,-2.95,0.60,-0.19,0.39,0.21,
4.193,3.90,-2.95,0.60,-0.16,0.34,0.22,
4.195,3.90,-2.95,0.60,-0.13,0.29,0.22,
4.196,4.23,-3.05,0.37,-0.13,0.29,0.22,
4.198,4.23,-3.05,0.37,-0.09,0.23,0.22,
4.2,4.23,-3.05,0.37,-0.04,0.17,0.21,
4.2,4.47,-3.08,0.32,-0.04,0.17,0.21,
4.202,4.47,-3.08,0.32,0.01,0.10,0.19,
4.206,4.63,-3.06,0.30,0.01,0.10,0.19,
4.208,4.63,-3.06,0.30,0.06,0.03,0.17,
4.211,4.73,-2.95,0.18,0.06,0.03,0.17,
4.211,4.73,-2.95,0.18,0.12,-0.03,0.15,
4.211,4.73,-2.95,0.18,0.18,-0.08,0.11,
4.213,4.73,-2.95,0.18,0.23,-0.13,0.08,
4.215,4.73,-2.95,0.18,0.28,-0.17,0.05,
4.215,4.65,-2.77,-0.06,0.28,-0.17,0.05,
4.217,4.65,-2.77,-0.06,0.33,-0.19,0.02,
4.22,4.65,-2.77,-0.06,0.37,-0.21,-0.02,
4.22,4.38,-2.53,-0.61,0.37,-0.21,-0.02,
4.223,4.38,-2.53,-0.61,0.40,-0.22,-0.04,
4.226,3.99,-2.19,-1.17,0.40,-0.22,-0.04,
4.226,3.99,-2.19,-1.17,0.42,-0.21,-0.07,
4.227,3.99,-2.19,-1.17,0.43,-0.21,-0.09,
4.23,3.99,-2.19,-1.17,0.43,-0.19,-0.12,
4.23,3.66,-1.83,-1.62,0.43,-0.19,-0.12,
4.232,3.66,-1.83,-1.62,0.41,-0.17,-0.14,
4.235,3.43,-1.40,-1.76,0.41,-0.17,-0.14,
4.235,3.43,-1.40,-1.76,0.40,-0.14,-0.17,
4.239,3.43,-1.40,-1.76,0.38,-0.11,-0.20,
4.24,3.43,-1.40,-1.76,0.36,-0.06,-0.22,
4.242,3.17,-0.95,-1.61,0.36,-0.06,-0.22,
4.242,3.17,-0.95,-1.61,0.33,-0.02,-0.23,
4.245,3.17,-0.95,-1.61,0.31,0.03,-0.24,
4.245,2.81,-0.55,-1.28,0.31,0.03,-0.24,
4.247,2.81,-0.55,-1.28,0.28,0.08,-0.24,
4.25,2.81,-0.55,-1.28,0.25,0.13,-0.24,
4.25,2.50,-0.18,-0.70,0.25,0.13,-0.24,
4.252,2.50,-0.18,-0.70,0.23,0.16,-0.22,
4.255,2.50,-0.18,-0.70,0.21,0.19,-0.20,
4.256,2.18,0.23,-0.05,0.21,0.19,-0.20,
4.26,2.18,0.23,-0.05,0.20,0.22,-0.18,
4.26,1.86,0.74,0.68,0.20,0.22,-0.18,
4.26,1.86,0.74,0.68,0.20,0.25,-0.16,
4.263,1.86,0.74,0.68,0.20,0.28,-0.13,
4.265,1.86,0.74,0.68,0.21,0.30,-0.10,
4.265,1.50,1.13,1.22,0.21,0.30,-0.10,
4.267,1.50,1.13,1.22,0.22,0.32,-0.07,
4.27,1.50,1.13,1.22,0.22,0.32,-0.04,
4.271,1.15,1.38,1.51,0.22,0.32,-0.04,
4.275,1.15,1.38,1.51,0.22,0.32,-0.01,
4.276,1.15,1.38,1.51,0.22,0.32,0.01,
4.276,0.88,1.54,1.54,0.22,0.32,0.01,
4.28,0.55,1.69,1.55,0.22,0.32,0.01,
4.28,0.55,1.69,1.55,0.22,0.31,0.04,
4.28,0.55,1.69,1.55,0.22,0.32,0.06,
4.282,0.55,1.69,1.55,0.21,0.34,0.08,
4.286,0.12,1.88,1.54,0.21,0.34,0.08,
4.287,0.12,1.88,1.54,0.22,0.36,0.10,
4.287,0.12,1.88,1.54,0.22,0.39,0.12,
4.305,0.12,1.88,1.54,0.22,0.42,0.14,
4.305,-0.19,2.11,1.41,0.22,0.42,0.14,
4.322,-0.19,2.11,1.41,0.22,0.46,0.17,
4.322,-0.19,2.11,1.41,0.22,0.50,0.19,
4.322,-0.39,2.34,1.09,0.22,0.50,0.19,
4.322,-0.39,2.34,1.09,0.21,0.55,0.22,
4.323,-0.66,2.57,0.75,0.21,0.55,0.22,
4.323,-0.66,2.57,0.75,0.21,0.59,0.26,
4.323,-0.66,2.57,0.75,0.20,0.63,0.29,
4.323,-0.66,2.57,0.75,0.19,0.65,0.33,
4.324,-0.87,2.72,0.51,0.19,0.65,0.33,
4.324,-0.87,2.72,0.51,0.18,0.67,0.37,
4.324,-0.87,2.72,0.51,0.18,0.68,0.40,
4.324,-0.84,2.82,0.44,0.18,0.68,0.40,
4.325,-0.84,2.82,0.44,0.17,0.69,0.42,
4.325,-0.84,2.82,0.44,0.17,0.70,0.45,
4.325,-0.81,2.79,0.29,0.17,0.70,0.45,
4.325,-0.81,2.79,0.29,0.18,0.70,0.46,
4.326,-0.81,2.79,0.29,0.17,0.71,0.48,
4.326,-0.87,2.77,0.11,0.17,0.71,0.48,
4.326,-0.87,2.77,0.11,0.17,0.71,0.49,
4.326,-0.87,2.77,0.11,0.17,0.72,0.50,
4.326,-0.87,2.69,-0.16,0.17,0.72,0.50,
4.327,-0.87,2.69,-0.16,0.17,0.71,0.50,
4.33,-0.87,2.69,-0.16,0.16,0.71,0.50,
4.331,-0.83,2.51,-0.48,0.16,0.71,0.50,
4.333,-0.83,2.51,-0.48,0.15,0.70,0.49,
4.335,-0.83,2.51,-0.48,0.15,0.69,0.47,
4.335,-0.54,2.30,-0.64,0.15,0.69,0.47,
4.336,-0.54,2.30,-0.64,0.15,0.68,0.44,
4.341,-0.42,2.11,-0.75,0.15,0.68,0.44,
4.341,-0.42,2.11,-0.75,0.15,0.69,0.40,
4.342,-0.42,2.11,-0.75,0.15,0.69,0.36,
4.344,-0.42,2.11,-0.75,0.16,0.71,0.31,
4.345,-0.20,1.98,-0.97,0.16,0.71,0.31,
4.348,-0.20,1.98,-0.97,0.16,0.73,0.26,
4.349,-0.20,1.98,-0.97,0.15,0.74,0.20,
4.349,0.18,1.77,-1.29,0.15,0.74,0.20,
4.351,0.18,1.77,-1.29,0.14,0.75,0.13,
4.354,0.18,1.77,-1.29,0.13,0.74,0.07,
4.354,0.43,1.54,-1.39,0.13,0.74,0.07,
4.359,0.43,1.54,-1.39,0.12,0.74,0.02,
4.359,0.43,1.54,-1.39,0.11,0.74,-0.03,
4.36,0.93,1.48,-1.32,0.11,0.74,-0.03,
4.361,0.93,1.48,-1.32,0.10,0.75,-0.08,
4.365,0.93,1.48,-1.32,0.09,0.78,-0.13,
4.365,1.74,1.53,-1.32,0.09,0.78,-0.13,
4.366,1.74,1.53,-1.32,0.08,0.81,-0.17,
4.369,1.74,1.53,-1.32,0.07,0.83,-0.20,
4.369,2.07,1.40,-1.29,0.07,0.83,-0.20,
4.371,2.07,1.40,-1.29,0.05,0.84,-0.21,
4.374,2.17,1.35,-0.99,0.05,0.84,-0.21,
4.374,2.17,1.35,-0.99,0.05,0.86,-0.22,
4.376,2.17,1.35,-0.99,0.05,0.87,-0.21,
4.379,2.17,1.35,-0.99,0.06,0.89,-0.20,
4.379,2.41,1.46,-0.53,0.06,0.89,-0.20,
4.381,2.41,1.46,-0.53,0.08,0.90,-0.19,
4.384,2.41,1.46,-0.53,0.11,0.90,-0.19,
4.384,2.79,1.50,-0.20,0.11,0.90,-0.19,
4.386,2.79,1.50,-0.20,0.14,0.89,-0.19,
4.393,3.00,1.47,-0.02,0.14,0.89,-0.19,
4.394,3.00,1.47,-0.02,0.18,0.88,-0.18,
4.394,3.00,1.47,-0.02,0.21,0.87,-0.17,
4.394,3.00,1.47,-0.02,0.25,0.84,-0.16,
4.395,2.98,1.35,0.02,0.25,0.84,-0.16,
4.4,2.98,1.35,0.02,0.28,0.80,-0.15,
4.402,2.98,1.35,0.02,0.31,0.77,-0.14,
4.402,2.77,1.25,0.00,0.31,0.77,-0.14,
4.402,2.77,1.25,0.00,0.33,0.74,-0.11,
4.407,2.77,1.25,0.00,0.36,0.70,-0.08,
4.408,2.47,1.21,-0.16,0.36,0.70,-0.08,
4.408,2.47,1.21,-0.16,0.38,0.67,-0.06,
4.409,2.47,1.21,-0.16,0.39,0.64,-0.04,
4.409,2.29,1.15,-0.40,0.39,0.64,-0.04,
4.413,2.29,1.15,-0.40,0.40,0.62,-0.02,
4.414,2.29,1.15,-0.40,0.40,0.61,0.00,
4.414,2.05,1.06,-0.68,0.40,0.61,0.00,
4.416,2.05,1.06,-0.68,0.39,0.60,0.02,
4.418,2.05,1.06,-0.68,0.38,0.61,0.05,
4.418,1.72,1.01,-1.04,0.38,0.61,0.05,
4.421,1.72,1.01,-1.04,0.36,0.62,0.07,
4.424,1.72,1.01,-1.04,0.34,0.63,0.09,
4.425,1.45,0.96,-1.28,0.34,0.63,0.09,
4.427,1.45,0.96,-1.28,0.32,0.65,0.12,
4.428,1.45,0.96,-1.28,0.30,0.66,0.14,
4.428,1.25,0.89,-1.43,0.30,0.66,0.14,
4.431,1.25,0.89,-1.43,0.28,0.68,0.15,
4.433,1.25,0.89,-1.43,0.25,0.69,0.17,
4.433,1.03,0.73,-1.55,0.25,0.69,0.17,
4.435,1.03,0.73,-1.55,0.23,0.72,0.19,
4.439,0.86,0.59,-1.64,0.23,0.72,0.19,
4.439,0.86,0.59,-1.64,0.20,0.74,0.20,
4.441,0.86,0.59,-1.64,0.18,0.77,0.22,
4.443,0.86,0.59,-1.64,0.16,0.80,0.23,
4.443,0.59,0.51,-1.73,0.16,0.80,0.23,
4.447,0.59,0.51,-1.73,0.13,0.82,0.25,
4.448,0.59,0.51,-1.73,0.11,0.84,0.26,
4.448,0.46,0.45,-1.80,0.11,0.84,0.26,
4.451,0.46,0.45,-1.80,0.09,0.86,0.28,
4.453,0.46,0.45,-1.80,0.07,0.88,0.30,
4.453,0.28,0.33,-1.94,0.07,0.88,0.30,
4.457,0.28,0.33,-1.94,0.05,0.90,0.31,
4.479,0.28,0.33,-1.94,0.03,0.93,0.32,
4.479,0.25,0.21,-2.20,0.03,0.93,0.32,
4.479,0.25,0.21,-2.20,0.01,0.96,0.34,
4.48,0.22,0.11,-2.47,0.01,0.96,0.34,
4.481,0.22,0.11,-2.47,-0.01,0.99,0.34,
4.481,0.22,0.11,-2.47,-0.02,1.02,0.35,
4.482,0.22,0.11,-2.47,-0.04,1.04,0.36,
4.482,0.19,0.06,-2.69,-0.04,1.04,0.36,
4.483,0.19,0.06,-2.69,-0.05,1.07,0.36,
4.483,0.19,0.06,-2.69,-0.06,1.10,0.37,
4.484,0.09,0.01,-2.90,-0.06,1.10,0.37,
4.484,0.09,0.01,-2.90,-0.07,1.12,0.38,
4.485,0.09,0.01,-2.90,-0.08,1.14,0.38,
4.485,-0.01,-0.03,-3.00,-0.08,1.14,0.38,
4.485,-0.01,-0.03,-3.00,-0.08,1.15,0.38,
4.486,-0.04,-0.05,-2.97,-0.08,1.15,0.38,
4.486,-0.04,-0.05,-2.97,-0.08,1.15,0.38,
4.486,-0.04,-0.05,-2.97,-0.07,1.15,0.38,
4.488,-0.04,-0.05,-2.97,-0.07,1.14,0.37,
4.488,-0.12,-0.07,-2.84,-0.07,1.14,0.37,
4.492,-0.12,-0.07,-2.84,-0.06,1.12,0.37,
4.492,-0.12,-0.07,-2.84,-0.05,1.09,0.36,
4.493,-0.07,-0.10,-2.62,-0.05,1.09,0.36,
4.495,-0.07,-0.10,-2.62,-0.03,1.06,0.35,
4.497,-0.07,-0.10,-2.62,-0.01,1.03,0.34,
4.498,-0.09,-0.15,-2.25,-0.01,1.03,0.34,
4.5,-0.09,-0.15,-2.25,0.01,0.99,0.32,
4.503,-0.09,-0.15,-2.25,0.03,0.94,0.31,
4.503,0.01,-0.24,-1.86,0.03,0.94,0.31,
4.507,0.01,-0.24,-1.86,0.05,0.90,0.29,
4.511,0.15,-0.34,-1.39,0.05,0.90,0.29,
4.511,0.15,-0.34,-1.39,0.08,0.85,0.27,
4.512,0.15,-0.34,-1.39,0.10,0.80,0.25,
4.512,0.38,-0.60,-0.70,0.10,0.80,0.25,
4.513,0.38,-0.60,-0.70,0.13,0.74,0.23,
4.515,0.38,-0.60,-0.70,0.16,0.66,0.20,
4.517,0.78,-1.18,0.33,0.16,0.66,0.20,
4.518,0.78,-1.18,0.33,0.20,0.57,0.17,
4.52,0.78,-1.18,0.33,0.23,0.46,0.14,
4.524,0.78,-1.18,0.33,0.28,0.36,0.10,
4.524,1.15,-1.68,1.23,0.28,0.36,0.10,
4.528,1.15,-1.68,1.23,0.33,0.26,0.08,
4.528,1.15,-1.68,1.23,0.38,0.18,0.06,
4.528,1.40,-1.78,1.56,0.38,0.18,0.06,
4.536,1.40,-1.78,1.56,0.43,0.11,0.05,
4.536,1.40,-1.78,1.56,0.47,0.05,0.04,
4.536,1.40,-1.78,1.56,0.51,-0.00,0.03,
4.537,1.66,-1.79,1.33,0.51,-0.00,0.03,
4.537,1.83,-1.81,0.67,0.51,-0.00,0.03,
4.537,1.83,-1.81,0.67,0.54,-0.06,0.02,
4.54,1.83,-1.81,0.67,0.57,-0.11,0.01,
4.544,1.83,-1.81,0.67,0.59,-0.15,0.00,
4.545,1.89,-1.93,-0.43,0.59,-0.15,0.00,
4.545,1.89,-1.93,-0.43,0.59,-0.18,-0.01,
4.547,1.89,-1.93,-0.43,0.59,-0.18,-0.01,
4.547,1.91,-1.98,-1.95,0.59,-0.18,-0.01,
4.55,1.91,-1.98,-1.95,0.58,-0.15,-0.02,
4.552,2.08,-2.24,-3.58,0.58,-0.15,-0.02,
4.552,2.08,-2.24,-3.58,0.55,-0.11,-0.03,
4.554,2.08,-2.24,-3.58,0.52,-0.05,-0.04,
4.558,2.23,-2.68,-4.95,0.52,-0.05,-0.04,
4.559,2.23,-2.68,-4.95,0.48,0.01,-0.06,
4.559,2.23,-2.68,-4.95,0.43,0.08,-0.08,
4.562,2.22,-3.03,-5.90,0.43,0.08,-0.08,
4.562,2.22,-3.03,-5.90,0.38,0.15,-0.11,
4.564,2.22,-3.03,-5.90,0.34,0.21,-0.13,
4.567,2.22,-3.03,-5.90,0.29,0.26,-0.16,
4.568,1.87,-3.21,-6.32,0.29,0.26,-0.16,
4.571,1.87,-3.21,-6.32,0.24,0.30,-0.17,
4.574,1.39,-3.20,-6.33,0.24,0.30,-0.17,
4.575,1.39,-3.20,-6.33,0.19,0.32,-0.19,
4.575,1.39,-3.20,-6.33,0.15,0.32,-0.20,
4.577,1.16,-3.28,-5.95,0.15,0.32,-0.20,
4.577,1.16,-3.28,-5.95,0.11,0.32,-0.20,
4.579,1.16,-3.28,-5.95,0.07,0.31,-0.21,
4.582,1.16,-3.28,-5.95,0.05,0.30,-0.21,
4.582,0.89,-3.37,-5.11,0.05,0.30,-0.21,
4.584,0.89,-3.37,-5.11,0.03,0.27,-0.21,
4.587,0.89,-3.37,-5.11,0.01,0.23,-0.20,
4.587,0.39,-3.37,-3.56,0.01,0.23,-0.20,
4.593,0.39,-3.37,-3.56,0.01,0.17,-0.18,
4.594,0.39,-3.37,-3.56,0.02,0.10,-0.17,
4.594,0.18,-3.42,-1.56,0.02,0.10,-0.17,
4.594,0.18,-3.42,-1.56,0.04,0.02,-0.16,
4.601,0.18,-3.42,-1.56,0.07,-0.07,-0.15,
4.601,0.06,-3.51,0.38,0.07,-0.07,-0.15,
4.602,0.06,-3.51,0.38,0.11,-0.16,-0.14,
4.602,0.06,-3.51,0.38,0.14,-0.26,-0.14,
4.602,0.00,-3.66,1.96,0.14,-0.26,-0.14,
4.608,0.00,-3.66,1.96,0.18,-0.37,-0.13,
4.608,0.00,-3.66,1.96,0.22,-0.47,-0.14,
4.608,0.10,-3.99,3.28,0.22,-0.47,-0.14,
4.609,0.10,-3.99,3.28,0.26,-0.59,-0.15,
4.612,0.30,-4.54,4.45,0.26,-0.59,-0.15,
4.612,0.30,-4.54,4.45,0.31,-0.69,-0.16,
4.614,0.30,-4.54,4.45,0.36,-0.79,-0.18,
4.617,0.30,-4.54,4.45,0.42,-0.87,-0.20,
4.617,0.30,-4.97,5.35,0.42,-0.87,-0.20,
4.619,0.30,-4.97,5.35,0.47,-0.96,-0.22,
4.623,0.30,-4.97,5.35,0.52,-1.08,-0.25,
4.654,0.23,-5.33,6.00,0.52,-1.08,-0.25,
4.654,0.23,-5.33,6.00,0.59,-1.16,-0.27,
4.654,0.23,-5.33,6.00,0.66,-1.19,-0.30,
4.655,0.17,-5.55,6.34,0.66,-1.19,-0.30,
4.655,0.17,-5.55,6.34,0.73,-1.22,-0.33,
4.655,0.17,-5.55,6.34,0.79,-1.23,-0.36,
4.655,-0.01,-5.34,6.04,0.79,-1.23,-0.36,
4.656,-0.01,-5.34,6.04,0.84,-1.21,-0.38,
4.656,-0.01,-5.34,6.04,0.88,-1.16,-0.39,
4.656,-0.45,-4.80,5.14,0.88,-1.16,-0.39,
4.656,-0.45,-4.80,5.14,0.89,-1.07,-0.39,
4.656,-0.45,-4.80,5.14,0.89,-0.98,-0.38,
4.657,-0.94,-3.93,3.80,0.89,-0.98,-0.38,
4.657,-0.94,-3.93,3.80,0.87,-0.88,-0.36,
4.657,-0.94,-3.93,3.80,0.83,-0.77,-0.34,
4.657,-0.98,-3.02,2.66,0.83,-0.77,-0.34,
4.657,-0.98,-3.02,2.66,0.77,-0.66,-0.33,
4.657,-0.98,-3.02,2.66,0.70,-0.56,-0.31,
4.658,-0.92,-2.18,1.89,0.70,-0.56,-0.31,
4.658,-0.92,-2.18,1.89,0.62,-0.47,-0.29,
4.658,-0.92,-2.18,1.89,0.54,-0.39,-0.26,
4.658,-1.13,-1.51,1.61,0.54,-0.39,-0.26,
4.659,-1.13,-1.51,1.61,0.46,-0.32,-0.23,
4.661,-1.38,-0.96,1.82,0.46,-0.32,-0.23,
4.662,-1.38,-0.96,1.82,0.38,-0.27,-0.20,
4.663,-1.38,-0.96,1.82,0.31,-0.23,-0.16,
4.666,-1.38,-0.96,1.82,0.25,-0.19,-0.11,
4.667,-1.78,-0.51,2.29,0.25,-0.19,-0.11,
4.668,-1.78,-0.51,2.29,0.20,-0.16,-0.06,
4.671,-1.78,-0.51,2.29,0.16,-0.12,-0.01,
4.671,-2.14,-0.05,2.79,0.16,-0.12,-0.01,
4.674,-2.14,-0.05,2.79,0.14,-0.08,0.04,
4.676,-2.14,-0.05,2.79,0.12,-0.04,0.09,
4.676,-2.34,0.43,3.21,0.12,-0.04,0.09,
4.679,-2.34,0.43,3.21,0.11,-0.00,0.14,
4.681,-2.61,0.94,3.51,0.11,-0.00,0.14,
4.682,-2.61,0.94,3.51,0.11,0.04,0.19,
4.683,-2.61,0.94,3.51,0.11,0.08,0.24,
4.686,-2.83,1.39,3.63,0.11,0.08,0.24,
4.686,-2.83,1.39,3.63,0.11,0.12,0.29,
4.688,-2.83,1.39,3.63,0.12,0.16,0.34,
4.697,-2.83,1.39,3.63,0.12,0.18,0.39,
4.697,-3.09,1.72,3.61,0.12,0.18,0.39,
4.697,-3.09,1.72,3.61,0.12,0.19,0.44,
4.699,-3.10,1.93,3.46,0.12,0.19,0.44,
4.7,-3.10,1.93,3.46,0.11,0.19,0.49,
4.7,-3.10,1.93,3.46,0.11,0.19,0.54,
4.701,-3.10,1.93,3.46,0.09,0.18,0.59,
4.702,-3.17,2.12,3.32,0.09,0.18,0.59,
4.704,-3.17,2.12,3.32,0.08,0.19,0.64,
4.709,-3.28,2.26,3.12,0.08,0.19,0.64,
4.709,-3.28,2.26,3.12,0.06,0.19,0.70,
4.71,-3.28,2.26,3.12,0.03,0.20,0.75,
4.711,-3.28,2.26,3.12,0.01,0.21,0.79,
4.714,-2.97,2.07,2.82,0.01,0.21,0.79,
4.714,-2.97,2.07,2.82,-0.03,0.22,0.82,
4.717,-2.97,2.07,2.82,-0.06,0.23,0.86,
4.717,-2.49,1.90,2.51,-0.06,0.23,0.86,
4.719,-2.49,1.90,2.51,-0.10,0.25,0.87,
4.722,-2.49,1.90,2.51,-0.14,0.26,0.87,
4.722,-1.64,1.63,2.23,-0.14,0.26,0.87,
4.726,-1.64,1.63,2.23,-0.17,0.29,0.84,
4.726,-1.64,1.63,2.23,-0.20,0.32,0.79,
4.726,-0.68,1.46,2.06,-0.20,0.32,0.79,
4.728,-0.68,1.46,2.06,-0.24,0.35,0.73,
4.731,-0.16,1.09,1.76,-0.24,0.35,0.73,
4.732,-0.16,1.09,1.76,-0.27,0.39,0.66,
4.734,-0.16,1.09,1.76,-0.31,0.44,0.60,
4.736,0.01,0.76,1.22,-0.31,0.44,0.60,
4.737,0.01,0.76,1.22,-0.35,0.49,0.54,
4.738,0.01,0.76,1.22,-0.39,0.53,0.50,
4.742,0.01,0.76,1.22,-0.42,0.57,0.46,
4.742,0.16,0.48,0.84,-0.42,0.57,0.46,
4.745,0.16,0.48,0.84,-0.46,0.59,0.43,
4.746,0.38,0.45,0.56,-0.46,0.59,0.43,
4.746,0.38,0.45,0.56,-0.49,0.59,0.39,
4.748,0.38,0.45,0.56,-0.51,0.59,0.35,
4.751,0.38,0.45,0.56,-0.54,0.57,0.31,
4.751,0.87,0.50,0.26,-0.54,0.57,0.31,
4.753,0.87,0.50,0.26,-0.56,0.54,0.25,
4.757,0.87,0.50,0.26,-0.57,0.51,0.20,
4.758,1.21,0.59,0.07,-0.57,0.51,0.20,
4.759,1.21,0.59,0.07,-0.57,0.47,0.15,
4.761,1.21,0.59,0.07,-0.56,0.42,0.12,
4.761,1.30,0.73,0.47,-0.56,0.42,0.12,
4.763,1.30,0.73,0.47,-0.52,0.37,0.08,
4.765,1.30,0.73,0.47,-0.48,0.31,0.05,
4.766,1.67,0.70,0.77,-0.48,0.31,0.05,
4.771,2.26,0.37,0.81,-0.48,0.31,0.05,
4.773,2.26,0.37,0.81,-0.43,0.24,0.02,
4.773,2.26,0.37,0.81,-0.37,0.16,-0.01,
4.774,2.26,0.37,0.81,-0.31,0.08,-0.04,
4.776,2.26,0.37,0.81,-0.25,0.01,-0.07,
4.776,2.58,0.15,0.70,-0.25,0.01,-0.07,
4.778,2.58,0.15,0.70,-0.18,-0.06,-0.10,
4.78,2.58,0.15,0.70,-0.11,-0.11,-0.12,
4.781,2.70,0.03,0.71,-0.11,-0.11,-0.12,
4.783,2.70,0.03,0.71,-0.04,-0.16,-0.14,
4.785,2.70,0.03,0.71,0.04,-0.21,-0.15,
4.786,2.85,0.03,0.57,0.04,-0.21,-0.15,
4.809,2.85,0.03,0.57,0.10,-0.26,-0.17,
4.809,3.10,0.24,0.23,0.10,-0.26,-0.17,
4.809,3.10,0.24,0.23,0.16,-0.31,-0.18,
4.81,3.10,0.24,0.23,0.21,-0.35,-0.20,
4.81,3.10,0.24,0.23,0.25,-0.38,-0.21,
4.81,3.09,0.54,-0.12,0.25,-0.38,-0.21,
4.81,3.09,0.54,-0.12,0.28,-0.41,-0.22,
4.81,3.09,0.54,-0.12,0.29,-0.45,-0.22,
4.811,2.94,0.98,-0.41,0.29,-0.45,-0.22,
4.811,2.94,0.98,-0.41,0.29,-0.49,-0.22,
4.811,2.94,0.98,-0.41,0.29,-0.52,-0.22,
4.811,2.85,1.42,-0.50,0.29,-0.52,-0.22,
4.812,2.85,1.42,-0.50,0.28,-0.54,-0.22,
4.812,2.71,1.72,-0.52,0.28,-0.54,-0.22,
4.812,2.71,1.72,-0.52,0.27,-0.56,-0.21,
4.812,2.71,1.72,-0.52,0.25,-0.57,-0.20,
4.816,2.71,1.72,-0.52,0.22,-0.59,-0.19,
4.816,2.64,1.98,-0.37,0.22,-0.59,-0.19,
4.819,2.64,1.98,-0.37,0.20,-0.62,-0.17,
4.82,2.64,1.98,-0.37,0.17,-0.64,-0.15,
4.82,2.45,2.14,-0.23,0.17,-0.64,-0.15,
4.829,2.45,2.14,-0.23,0.15,-0.66,-0.13,
4.83,2.30,2.25,-0.06,0.15,-0.66,-0.13,
4.83,2.30,2.25,-0.06,0.12,-0.68,-0.10,
4.831,2.30,2.25,-0.06,0.09,-0.69,-0.08,
4.831,2.30,2.25,-0.06,0.06,-0.71,-0.06,
4.831,2.10,2.40,0.16,0.06,-0.71,-0.06,
4.832,2.10,2.40,0.16,0.04,-0.72,-0.03,
4.835,2.10,2.40,0.16,0.01,-0.74,-0.01,
4.835,1.89,2.52,0.42,0.01,-0.74,-0.01,
4.838,1.89,2.52,0.42,-0.02,-0.77,0.02,
4.843,1.79,2.58,0.57,-0.02,-0.77,0.02,
4.843,1.79,2.58,0.57,-0.05,-0.80,0.05,
4.843,1.79,2.58,0.57,-0.08,-0.83,0.08,
4.845,1.79,2.58,0.57,-0.11,-0.86,0.11,
4.846,1.75,2.59,0.54,-0.11,-0.86,0.11,
4.848,1.75,2.59,0.54,-0.14,-0.88,0.13,
4.849,1.75,2.59,0.54,-0.18,-0.89,0.14,
4.85,1.63,2.53,0.36,-0.18,-0.89,0.14,
4.853,1.63,2.53,0.36,-0.22,-0.88,0.16,
4.855,1.51,2.53,0.18,-0.22,-0.88,0.16,
4.855,1.51,2.53,0.18,-0.25,-0.87,0.18,
4.859,1.51,2.53,0.18,-0.29,-0.86,0.19,
4.86,1.42,2.43,0.14,-0.29,-0.86,0.19,
4.862,1.42,2.43,0.14,-0.33,-0.84,0.20,
4.862,1.42,2.43,0.14,-0.36,-0.82,0.21,
4.865,1.42,2.43,0.14,-0.39,-0.81,0.21,
4.865,1.42,2.36,0.17,-0.39,-0.81,0.21,
4.867,1.42,2.36,0.17,-0.41,-0.79,0.21,
4.869,1.42,2.36,0.17,-0.43,-0.77,0.21,
4.869,1.28,2.28,0.21,-0.43,-0.77,0.21,
4.872,1.28,2.28,0.21,-0.44,-0.75,0.21,
4.875,1.28,2.28,0.21,-0.45,-0.75,0.21,
4.875,1.17,2.17,0.20,-0.45,-0.75,0.21,
4.877,1.17,2.17,0.20,-0.46,-0.76,0.22,
4.879,1.17,2.17,0.20,-0.46,-0.78,0.23,
4.879,1.08,2.15,0.21,-0.46,-0.78,0.23,
4.882,1.08,2.15,0.21,-0.46,-0.82,0.24,
4.884,1.08,2.15,0.21,-0.45,-0.85,0.24,
4.884,0.86,1.99,0.17,-0.45,-0.85,0.24,
4.887,0.86,1.99,0.17,-0.44,-0.87,0.25,
4.895,0.86,1.99,0.17,-0.43,-0.89,0.26,
4.896,0.65,1.97,0.05,-0.43,-0.89,0.26,
4.898,0.65,1.97,0.05,-0.41,-0.91,0.29,
4.898,0.65,1.97,0.05,-0.39,-0.91,0.30,
4.9,0.44,1.84,-0.19,-0.39,-0.91,0.30,
4.901,0.44,1.84,-0.19,-0.37,-0.92,0.31,
4.901,0.44,1.84,-0.19,-0.35,-0.92,0.32,
4.901,0.22,1.56,-0.55,-0.35,-0.92,0.32,
4.902,0.22,1.56,-0.55,-0.33,-0.91,0.32,
4.904,0.22,1.56,-0.55,-0.32,-0.89,0.32,
4.905,-0.12,1.40,-0.89,-0.32,-0.89,0.32,
4.912,-0.12,1.40,-0.89,-0.31,-0.87,0.32,
4.912,-0.12,1.40,-0.89,-0.30,-0.85,0.33,
4.912,-0.48,1.32,-1.31,-0.30,-0.85,0.33,
4.912,-0.48,1.32,-1.31,-0.30,-0.82,0.35,
4.914,-0.48,1.32,-1.31,-0.29,-0.78,0.36,
4.915,-0.84,1.17,-1.58,-0.29,-0.78,0.36,
4.916,-0.84,1.17,-1.58,-0.28,-0.74,0.38,
4.919,-0.84,1.17,-1.58,-0.28,-0.70,0.37,
4.919,-1.02,0.85,-1.68,-0.28,-0.70,0.37,
4.921,-1.02,0.85,-1.68,-0.27,-0.67,0.37,
4.926,-1.02,0.85,-1.68,-0.27,-0.64,0.37,
4.926,-1.27,0.73,-1.71,-0.27,-0.64,0.37,
4.927,-1.27,0.73,-1.71,-0.27,-0.60,0.37,
4.929,-1.27,0.73,-1.71,-0.26,-0.56,0.38,
4.929,-1.49,0.54,-1.74,-0.26,-0.56,0.38,
4.931,-1.49,0.54,-1.74,-0.25,-0.53,0.39,
4.934,-1.49,0.54,-1.74,-0.25,-0.50,0.39,
4.934,-1.66,0.43,-1.79,-0.25,-0.50,0.39,
4.936,-1.66,0.43,-1.79,-0.24,-0.47,0.40,
4.939,-1.66,0.43,-1.79,-0.23,-0.44,0.40,
4.941,-1.89,0.52,-1.79,-0.23,-0.44,0.40,
4.942,-1.89,0.52,-1.79,-0.22,-0.42,0.41,
4.944,-1.89,0.52,-1.79,-0.22,-0.40,0.41,
4.944,-2.14,0.59,-1.83,-0.22,-0.40,0.41,
4.946,-2.14,0.59,-1.83,-0.21,-0.37,0.40,
4.949,-2.14,0.59,-1.83,-0.21,-0.35,0.39,
4.949,-2.34,0.66,-1.89,-0.21,-0.35,0.39,
4.951,-2.34,0.66,-1.89,-0.20,-0.33,0.39,
4.97,-2.34,0.66,-1.89,-0.20,-0.31,0.40,
4.97,-2.58,0.82,-1.97,-0.20,-0.31,0.40,
4.97,-2.58,0.82,-1.97,-0.20,-0.30,0.41,
4.971,-2.58,0.82,-1.97,-0.20,-0.30,0.43,
4.971,-2.77,0.99,-2.04,-0.20,-0.30,0.43,
4.971,-2.77,0.99,-2.04,-0.20,-0.31,0.44,
4.971,-2.77,0.99,-2.04,-0.20,-0.31,0.46,
4.971,-2.75,1.04,-2.06,-0.20,-0.31,0.46,
4.971,-2.75,1.04,-2.06,-0.20,-0.33,0.47,
4.972,-2.75,1.04,-2.06,-0.20,-0.34,0.48,
4.972,-2.75,1.25,-2.12,-0.20,-0.34,0.48,
4.972,-2.75,1.25,-2.12,-0.20,-0.34,0.50,
4.981,-2.75,1.25,-2.12,-0.20,-0.34,0.50,
4.981,-2.79,1.36,-2.01,-0.20,-0.34,0.50,
4.982,-2.79,1.36,-2.01,-0.20,-0.34,0.51,
4.982,-2.79,1.36,-2.01,-0.20,-0.35,0.52,
4.982,-2.74,1.48,-1.94,-0.20,-0.35,0.52,
4.982,-2.74,1.48,-1.94,-0.20,-0.35,0.52,
4.983,-2.74,1.48,-1.94,-0.19,-0.36,0.52,
4.983,-2.68,1.49,-1.71,-0.19,-0.36,0.52,
4.986,-2.68,1.49,-1.71,-0.19,-0.37,0.52,
4.988,-2.68,1.49,-1.71,-0.19,-0.36,0.52,
4.989,-2.62,1.56,-1.59,-0.19,-0.36,0.52,
4.992,-2.62,1.56,-1.59,-0.18,-0.36,0.51,
