
time,ax,ay,az,wx,wy,wz,
0.009,-0.29,0.19,-0.11,0.02,0.06,0.01,
0.009,-0.29,0.19,-0.11,0.02,0.06,0.02,
0.01,-0.29,0.19,-0.11,0.02,0.06,0.02,
0.01,-0.13,0.18,0.01,0.02,0.06,0.02,
0.01,-0.13,0.18,0.01,0.03,0.06,0.02,
0.01,-0.13,0.18,0.01,0.04,0.07,0.02,
0.01,-0.13,0.18,0.01,0.05,0.08,0.02,
0.01,-0.14,0.18,-0.02,0.05,0.08,0.02,
0.011,-0.14,0.18,-0.02,0.06,0.09,0.03,
0.012,-0.14,0.18,-0.02,0.07,0.10,0.03,
0.013,-0.05,0.14,-0.09,0.07,0.10,0.03,
0.014,-0.05,0.14,-0.09,0.08,0.11,0.03,
0.016,-0.05,0.14,-0.09,0.09,0.12,0.03,
0.017,0.10,0.06,-0.27,0.09,0.12,0.03,
0.02,0.10,0.06,-0.27,0.09,0.12,0.03,
0.021,0.10,0.06,-0.27,0.09,0.12,0.03,
0.021,-0.00,0.01,-0.41,0.09,0.12,0.03,
0.024,-0.00,0.01,-0.41,0.09,0.12,0.02,
0.026,-0.00,0.01,-0.41,0.09,0.11,0.02,
0.027,-0.03,-0.01,-0.53,0.09,0.11,0.02,
0.029,-0.03,-0.01,-0.53,0.08,0.11,0.02,
0.031,-0.03,-0.01,-0.53,0.07,0.10,0.02,
0.032,-0.01,-0.00,-0.55,0.07,0.10,0.02,
0.034,-0.01,-0.00,-0.55,0.05,0.08,0.02,
0.036,-0.03,0.02,-0.49,0.05,0.08,0.02,
0.037,-0.03,0.02,-0.49,0.04,0.07,0.02,
0.039,-0.03,0.02,-0.49,0.03,0.06,0.02,
0.041,-0.03,0.02,-0.49,0.02,0.04,0.02,
0.041,-0.08,0.01,-0.38,0.02,0.04,0.02,
0.045,-0.08,0.01,-0.38,0.01,0.03,0.02,
0.047,-0.16,0.02,-0.24,0.01,0.03,0.02,
0.047,-0.16,0.02,-0.24,0.00,0.02,0.02,
0.049,-0.16,0.02,-0.24,-0.01,0.01,0.02,
0.051,-0.16,0.02,-0.24,-0.01,-0.01,0.03,
0.052,-0.19,0.02,-0.20,-0.01,-0.01,0.03,
0.054,-0.19,0.02,-0.20,-0.02,-0.02,0.03,
0.056,-0.19,0.02,-0.20,-0.03,-0.03,0.03,
0.056,-0.17,0.04,-0.16,-0.03,-0.03,0.03,
0.058,-0.17,0.04,-0.16,-0.04,-0.04,0.04,
0.063,-0.14,0.04,-0.14,-0.04,-0.04,0.04,
0.063,-0.14,0.04,-0.14,-0.05,-0.05,0.04,
0.065,-0.14,0.04,-0.14,-0.06,-0.06,0.04,
0.066,-0.14,0.04,-0.14,-0.07,-0.07,0.04,
0.066,-0.11,0.04,-0.08,-0.07,-0.07,0.04,
0.069,-0.11,0.04,-0.08,-0.07,-0.07,0.04,
0.071,-0.11,0.04,-0.08,-0.07,-0.07,0.04,
0.072,-0.08,0.02,0.00,-0.07,-0.07,0.04,
0.074,-0.08,0.02,0.00,-0.08,-0.07,0.04,
0.076,-0.05,0.03,0.07,-0.08,-0.07,0.04,
0.077,-0.05,0.03,0.07,-0.08,-0.07,0.05,
0.087,-0.05,0.03,0.07,-0.08,-0.06,0.05,
0.087,-0.02,0.01,0.11,-0.08,-0.06,0.05,
0.087,-0.02,0.01,0.11,-0.08,-0.06,0.05,
0.088,-0.02,0.01,0.11,-0.07,-0.05,0.04,
0.088,-0.02,0.01,0.11,-0.07,-0.05,0.04,
0.088,-0.02,0.00,0.12,-0.07,-0.05,0.04,
0.088,-0.02,0.00,0.12,-0.07,-0.04,0.04,
0.091,-0.02,0.00,0.12,-0.07,-0.04,0.04,
0.091,-0.03,0.03,0.11,-0.07,-0.04,0.04,
0.095,-0.03,0.03,0.11,-0.06,-0.03,0.04,
0.096,-0.05,0.06,0.06,-0.06,-0.03,0.04,
0.097,-0.05,0.06,0.06,-0.06,-0.03,0.04,
0.098,-0.05,0.06,0.06,-0.06,-0.02,0.05,
0.101,-0.05,0.06,0.06,-0.06,-0.02,0.05,
0.101,-0.07,0.04,0.01,-0.06,-0.02,0.05,
0.103,-0.07,0.04,0.01,-0.06,-0.02,0.05,
0.106,-0.07,0.04,0.01,-0.06,-0.01,0.05,
0.106,-0.09,0.04,-0.03,-0.06,-0.01,0.05,
0.108,-0.09,0.04,-0.03,-0.06,-0.01,0.05,
0.112,-0.11,0.03,-0.06,-0.06,-0.01,0.05,
0.112,-0.11,0.03,-0.06,-0.07,-0.01,0.05,
0.114,-0.11,0.03,-0.06,-0.07,-0.02,0.05,
0.116,-0.11,0.03,-0.06,-0.08,-0.02,0.05,
0.116,-0.10,0.03,-0.06,-0.08,-0.02,0.05,
0.118,-0.10,0.03,-0.06,-0.08,-0.02,0.05,
0.121,-0.10,0.03,-0.06,-0.09,-0.02,0.04,
0.121,-0.12,0.02,-0.13,-0.09,-0.02,0.04,
0.123,-0.12,0.02,-0.13,-0.09,-0.03,0.04,
0.126,-0.12,0.02,-0.13,-0.10,-0.04,0.04,
0.127,-0.09,0.03,-0.08,-0.10,-0.04,0.04,
0.133,-0.09,0.03,-0.08,-0.10,-0.04,0.04,
0.133,-0.09,0.03,-0.08,-0.10,-0.04,0.03,
0.134,-0.10,0.02,-0.06,-0.10,-0.04,0.03,
0.134,-0.10,0.02,-0.06,-0.10,-0.04,0.03,
0.136,-0.14,0.03,0.00,-0.10,-0.04,0.03,
0.136,-0.14,0.03,0.00,-0.10,-0.04,0.03,
0.138,-0.14,0.03,0.00,-0.10,-0.04,0.04,
0.141,-0.24,0.05,0.07,-0.10,-0.04,0.04,
0.141,-0.24,0.05,0.07,-0.10,-0.03,0.04,
0.143,-0.24,0.05,0.07,-0.09,-0.03,0.04,
0.146,-0.24,0.05,0.07,-0.09,-0.03,0.04,
0.146,-0.24,0.02,0.13,-0.09,-0.03,0.04,
0.149,-0.24,0.02,0.13,-0.08,-0.02,0.04,
0.151,-0.24,0.02,0.13,-0.07,-0.02,0.04,
0.151,-0.23,-0.01,0.13,-0.07,-0.02,0.04,
0.153,-0.23,-0.01,0.13,-0.07,-0.02,0.04,
0.155,-0.23,-0.01,0.13,-0.06,-0.01,0.04,
0.155,-0.22,-0.03,0.12,-0.06,-0.01,0.04,
0.158,-0.22,-0.03,0.12,-0.05,-0.01,0.03,
0.163,-0.22,-0.03,0.12,-0.04,0.00,0.03,
0.164,-0.19,-0.06,0.10,-0.04,0.00,0.03,
0.164,-0.19,-0.06,0.10,-0.04,0.01,0.04,
0.166,-0.19,-0.06,0.10,-0.03,0.02,0.04,
0.166,-0.22,-0.04,0.10,-0.03,0.02,0.04,
0.168,-0.22,-0.04,0.10,-0.02,0.03,0.04,
0.17,-0.22,-0.04,0.10,-0.01,0.04,0.04,
0.171,-0.23,-0.05,0.06,-0.01,0.04,0.04,
0.173,-0.23,-0.05,0.06,-0.01,0.05,0.04,
0.175,-0.23,-0.05,0.06,-0.00,0.06,0.05,
0.185,-0.21,-0.04,-0.00,-0.00,0.06,0.05,
0.185,-0.21,-0.04,-0.00,0.00,0.06,0.05,
0.186,-0.20,-0.05,-0.10,0.00,0.06,0.05,
0.186,-0.20,-0.05,-0.10,0.00,0.07,0.05,
0.186,-0.20,-0.05,-0.10,0.01,0.08,0.05,
0.186,-0.18,-0.02,-0.18,0.01,0.08,0.05,
0.186,-0.18,-0.02,-0.18,0.01,0.09,0.04,
0.188,-0.18,-0.02,-0.18,0.01,0.09,0.04,
0.19,-0.18,-0.02,-0.18,0.00,0.10,0.04,
0.19,-0.19,0.01,-0.19,0.00,0.10,0.04,
0.192,-0.19,0.01,-0.19,0.00,0.10,0.04,
0.195,-0.21,0.02,-0.27,0.00,0.10,0.04,
0.195,-0.21,0.02,-0.27,-0.00,0.11,0.04,
0.197,-0.21,0.02,-0.27,-0.01,0.11,0.04,
0.2,-0.21,0.02,-0.27,-0.01,0.12,0.04,
0.201,-0.23,0.11,-0.32,-0.01,0.12,0.04,
0.202,-0.23,0.11,-0.32,-0.02,0.12,0.04,
0.205,-0.23,0.11,-0.32,-0.03,0.13,0.04,
0.205,-0.24,0.13,-0.38,-0.03,0.13,0.04,
0.208,-0.24,0.13,-0.38,-0.03,0.14,0.04,
0.211,-0.24,0.13,-0.38,-0.04,0.14,0.04,
0.211,-0.28,0.11,-0.41,-0.04,0.14,0.04,
0.213,-0.28,0.11,-0.41,-0.04,0.15,0.04,
0.215,-0.32,0.11,-0.40,-0.04,0.15,0.04,
0.215,-0.32,0.11,-0.40,-0.05,0.16,0.04,
0.217,-0.32,0.11,-0.40,-0.05,0.17,0.04,
0.22,-0.32,0.11,-0.40,-0.06,0.18,0.03,
0.22,-0.32,0.13,-0.41,-0.06,0.18,0.03,
0.222,-0.32,0.13,-0.41,-0.06,0.19,0.03,
0.225,-0.32,0.13,-0.41,-0.07,0.20,0.03,
0.225,-0.35,0.17,-0.37,-0.07,0.20,0.03,
0.227,-0.35,0.17,-0.37,-0.07,0.21,0.02,
0.231,-0.35,0.17,-0.37,-0.07,0.23,0.02,
0.231,-0.34,0.20,-0.30,-0.07,0.23,0.02,
0.232,-0.34,0.20,-0.30,-0.07,0.24,0.02,
0.235,-0.36,0.18,-0.27,-0.07,0.24,0.02,
0.235,-0.36,0.18,-0.27,-0.07,0.25,0.01,
0.237,-0.36,0.18,-0.27,-0.07,0.26,0.01,
0.24,-0.36,0.18,-0.27,-0.06,0.27,0.00,
0.241,-0.42,0.13,-0.28,-0.06,0.27,0.00,
0.243,-0.42,0.13,-0.28,-0.06,0.27,-0.00,
0.245,-0.47,0.08,-0.34,-0.06,0.27,-0.00,
0.245,-0.47,0.08,-0.34,-0.06,0.28,-0.01,
0.247,-0.47,0.08,-0.34,-0.06,0.28,-0.02,
0.25,-0.47,0.08,-0.34,-0.06,0.28,-0.03,
0.25,-0.56,0.04,-0.42,-0.06,0.28,-0.03,
0.252,-0.56,0.04,-0.42,-0.06,0.29,-0.04,
0.254,-0.56,0.04,-0.42,-0.06,0.29,-0.05,
0.255,-0.68,0.01,-0.49,-0.06,0.29,-0.05,
0.257,-0.68,0.01,-0.49,-0.07,0.30,-0.06,
0.26,-0.85,-0.06,-0.54,-0.07,0.30,-0.06,
0.26,-0.85,-0.06,-0.54,-0.07,0.30,-0.07,
0.262,-0.85,-0.06,-0.54,-0.07,0.30,-0.08,
0.265,-1.33,-0.03,-0.57,-0.07,0.30,-0.08,
0.265,-1.33,-0.03,-0.57,-0.07,0.31,-0.09,
0.267,-1.33,-0.03,-0.57,-0.07,0.32,-0.10,
0.27,-1.33,-0.03,-0.57,-0.07,0.33,-0.11,
0.27,-1.20,-0.10,-0.62,-0.07,0.33,-0.11,
0.272,-1.20,-0.10,-0.62,-0.07,0.34,-0.13,
0.274,-1.20,-0.10,-0.62,-0.07,0.35,-0.16,
0.274,-1.09,-0.25,-0.76,-0.07,0.35,-0.16,
0.277,-1.09,-0.25,-0.76,-0.06,0.36,-0.19,
0.286,-1.27,-0.45,-0.86,-0.06,0.36,-0.19,
0.286,-1.27,-0.45,-0.86,-0.06,0.37,-0.22,
0.286,-1.27,-0.45,-0.86,-0.06,0.38,-0.24,
0.286,-1.27,-0.45,-0.86,-0.06,0.39,-0.27,
0.287,-1.62,-0.56,-1.16,-0.06,0.39,-0.27,
0.287,-1.62,-0.56,-1.16,-0.07,0.42,-0.29,
0.289,-1.62,-0.56,-1.16,-0.07,0.44,-0.31,
0.29,-1.73,-0.69,-1.19,-0.07,0.44,-0.31,
0.292,-1.73,-0.69,-1.19,-0.06,0.46,-0.33,
0.295,-1.73,-0.69,-1.19,-0.06,0.49,-0.36,
0.295,-1.74,-0.84,-1.26,-0.06,0.49,-0.36,
0.298,-1.74,-0.84,-1.26,-0.05,0.52,-0.39,
0.299,-1.74,-0.84,-1.26,-0.05,0.56,-0.41,
0.3,-1.99,-0.86,-1.47,-0.05,0.56,-0.41,
0.302,-1.99,-0.86,-1.47,-0.04,0.61,-0.43,
0.304,-1.99,-0.86,-1.47,-0.04,0.67,-0.45,
0.305,-2.36,-0.84,-1.77,-0.04,0.67,-0.45,
0.307,-2.36,-0.84,-1.77,-0.03,0.73,-0.46,
0.309,-2.36,-0.84,-1.77,-0.03,0.80,-0.48,
0.31,-2.59,-0.71,-2.06,-0.03,0.80,-0.48,
0.316,-2.59,-0.71,-2.06,-0.03,0.89,-0.51,
0.317,-2.59,-0.71,-2.06,-0.04,0.96,-0.53,
0.317,-2.62,-0.87,-2.26,-0.04,0.96,-0.53,
0.317,-2.62,-0.87,-2.26,-0.03,1.03,-0.56,
0.319,-2.19,-2.52,-2.79,-0.03,1.03,-0.56,
0.319,-2.19,-2.52,-2.79,-0.05,1.14,-0.67,
0.321,-2.19,-2.52,-2.79,-0.08,1.30,-0.91,
0.324,-1.76,-2.87,-2.70,-0.08,1.30,-0.91,
0.324,-1.76,-2.87,-2.70,-0.12,1.44,-1.14,
0.326,-1.76,-2.87,-2.70,-0.13,1.55,-1.32,
0.329,-1.76,-2.87,-2.70,-0.13,1.64,-1.46,
0.329,-1.96,-2.02,-2.38,-0.13,1.64,-1.46,
0.334,-1.96,-2.02,-2.38,-0.12,1.71,-1.55,
0.334,-2.22,-1.72,-2.25,-0.12,1.71,-1.55,
0.335,-2.22,-1.72,-2.25,-0.10,1.75,-1.62,
0.336,-2.22,-1.72,-2.25,-0.07,1.80,-1.65,
0.34,-2.74,-1.64,-2.19,-0.07,1.80,-1.65,
0.34,-2.74,-1.64,-2.19,-0.02,1.85,-1.66,
0.364,-2.74,-1.64,-2.19,0.02,1.89,-1.64,
0.365,-3.10,-1.88,-2.15,0.02,1.89,-1.64,
0.365,-3.10,-1.88,-2.15,0.07,1.93,-1.60,
0.365,-3.10,-1.88,-2.15,0.12,1.96,-1.56,
0.365,-3.06,-2.72,-2.34,0.12,1.96,-1.56,
0.366,-3.06,-2.72,-2.34,0.16,1.99,-1.52,
0.366,-3.06,-2.72,-2.34,0.20,2.03,-1.47,
0.366,-3.28,-1.93,-2.35,0.20,2.03,-1.47,
0.366,-3.28,-1.93,-2.35,0.24,2.06,-1.41,
0.367,-3.28,-1.93,-2.35,0.30,2.11,-1.35,
0.367,-3.07,-1.40,-2.24,0.30,2.11,-1.35,
0.367,-3.07,-1.40,-2.24,0.37,2.19,-1.29,
0.367,-3.07,-1.40,-2.24,0.45,2.26,-1.24,
0.368,-2.84,-1.16,-2.26,0.45,2.26,-1.24,
0.368,-2.84,-1.16,-2.26,0.52,2.34,-1.19,
0.368,-2.84,-1.16,-2.26,0.59,2.44,-1.16,
0.369,-2.50,-1.36,-2.37,0.59,2.44,-1.16,
0.369,-2.50,-1.36,-2.37,0.67,2.55,-1.14,
0.372,-2.50,-1.36,-2.37,0.74,2.66,-1.13,
0.374,-2.08,-1.89,-2.39,0.74,2.66,-1.13,
0.374,-2.08,-1.89,-2.39,0.82,2.77,-1.13,
0.376,-2.08,-1.89,-2.39,0.89,2.87,-1.13,
0.38,-1.77,-2.41,-2.40,0.89,2.87,-1.13,
0.38,-1.77,-2.41,-2.40,0.97,2.96,-1.15,
0.381,-1.77,-2.41,-2.40,1.05,3.05,-1.17,
0.383,-1.77,-2.41,-2.40,1.12,3.15,-1.20,
0.383,-1.52,-2.88,-2.49,1.12,3.15,-1.20,
0.386,-1.52,-2.88,-2.49,1.19,3.24,-1.24,
0.389,-1.15,-3.28,-2.67,1.19,3.24,-1.24,
0.389,-1.15,-3.28,-2.67,1.25,3.35,-1.29,
0.392,-1.15,-3.28,-2.67,1.31,3.46,-1.35,
0.393,-0.75,-3.62,-2.86,1.31,3.46,-1.35,
0.394,-0.75,-3.62,-2.86,1.36,3.58,-1.42,
0.398,-0.75,-3.62,-2.86,1.41,3.71,-1.50,
0.399,-0.39,-3.89,-2.92,1.41,3.71,-1.50,
0.399,-0.39,-3.89,-2.92,1.46,3.83,-1.57,
0.403,-0.39,-3.89,-2.92,1.51,3.94,-1.65,
0.403,-0.39,-3.89,-2.92,1.56,4.05,-1.72,
0.404,-0.10,-4.19,-2.82,1.56,4.05,-1.72,
0.407,-0.10,-4.19,-2.82,1.60,4.16,-1.80,
0.409,0.19,-4.55,-2.71,1.60,4.16,-1.80,
0.409,0.19,-4.55,-2.71,1.65,4.26,-1.88,
0.411,0.19,-4.55,-2.71,1.70,4.37,-1.98,
0.414,0.62,-4.95,-2.64,1.70,4.37,-1.98,
0.417,0.62,-4.95,-2.64,1.75,4.48,-2.08,
0.417,0.62,-4.95,-2.64,1.80,4.58,-2.18,
0.419,0.62,-4.95,-2.64,1.85,4.69,-2.28,
0.419,0.99,-5.23,-2.57,1.85,4.69,-2.28,
0.42,0.99,-5.23,-2.57,1.90,4.78,-2.37,
0.424,1.11,-5.39,-2.47,1.90,4.78,-2.37,
0.424,1.11,-5.39,-2.47,1.96,4.87,-2.46,
0.426,1.11,-5.39,-2.47,2.02,4.96,-2.54,
0.428,1.11,-5.39,-2.47,2.07,5.05,-2.61,
0.429,1.08,-5.47,-2.38,2.07,5.05,-2.61,
0.43,1.08,-5.47,-2.38,2.13,5.15,-2.68,
0.433,0.87,-5.56,-2.24,2.13,5.15,-2.68,
0.433,0.87,-5.56,-2.24,2.19,5.26,-2.75,
0.435,0.87,-5.56,-2.24,2.24,5.37,-2.82,
0.438,0.87,-5.56,-2.24,2.30,5.47,-2.88,
0.438,0.71,-5.60,-1.97,2.30,5.47,-2.88,
0.44,0.71,-5.60,-1.97,2.36,5.56,-2.94,
0.443,0.71,-5.60,-1.97,2.42,5.64,-3.01,
0.443,0.79,-5.63,-1.64,2.42,5.64,-3.01,
0.445,0.79,-5.63,-1.64,2.48,5.71,-3.07,
0.448,1.00,-5.80,-1.40,2.48,5.71,-3.07,
0.448,1.00,-5.80,-1.40,2.53,5.78,-3.14,
0.45,1.00,-5.80,-1.40,2.59,5.85,-3.22,
0.453,1.00,-5.80,-1.40,2.64,5.92,-3.30,
0.453,1.28,-6.05,-1.25,2.64,5.92,-3.30,
0.455,1.28,-6.05,-1.25,2.69,6.00,-3.38,
0.458,1.28,-6.05,-1.25,2.74,6.08,-3.48,
0.458,1.55,-6.27,-1.15,2.74,6.08,-3.48,
0.46,1.55,-6.27,-1.15,2.78,6.14,-3.56,
0.464,1.55,-6.27,-1.15,2.84,6.16,-3.64,
0.465,1.72,-6.55,-0.94,2.84,6.16,-3.64,
0.465,1.72,-6.55,-0.94,2.89,6.16,-3.72,
0.468,1.72,-6.55,-0.94,2.95,6.15,-3.79,
0.468,1.83,-6.84,-0.81,2.95,6.15,-3.79,
0.47,1.83,-6.84,-0.81,3.00,6.14,-3.88,
0.473,1.83,-6.84,-0.81,3.04,6.13,-3.97,
0.473,2.21,-7.07,-0.78,3.04,6.13,-3.97,
0.475,2.21,-7.07,-0.78,3.07,6.12,-4.07,
0.478,2.21,-7.07,-0.78,3.11,6.09,-4.17,
0.478,2.46,-7.30,-0.68,3.11,6.09,-4.17,
0.48,2.46,-7.30,-0.68,3.13,6.05,-4.27,
0.483,2.60,-7.45,-0.53,3.13,6.05,-4.27,
0.483,2.60,-7.45,-0.53,3.16,6.00,-4.35,
0.485,2.60,-7.45,-0.53,3.18,5.94,-4.44,
0.487,2.60,-7.45,-0.53,3.20,5.86,-4.53,
0.488,2.80,-7.67,-0.40,3.20,5.86,-4.53,
0.49,2.80,-7.67,-0.40,3.22,5.77,-4.61,
0.492,2.80,-7.67,-0.40,3.23,5.69,-4.70,
0.493,3.09,-7.97,-0.41,3.23,5.69,-4.70,
0.495,3.09,-7.97,-0.41,3.24,5.61,-4.79,
0.499,3.09,-7.97,-0.41,3.24,5.55,-4.89,
0.5,3.38,-8.26,-0.47,3.24,5.55,-4.89,
0.5,3.38,-8.26,-0.47,3.24,5.49,-4.99,
0.503,3.38,-8.26,-0.47,3.24,5.44,-5.11,
0.503,3.69,-8.56,-0.47,3.24,5.44,-5.11,
0.505,3.69,-8.56,-0.47,3.23,5.39,-5.22,
0.524,3.69,-8.56,-0.47,3.22,5.34,-5.35,
0.525,3.96,-8.92,-0.29,3.22,5.34,-5.35,
0.525,3.96,-8.92,-0.29,3.21,5.28,-5.48,
0.526,3.96,-8.92,-0.29,3.21,5.23,-5.62,
0.526,4.05,-9.25,0.06,3.21,5.23,-5.62,
0.526,4.05,-9.25,0.06,3.20,5.17,-5.77,
0.527,4.05,-9.25,0.06,3.20,5.11,-5.91,
0.527,3.93,-9.44,0.58,3.20,5.11,-5.91,
0.527,3.93,-9.44,0.58,3.20,5.04,-6.06,
0.528,3.93,-9.44,0.58,3.21,4.97,-6.20,
0.528,3.53,-9.44,1.16,3.21,4.97,-6.20,
0.528,3.53,-9.44,1.16,3.22,4.91,-6.33,
0.528,3.53,-9.44,1.16,3.23,4.85,-6.46,
0.529,2.80,-9.37,1.75,3.23,4.85,-6.46,
0.53,2.80,-9.37,1.75,3.25,4.78,-6.57,
0.534,2.80,-9.37,1.75,3.27,4.70,-6.68,
0.534,1.85,-9.14,2.48,3.27,4.70,-6.68,
0.535,1.85,-9.14,2.48,3.30,4.61,-6.77,
0.537,1.85,-9.14,2.48,3.32,4.49,-6.85,
0.538,0.94,-8.82,3.17,3.32,4.49,-6.85,
0.539,0.94,-8.82,3.17,3.35,4.36,-6.92,
0.542,0.94,-8.82,3.17,3.38,4.22,-6.99,
0.542,0.16,-8.54,3.71,3.38,4.22,-6.99,
0.549,0.16,-8.54,3.71,3.40,4.08,-7.05,
0.55,-0.50,-8.04,3.85,3.40,4.08,-7.05,
0.551,-0.50,-8.04,3.85,3.40,3.96,-7.12,
0.551,-0.50,-8.04,3.85,3.39,3.85,-7.19,
0.552,-1.08,-7.56,4.02,3.39,3.85,-7.19,
0.554,-1.08,-7.56,4.02,3.38,3.70,-7.24,
0.555,-1.08,-7.56,4.02,3.38,3.52,-7.28,
0.558,-1.08,-7.56,4.02,3.38,3.32,-7.30,
0.558,-1.91,-7.25,4.02,3.38,3.32,-7.30,
0.561,-1.91,-7.25,4.02,3.37,3.12,-7.31,
0.563,-1.91,-7.25,4.02,3.37,2.91,-7.33,
0.564,-2.65,-7.00,3.99,3.37,2.91,-7.33,
0.567,-2.65,-7.00,3.99,3.35,2.71,-7.37,
0.567,-2.65,-7.00,3.99,3.33,2.53,-7.37,
0.567,-3.58,-6.11,3.80,3.33,2.53,-7.37,
0.569,-3.58,-6.11,3.80,3.30,2.36,-7.33,
0.572,-3.58,-6.11,3.80,3.28,2.19,-7.27,
0.572,-4.47,-4.99,3.56,3.28,2.19,-7.27,
0.574,-4.47,-4.99,3.56,3.24,2.02,-7.19,
0.576,-4.47,-4.99,3.56,3.20,1.86,-7.09,
0.577,-5.21,-3.95,3.04,3.20,1.86,-7.09,
0.582,-5.21,-3.95,3.04,3.14,1.71,-6.98,
0.583,-5.21,-3.95,3.04,3.08,1.56,-6.88,
0.583,-5.73,-3.23,2.54,3.08,1.56,-6.88,
0.585,-5.73,-3.23,2.54,3.01,1.41,-6.78,
0.587,-5.73,-3.23,2.54,2.94,1.25,-6.69,
0.587,-6.09,-2.46,2.19,2.94,1.25,-6.69,
0.589,-6.09,-2.46,2.19,2.85,1.07,-6.59,
0.592,-6.09,-2.46,2.19,2.76,0.89,-6.48,
0.592,-6.45,-1.52,1.85,2.76,0.89,-6.48,
0.594,-6.45,-1.52,1.85,2.67,0.71,-6.37,
0.601,-6.45,-1.52,1.85,2.55,0.53,-6.26,
0.601,-6.82,-0.54,1.42,2.55,0.53,-6.26,
0.602,-6.82,-0.54,1.42,2.43,0.34,-6.15,
0.602,-6.82,-0.54,1.42,2.30,0.15,-6.02,
0.602,-7.24,0.50,1.11,2.30,0.15,-6.02,
0.604,-7.24,0.50,1.11,2.15,-0.04,-5.89,
0.606,-7.24,0.50,1.11,1.99,-0.23,-5.75,
0.606,-7.70,1.36,0.93,1.99,-0.23,-5.75,
0.61,-7.70,1.36,0.93,1.82,-0.42,-5.60,
0.613,-8.05,2.04,0.99,1.82,-0.42,-5.60,
0.613,-8.05,2.04,0.99,1.64,-0.60,-5.46,
0.616,-8.05,2.04,0.99,1.46,-0.78,-5.31,
0.616,-8.49,2.54,1.41,1.46,-0.78,-5.31,
0.617,-8.49,2.54,1.41,1.27,-0.95,-5.17,
0.619,-8.49,2.54,1.41,1.09,-1.12,-5.04,
0.622,-9.01,2.96,2.21,1.09,-1.12,-5.04,
0.622,-9.01,2.96,2.21,0.92,-1.30,-4.92,
0.624,-9.01,2.96,2.21,0.77,-1.48,-4.80,
0.626,-9.01,2.96,2.21,0.63,-1.65,-4.67,
0.626,-9.82,3.44,3.19,0.63,-1.65,-4.67,
0.63,-9.82,3.44,3.19,0.51,-1.82,-4.55,
0.631,-9.82,3.44,3.19,0.41,-1.99,-4.42,
0.632,-10.85,4.03,4.13,0.41,-1.99,-4.42,
0.634,-10.85,4.03,4.13,0.32,-2.14,-4.27,
0.637,-10.85,4.03,4.13,0.26,-2.28,-4.12,
0.637,-11.94,4.75,4.76,0.26,-2.28,-4.12,
0.639,-11.94,4.75,4.76,0.21,-2.39,-3.96,
0.641,-11.94,4.75,4.76,0.18,-2.47,-3.80,
0.641,-12.83,5.44,5.07,0.18,-2.47,-3.80,
0.644,-12.83,5.44,5.07,0.17,-2.52,-3.63,
0.647,-12.83,5.44,5.07,0.16,-2.54,-3.46,
0.647,-13.35,5.90,5.16,0.16,-2.54,-3.46,
0.649,-13.35,5.90,5.16,0.17,-2.53,-3.29,
0.651,-13.74,6.33,5.18,0.17,-2.53,-3.29,
0.652,-13.74,6.33,5.18,0.19,-2.50,-3.12,
0.654,-13.74,6.33,5.18,0.23,-2.45,-2.93,
0.656,-14.08,6.69,5.17,0.23,-2.45,-2.93,
0.656,-14.08,6.69,5.17,0.28,-2.38,-2.73,
0.658,-14.08,6.69,5.17,0.33,-2.30,-2.53,
0.661,-14.08,6.69,5.17,0.40,-2.22,-2.33,
0.661,-14.03,6.68,5.02,0.40,-2.22,-2.33,
0.665,-14.03,6.68,5.02,0.47,-2.13,-2.16,
0.667,-14.03,6.68,5.02,0.54,-2.06,-1.99,
0.668,-13.61,6.64,4.78,0.54,-2.06,-1.99,
0.669,-13.61,6.64,4.78,0.61,-1.98,-1.84,
0.671,-13.61,6.64,4.78,0.69,-1.92,-1.70,
0.688,-13.13,6.68,4.31,0.69,-1.92,-1.70,
0.688,-13.13,6.68,4.31,0.75,-1.86,-1.56,
0.689,-12.78,6.77,3.49,0.75,-1.86,-1.56,
0.689,-12.78,6.77,3.49,0.82,-1.82,-1.44,
0.689,-12.78,6.77,3.49,0.87,-1.77,-1.31,
0.689,-12.45,6.90,2.42,0.87,-1.77,-1.31,
0.69,-12.45,6.90,2.42,0.91,-1.73,-1.19,
0.69,-12.45,6.90,2.42,0.94,-1.69,-1.08,
0.69,-12.16,7.04,1.26,0.94,-1.69,-1.08,
0.69,-12.16,7.04,1.26,0.95,-1.66,-0.97,
0.69,-12.16,7.04,1.26,0.96,-1.63,-0.87,
0.691,-12.16,7.04,1.26,0.96,-1.61,-0.77,
0.691,-12.07,7.37,-0.09,0.96,-1.61,-0.77,
0.694,-12.07,7.37,-0.09,0.94,-1.58,-0.67,
0.696,-12.15,7.83,-1.70,0.94,-1.58,-0.67,
0.697,-12.15,7.83,-1.70,0.91,-1.55,-0.57,
0.7,-12.15,7.83,-1.70,0.86,-1.52,-0.46,
0.701,-12.15,7.83,-1.70,0.79,-1.49,-0.35,
0.701,-12.30,8.33,-3.61,0.79,-1.49,-0.35,
0.703,-12.30,8.33,-3.61,0.69,-1.47,-0.24,
0.705,-12.30,8.33,-3.61,0.58,-1.45,-0.12,
0.706,-12.36,8.70,-5.14,0.58,-1.45,-0.12,
0.708,-12.36,8.70,-5.14,0.46,-1.43,0.01,
0.71,-12.36,8.70,-5.14,0.33,-1.42,0.14,
0.711,-12.29,8.85,-6.24,0.33,-1.42,0.14,
0.714,-12.29,8.85,-6.24,0.19,-1.42,0.27,
0.716,-12.05,8.77,-6.86,0.19,-1.42,0.27,
0.716,-12.05,8.77,-6.86,0.05,-1.43,0.40,
0.718,-12.05,8.77,-6.86,-0.09,-1.46,0.53,
0.721,-12.05,8.77,-6.86,-0.22,-1.50,0.65,
0.722,-11.64,8.61,-7.05,-0.22,-1.50,0.65,
0.724,-11.64,8.61,-7.05,-0.35,-1.55,0.77,
0.726,-11.64,8.61,-7.05,-0.48,-1.61,0.90,
0.726,-11.11,8.27,-7.43,-0.48,-1.61,0.90,
0.727,-11.11,8.27,-7.43,-0.62,-1.66,1.02,
0.732,-11.11,8.27,-7.43,-0.75,-1.71,1.14,
0.734,-10.30,7.78,-7.72,-0.75,-1.71,1.14,
0.734,-10.30,7.78,-7.72,-0.89,-1.76,1.25,
0.736,-10.30,7.78,-7.72,-1.02,-1.80,1.36,
0.736,-9.15,7.01,-8.11,-1.02,-1.80,1.36,
0.737,-9.15,7.01,-8.11,-1.16,-1.84,1.44,
0.74,-9.15,7.01,-8.11,-1.29,-1.88,1.52,
0.74,-7.75,6.20,-8.34,-1.29,-1.88,1.52,
0.743,-7.75,6.20,-8.34,-1.41,-1.94,1.59,
0.746,-6.50,5.39,-8.24,-1.41,-1.94,1.59,
0.746,-6.50,5.39,-8.24,-1.51,-1.99,1.65,
0.748,-6.50,5.39,-8.24,-1.60,-2.03,1.69,
0.751,-6.50,5.39,-8.24,-1.70,-2.05,1.73,
0.751,-5.12,4.47,-8.57,-1.70,-2.05,1.73,
0.752,-5.12,4.47,-8.57,-1.79,-2.05,1.76,
0.755,-5.12,4.47,-8.57,-1.89,-2.02,1.78,
0.755,-3.55,3.48,-9.53,-1.89,-2.02,1.78,
0.757,-3.55,3.48,-9.53,-1.98,-1.98,1.78,
0.76,-3.55,3.48,-9.53,-2.11,-1.91,1.76,
0.76,-1.54,2.34,-10.79,-2.11,-1.91,1.76,
0.764,-1.54,2.34,-10.79,-2.23,-1.81,1.73,
0.765,-1.54,2.34,-10.79,-2.37,-1.67,1.66,
0.765,0.71,0.70,-12.52,-2.37,-1.67,1.66,
0.767,0.71,0.70,-12.52,-2.51,-1.52,1.59,
0.77,0.71,0.70,-12.52,-2.62,-1.37,1.51,
0.77,2.14,0.04,-12.61,-2.62,-1.37,1.51,
0.772,2.14,0.04,-12.61,-2.70,-1.22,1.43,
0.775,2.14,0.04,-12.61,-2.74,-1.07,1.37,
0.775,2.17,0.11,-11.47,-2.74,-1.07,1.37,
0.777,2.17,0.11,-11.47,-2.77,-0.88,1.32,
0.781,2.17,0.11,-11.47,-2.78,-0.69,1.28,
0.782,1.67,0.38,-11.00,-2.78,-0.69,1.28,
0.784,1.67,0.38,-11.00,-2.78,-0.48,1.25,
0.788,1.06,0.97,-8.30,-2.78,-0.48,1.25,
0.788,1.06,0.97,-8.30,-2.70,-0.30,1.25,
0.788,1.06,0.97,-8.30,-2.59,-0.14,1.27,
0.79,1.06,0.97,-8.30,-2.47,0.04,1.29,
0.79,0.68,0.05,-6.62,-2.47,0.04,1.29,
0.815,0.68,0.05,-6.62,-2.36,0.27,1.31,
0.816,0.68,0.05,-6.62,-2.27,0.52,1.33,
0.816,0.90,-0.18,-6.60,-2.27,0.52,1.33,
0.817,0.90,-0.18,-6.60,-2.19,0.78,1.34,
0.817,0.96,-0.14,-5.65,-2.19,0.78,1.34,
0.818,0.96,-0.14,-5.65,-2.11,1.03,1.36,
0.818,0.80,0.04,-4.98,-2.11,1.03,1.36,
0.819,0.80,0.04,-4.98,-2.04,1.26,1.37,
0.819,0.80,0.04,-4.98,-1.95,1.46,1.37,
0.82,0.80,0.04,-4.98,-1.89,1.65,1.38,
0.82,-0.05,0.67,-4.52,-1.89,1.65,1.38,
0.82,-0.05,0.67,-4.52,-1.83,1.79,1.39,
0.821,-0.05,0.67,-4.52,-1.79,1.88,1.40,
0.821,-0.83,0.98,-3.89,-1.79,1.88,1.40,
0.822,-0.83,0.98,-3.89,-1.76,1.95,1.40,
0.822,-0.83,0.98,-3.89,-1.74,2.00,1.41,
0.822,-0.83,0.98,-3.89,-1.72,2.02,1.41,
0.823,-1.13,0.96,-2.80,-1.72,2.02,1.41,
0.823,-1.13,0.96,-2.80,-1.70,2.01,1.41,
0.825,-1.31,1.10,-1.71,-1.70,2.01,1.41,
0.825,-1.31,1.10,-1.71,-1.70,2.00,1.40,
0.827,-1.31,1.10,-1.71,-1.71,1.94,1.41,
0.832,-1.58,1.05,-0.27,-1.71,1.94,1.41,
0.832,-1.58,1.05,-0.27,-1.71,1.86,1.41,
0.833,-1.58,1.05,-0.27,-1.70,1.77,1.42,
0.837,-1.58,1.05,-0.27,-1.72,1.68,1.42,
0.838,-1.50,0.59,0.43,-1.72,1.68,1.42,
0.87,-1.50,0.59,0.43,-1.74,1.59,1.42,
0.87,-1.50,0.59,0.43,-1.78,1.51,1.42,
0.871,-1.37,0.71,0.23,-1.78,1.51,1.42,
0.871,-1.37,0.71,0.23,-1.83,1.44,1.43,
0.871,-1.37,0.71,0.23,-1.89,1.35,1.43,
0.871,-1.15,1.30,-0.34,-1.89,1.35,1.43,
0.872,-1.15,1.30,-0.34,-1.94,1.26,1.44,
0.872,-1.07,1.57,-0.38,-1.94,1.26,1.44,
0.872,-1.07,1.57,-0.38,-1.98,1.18,1.44,
0.872,-1.07,1.57,-0.38,-2.01,1.11,1.45,
0.873,-1.16,1.91,0.04,-2.01,1.11,1.45,
0.873,-1.16,1.91,0.04,-2.02,1.07,1.46,
0.873,-1.16,1.91,0.04,-2.03,1.06,1.48,
0.873,-0.91,1.80,0.55,-2.03,1.06,1.48,
0.874,-0.91,1.80,0.55,-2.02,1.06,1.51,
0.874,-0.91,1.80,0.55,-1.98,1.11,1.52,
0.874,-0.91,1.80,0.55,-1.93,1.16,1.55,
0.874,-0.84,1.94,1.07,-1.93,1.16,1.55,
0.875,-0.84,1.94,1.07,-1.89,1.25,1.60,
0.875,-1.86,3.55,0.68,-1.89,1.25,1.60,
0.875,-1.86,3.55,0.68,-1.83,1.35,1.68,
0.875,-1.86,3.55,0.68,-1.77,1.47,1.78,
0.876,-1.86,3.55,0.68,-1.68,1.56,1.88,
0.876,-1.94,4.97,2.36,-1.68,1.56,1.88,
0.877,-1.94,4.97,2.36,-1.55,1.62,1.94,
0.881,-0.42,2.90,3.78,-1.55,1.62,1.94,
0.881,-0.42,2.90,3.78,-1.41,1.71,1.96,
0.882,-0.42,2.90,3.78,-1.29,1.81,1.93,
0.885,-0.42,2.90,3.78,-1.20,1.92,1.89,
0.886,1.45,1.28,2.94,-1.20,1.92,1.89,
0.887,1.45,1.28,2.94,-1.14,2.03,1.83,
0.89,1.45,1.28,2.94,-1.07,2.11,1.76,
0.891,2.83,1.20,2.72,-1.07,2.11,1.76,
0.891,2.83,1.20,2.72,-1.02,2.17,1.70,
0.895,2.83,1.20,2.72,-0.98,2.18,1.62,
0.896,3.57,0.97,2.62,-0.98,2.18,1.62,
0.901,3.57,0.97,2.62,-0.96,2.19,1.53,
0.905,3.57,0.97,2.62,-0.94,2.19,1.45,
0.905,3.89,0.04,2.75,-0.94,2.19,1.45,
0.907,3.89,0.04,2.75,-0.91,2.16,1.35,
0.908,3.89,0.04,2.75,-0.89,2.11,1.24,
0.908,4.45,-0.51,2.65,-0.89,2.11,1.24,
0.908,4.45,-0.51,2.65,-0.89,2.06,1.14,
0.91,4.62,-0.63,1.93,-0.89,2.06,1.14,
0.91,4.62,-0.63,1.93,-0.90,2.01,1.04,
0.912,4.62,-0.63,1.93,-0.92,1.98,0.94,
0.92,4.77,-0.76,1.56,-0.92,1.98,0.94,
0.92,4.77,-0.76,1.56,-0.93,1.93,0.83,
0.92,4.77,-0.76,1.56,-0.95,1.87,0.73,
0.921,4.77,-0.76,1.56,-0.97,1.79,0.63,
0.921,4.92,-1.38,1.61,-0.97,1.79,0.63,
0.922,4.92,-1.38,1.61,-0.98,1.71,0.52,
0.924,4.92,-1.38,1.61,-1.00,1.64,0.42,
0.924,4.76,-1.98,1.59,-1.00,1.64,0.42,
0.927,4.76,-1.98,1.59,-1.00,1.60,0.33,
0.929,4.76,-1.98,1.59,-1.00,1.59,0.25,
0.93,4.22,-2.32,1.99,-1.00,1.59,0.25,
0.933,4.22,-2.32,1.99,-0.98,1.58,0.18,
0.934,4.22,-2.32,1.99,-0.94,1.57,0.11,
0.934,4.33,-2.44,2.67,-0.94,1.57,0.11,
0.936,4.33,-2.44,2.67,-0.89,1.52,0.03,
0.94,4.33,-2.44,2.67,-0.83,1.47,-0.06,
0.94,4.59,-2.42,2.60,-0.83,1.47,-0.06,
0.942,4.59,-2.42,2.60,-0.78,1.47,-0.16,
0.943,4.59,-2.42,2.60,-0.73,1.43,-0.24,
0.943,4.37,-2.75,2.44,-0.73,1.43,-0.24,
0.947,4.37,-2.75,2.44,-0.69,1.35,-0.31,
0.949,4.00,-2.52,1.73,-0.69,1.35,-0.31,
0.949,4.00,-2.52,1.73,-0.65,1.31,-0.39,
0.952,4.00,-2.52,1.73,-0.62,1.23,-0.43,
0.954,4.00,-2.52,1.73,-0.62,1.20,-0.50,
0.954,3.36,-1.99,0.74,-0.62,1.20,-0.50,
0.956,3.36,-1.99,0.74,-0.61,1.15,-0.52,
0.959,3.36,-1.99,0.74,-0.61,1.12,-0.56,
0.959,3.57,-1.70,0.13,-0.61,1.12,-0.56,
0.961,3.57,-1.70,0.13,-0.60,1.10,-0.59,
0.964,3.91,-1.19,-1.75,-0.60,1.10,-0.59,
0.966,3.91,-1.19,-1.75,-0.62,1.14,-0.64,
0.967,3.91,-1.19,-1.75,-0.66,1.20,-0.70,
0.978,3.91,-0.94,-4.45,-0.66,1.20,-0.70,
0.979,2.56,-0.46,-7.06,-0.66,1.20,-0.70,
0.98,2.56,-0.46,-7.06,-0.72,1.27,-0.77,
0.98,2.56,-0.46,-7.06,-0.83,1.19,-0.84,
0.98,2.56,-0.46,-7.06,-0.99,0.98,-0.91,
0.981,2.56,-0.46,-7.06,-1.17,0.80,-0.97,
0.981,2.11,-1.55,-7.20,-1.17,0.80,-0.97,
0.982,2.11,-1.55,-7.20,-1.37,0.70,-1.01,
0.982,2.11,-1.55,-7.20,-1.58,0.60,-1.01,
0.984,0.81,-2.59,-8.28,-1.58,0.60,-1.01,
0.985,0.81,-2.59,-8.28,-1.81,0.48,-0.99,
0.986,0.81,-2.59,-8.28,-2.03,0.35,-0.99,
0.988,1.76,-2.84,-7.70,-2.03,0.35,-0.99,
0.989,1.76,-2.84,-7.70,-2.23,0.17,-1.01,
0.991,1.76,-2.84,-7.70,-2.40,-0.05,-1.04,
0.993,1.89,-3.71,-6.67,-2.40,-0.05,-1.04,
0.993,1.89,-3.71,-6.67,-2.56,-0.25,-1.09,
0.996,1.89,-3.71,-6.67,-2.70,-0.43,-1.14,
1.0,1.61,-4.74,-5.74,-2.70,-0.43,-1.14,
1.001,1.61,-4.74,-5.74,-2.81,-0.60,-1.18,
1.001,1.61,-4.74,-5.74,-2.92,-0.73,-1.24,
1.015,1.48,-5.55,-4.78,-2.92,-0.73,-1.24,
1.016,1.48,-5.55,-4.78,-3.00,-0.86,-1.29,
1.016,1.48,-5.55,-4.78,-3.05,-0.96,-1.34,
1.016,1.10,-6.08,-3.92,-3.05,-0.96,-1.34,
1.017,1.10,-6.08,-3.92,-3.09,-1.01,-1.38,
1.017,1.10,-6.08,-3.92,-3.11,-1.04,-1.41,
1.017,0.46,-6.36,-3.38,-3.11,-1.04,-1.41,
1.017,0.46,-6.36,-3.38,-3.12,-1.02,-1.44,
1.017,0.46,-6.36,-3.38,-3.09,-1.00,-1.46,
1.019,-0.74,-6.58,-1.87,-3.09,-1.00,-1.46,
1.02,-0.74,-6.58,-1.87,-3.05,-0.99,-1.47,
1.021,-0.74,-6.58,-1.87,-2.99,-0.94,-1.47,
1.023,-1.08,-5.70,-1.27,-2.99,-0.94,-1.47,
1.023,-1.08,-5.70,-1.27,-2.90,-0.84,-1.45,
1.026,-1.08,-5.70,-1.27,-2.80,-0.74,-1.40,
1.028,-1.08,-5.70,-1.27,-2.67,-0.63,-1.33,
1.028,-3.98,-5.17,-0.15,-2.67,-0.63,-1.33,
1.031,-3.98,-5.17,-0.15,-2.53,-0.59,-1.23,
1.033,-6.32,-4.66,1.35,-2.53,-0.59,-1.23,
1.033,-6.32,-4.66,1.35,-2.37,-0.55,-1.13,
1.035,-6.32,-4.66,1.35,-2.19,-0.54,-1.00,
1.038,-6.32,-4.66,1.35,-1.97,-0.60,-0.82,
1.039,-8.76,-3.71,3.63,-1.97,-0.60,-0.82,
1.04,-8.76,-3.71,3.63,-1.73,-0.65,-0.62,
1.043,-8.76,-3.71,3.63,-1.52,-0.66,-0.47,
1.043,-6.80,-2.62,2.96,-1.52,-0.66,-0.47,
1.045,-6.80,-2.62,2.96,-1.36,-0.61,-0.38,
1.048,-6.80,-2.62,2.96,-1.23,-0.54,-0.31,
1.048,-4.75,-2.05,0.81,-1.23,-0.54,-0.31,
1.05,-4.75,-2.05,0.81,-1.12,-0.49,-0.25,
1.052,-4.75,-2.05,0.81,-1.02,-0.45,-0.18,
1.053,-5.27,-2.12,0.56,-1.02,-0.45,-0.18,
1.056,-5.27,-2.12,0.56,-0.93,-0.35,-0.14,
1.058,-5.27,-2.12,0.56,-0.93,-0.01,-0.27,
1.059,-2.25,0.31,-0.88,-0.93,-0.01,-0.27,
1.062,-2.25,0.31,-0.88,-0.94,0.42,-0.43,
1.065,-2.25,0.31,-0.88,-0.94,0.81,-0.61,
1.066,0.26,0.32,-0.52,-0.94,0.81,-0.61,
1.066,0.26,0.32,-0.52,-0.90,1.16,-0.84,
1.068,0.26,0.32,-0.52,-0.84,1.48,-1.05,
1.068,1.45,0.18,0.19,-0.84,1.48,-1.05,
1.07,1.45,0.18,0.19,-0.79,1.80,-1.23,
1.073,1.45,0.18,0.19,-0.73,2.11,-1.39,
1.073,1.34,0.22,0.38,-0.73,2.11,-1.39,
1.075,1.34,0.22,0.38,-0.68,2.42,-1.52,
1.078,1.34,0.22,0.38,-0.63,2.71,-1.64,
1.078,0.75,0.28,0.30,-0.63,2.71,-1.64,
1.082,0.75,0.28,0.30,-0.59,2.98,-1.73,
1.083,0.75,0.28,0.30,-0.54,3.20,-1.78,
1.083,-0.14,1.60,0.79,-0.54,3.20,-1.78,
1.085,-0.14,1.60,0.79,-0.49,3.36,-1.78,
1.087,-0.14,1.60,0.79,-0.44,3.56,-1.77,
1.088,0.05,1.74,0.57,-0.44,3.56,-1.77,
1.09,0.05,1.74,0.57,-0.38,3.81,-1.77,
1.092,0.20,0.53,0.23,-0.38,3.81,-1.77,
1.093,0.20,0.53,0.23,-0.32,4.05,-1.76,
1.095,0.20,0.53,0.23,-0.25,4.27,-1.75,
1.099,0.20,0.53,0.23,-0.17,4.47,-1.73,
1.1,-0.09,-0.39,0.51,-0.17,4.47,-1.73,
1.1,-0.09,-0.39,0.51,-0.09,4.60,-1.75,
1.102,-0.09,-0.39,0.51,0.00,4.64,-1.78,
1.102,0.58,-1.31,0.87,0.00,4.64,-1.78,
1.104,0.58,-1.31,0.87,0.11,4.66,-1.79,
1.107,0.58,-1.31,0.87,0.22,4.62,-1.79,
1.107,0.58,-1.96,0.66,0.22,4.62,-1.79,
1.11,0.58,-1.96,0.66,0.34,4.47,-1.77,
1.112,0.58,-1.96,0.66,0.47,4.25,-1.74,
1.112,0.75,-2.54,0.71,0.47,4.25,-1.74,
1.115,0.75,-2.54,0.71,0.61,3.93,-1.70,
1.117,0.75,-2.54,0.71,0.76,3.50,-1.64,
1.117,1.29,-2.87,1.16,0.76,3.50,-1.64,
1.12,1.29,-2.87,1.16,0.92,2.94,-1.57,
1.122,1.29,-2.87,1.16,1.08,2.28,-1.50,
1.122,2.10,-2.78,1.69,1.08,2.28,-1.50,
1.124,2.10,-2.78,1.69,1.23,1.49,-1.42,
1.127,2.10,-2.78,1.69,1.34,0.62,-1.33,
1.127,2.61,-1.78,1.95,1.34,0.62,-1.33,
1.13,2.61,-1.78,1.95,1.45,-0.19,-1.28,
1.133,4.13,-2.27,1.01,1.45,-0.19,-1.28,
1.133,4.13,-2.27,1.01,1.54,-0.93,-1.26,
1.135,4.13,-2.27,1.01,1.61,-1.59,-1.28,
1.137,4.13,-2.27,1.01,1.66,-2.12,-1.34,
1.137,6.53,-2.06,-0.47,1.66,-2.12,-1.34,
1.139,6.53,-2.06,-0.47,1.68,-2.51,-1.42,
1.142,6.53,-2.06,-0.47,1.65,-2.78,-1.49,
1.142,5.58,-1.94,-2.68,1.65,-2.78,-1.49,
1.144,5.58,-1.94,-2.68,1.60,-2.94,-1.50,
1.147,5.58,-1.94,-2.68,1.57,-2.97,-1.41,
1.147,2.27,0.40,-3.91,1.57,-2.97,-1.41,
1.149,2.27,0.40,-3.91,1.54,-2.96,-1.26,
1.152,2.27,0.40,-3.91,1.52,-2.94,-1.04,
1.153,-1.36,0.72,-4.09,1.52,-2.94,-1.04,
1.154,-1.36,0.72,-4.09,1.48,-2.91,-0.80,
1.157,-1.36,0.72,-4.09,1.43,-2.84,-0.57,
1.157,-0.99,0.65,-4.63,1.43,-2.84,-0.57,
1.16,-0.99,0.65,-4.63,1.35,-2.76,-0.41,
1.162,-0.99,0.65,-4.63,1.28,-2.68,-0.33,
1.162,1.29,0.46,-4.11,1.28,-2.68,-0.33,
1.169,1.29,0.46,-4.11,1.20,-2.64,-0.28,
1.17,1.29,0.46,-4.11,1.14,-2.62,-0.24,
1.204,0.81,0.14,-2.72,1.14,-2.62,-0.24,
1.204,0.81,0.14,-2.72,1.09,-2.62,-0.22,
1.205,0.81,0.14,-2.72,1.03,-2.64,-0.22,
1.205,1.23,0.08,-2.10,1.03,-2.64,-0.22,
1.206,1.23,0.08,-2.10,0.97,-2.68,-0.24,
1.206,1.83,0.35,-1.06,0.97,-2.68,-0.24,
1.207,1.83,0.35,-1.06,0.94,-2.75,-0.26,
1.207,1.83,0.35,-1.06,0.90,-2.85,-0.29,
1.208,1.83,0.35,-1.06,0.88,-2.95,-0.34,
1.208,3.05,0.90,-0.59,0.88,-2.95,-0.34,
1.208,3.05,0.90,-0.59,0.85,-3.03,-0.41,
1.209,4.18,1.30,-1.38,0.85,-3.03,-0.41,
1.209,4.18,1.30,-1.38,0.82,-3.06,-0.48,
1.209,4.18,1.30,-1.38,0.80,-3.07,-0.54,
1.21,4.18,1.30,-1.38,0.80,-3.06,-0.57,
1.21,4.09,1.67,-1.14,0.80,-3.06,-0.57,
1.21,4.09,1.67,-1.14,0.80,-3.04,-0.57,
1.21,3.80,2.27,-0.96,0.80,-3.04,-0.57,
1.211,3.80,2.27,-0.96,0.80,-3.04,-0.54,
1.211,3.80,2.27,-0.96,0.78,-3.02,-0.53,
1.211,4.93,2.27,-3.48,0.78,-3.02,-0.53,
1.211,4.93,2.27,-3.48,0.69,-2.94,-0.56,
1.212,4.93,2.27,-3.48,0.56,-2.83,-0.61,
1.212,4.93,2.27,-3.48,0.41,-2.76,-0.68,
1.212,4.98,1.28,-3.58,0.41,-2.76,-0.68,
1.212,4.98,1.28,-3.58,0.25,-2.78,-0.80,
1.213,4.98,1.28,-3.58,0.06,-2.91,-0.97,
1.213,3.99,-0.83,-2.45,0.06,-2.91,-0.97,
1.215,3.99,-0.83,-2.45,-0.18,-3.06,-1.21,
1.216,3.99,-0.83,-2.45,-0.41,-3.08,-1.46,
1.217,2.27,-2.03,-3.75,-0.41,-3.08,-1.46,
1.219,2.27,-2.03,-3.75,-0.59,-2.98,-1.67,
1.221,2.27,-2.03,-3.75,-0.73,-2.82,-1.84,
1.221,0.71,-2.14,-2.90,-0.73,-2.82,-1.84,
1.223,0.71,-2.14,-2.90,-0.82,-2.67,-1.98,
1.226,0.71,-2.14,-2.90,-0.89,-2.53,-2.10,
1.226,-0.88,-2.27,-1.74,-0.89,-2.53,-2.10,
1.229,-0.88,-2.27,-1.74,-0.94,-2.42,-2.20,
1.231,-1.85,-2.29,0.09,-0.94,-2.42,-2.20,
1.232,-1.85,-2.29,0.09,-0.95,-2.37,-2.28,
1.233,-1.85,-2.29,0.09,-0.94,-2.27,-2.34,
1.237,-2.80,-2.55,0.13,-0.94,-2.27,-2.34,
1.238,-2.80,-2.55,0.13,-0.91,-2.14,-2.38,
1.239,-2.80,-2.55,0.13,-0.86,-2.00,-2.41,
1.241,-3.07,-2.61,0.17,-0.86,-2.00,-2.41,
1.241,-3.07,-2.61,0.17,-0.81,-1.84,-2.42,
1.243,-3.07,-2.61,0.17,-0.75,-1.71,-2.42,
1.246,-3.64,-2.96,0.28,-0.75,-1.71,-2.42,
1.247,-3.64,-2.96,0.28,-0.70,-1.61,-2.42,
1.249,-3.64,-2.96,0.28,-0.66,-1.51,-2.41,
1.251,-5.10,-3.36,-0.20,-0.66,-1.51,-2.41,
1.251,-5.10,-3.36,-0.20,-0.62,-1.40,-2.36,
1.253,-5.10,-3.36,-0.20,-0.60,-1.33,-2.26,
1.256,-5.10,-3.36,-0.20,-0.56,-1.32,-2.10,
1.256,-7.80,-4.48,0.40,-0.56,-1.32,-2.10,
1.259,-7.80,-4.48,0.40,-0.51,-1.29,-1.95,
1.262,-3.34,-3.95,-1.80,-0.51,-1.29,-1.95,
1.262,-3.34,-3.95,-1.80,-0.53,-1.20,-1.88,
1.264,-3.34,-3.95,-1.80,-0.57,-1.11,-1.80,
1.266,-3.34,-3.95,-1.80,-0.59,-1.09,-1.70,
1.266,-2.82,-4.00,-0.71,-0.59,-1.09,-1.70,
1.269,-2.82,-4.00,-0.71,-0.61,-1.08,-1.58,
1.271,-1.69,-3.64,-1.29,-0.61,-1.08,-1.58,
1.271,-1.69,-3.64,-1.29,-0.65,-1.04,-1.46,
1.273,-1.69,-3.64,-1.29,-0.68,-1.04,-1.34,
1.276,-1.69,-3.64,-1.29,-0.73,-1.05,-1.24,
1.276,-0.69,-3.27,-1.37,-0.73,-1.05,-1.24,
1.278,-0.69,-3.27,-1.37,-0.78,-1.05,-1.16,
1.282,0.44,-2.94,-1.92,-0.78,-1.05,-1.16,
1.286,0.44,-2.94,-1.92,-0.85,-1.05,-1.10,
1.286,0.44,-2.94,-1.92,-0.93,-1.06,-1.08,
1.287,0.44,-2.94,-1.92,-1.02,-1.06,-1.10,
1.287,0.93,-2.69,-2.75,-1.02,-1.06,-1.10,
1.289,0.93,-2.69,-2.75,-1.11,-1.06,-1.15,
1.291,-0.27,-2.66,-1.37,-1.11,-1.06,-1.15,
1.292,-0.27,-2.66,-1.37,-1.17,-1.12,-1.18,
1.293,-0.27,-2.66,-1.37,-1.19,-1.22,-1.20,
1.3,-0.85,-2.68,-0.58,-1.19,-1.22,-1.20,
1.301,-0.85,-2.68,-0.58,-1.19,-1.29,-1.21,
1.301,-0.85,-2.68,-0.58,-1.21,-1.33,-1.24,
1.301,-0.64,-1.83,-1.12,-1.21,-1.33,-1.24,
1.302,-0.64,-1.83,-1.12,-1.23,-1.35,-1.28,
1.303,-0.64,-1.83,-1.12,-1.25,-1.34,-1.33,
1.306,-1.25,-0.94,-0.81,-1.25,-1.34,-1.33,
1.306,-1.25,-0.94,-0.81,-1.26,-1.33,-1.39,
1.308,-1.25,-0.94,-0.81,-1.25,-1.32,-1.46,
1.31,-1.25,-0.94,-0.81,-1.23,-1.30,-1.54,
1.311,-1.72,-0.40,-0.39,-1.23,-1.30,-1.54,
1.313,-1.72,-0.40,-0.39,-1.19,-1.26,-1.63,
1.316,-1.74,0.22,-0.41,-1.19,-1.26,-1.63,
1.316,-1.74,0.22,-0.41,-1.15,-1.20,-1.75,
1.318,-1.74,0.22,-0.41,-1.10,-1.12,-1.88,
1.32,-1.64,0.79,-0.96,-1.10,-1.12,-1.88,
1.321,-1.64,0.79,-0.96,-1.04,-0.99,-2.04,
1.323,-1.64,0.79,-0.96,-0.97,-0.82,-2.21,
1.325,-1.64,0.79,-0.96,-0.89,-0.61,-2.38,
1.325,-1.83,1.34,-1.20,-0.89,-0.61,-2.38,
1.328,-1.83,1.34,-1.20,-0.79,-0.39,-2.57,
1.331,-1.83,1.34,-1.20,-0.69,-0.14,-2.74,
1.331,-2.00,1.54,-1.06,-0.69,-0.14,-2.74,
1.354,-2.00,1.54,-1.06,-0.57,0.10,-2.91,
1.354,-2.02,1.86,-0.87,-0.57,0.10,-2.91,
1.354,-2.02,1.86,-0.87,-0.45,0.35,-3.07,
1.354,-2.02,1.86,-0.87,-0.34,0.58,-3.21,
1.355,-2.02,1.86,-0.87,-0.22,0.78,-3.34,
1.355,-1.84,2.32,-0.34,-0.22,0.78,-3.34,
1.355,-1.84,2.32,-0.34,-0.09,0.96,-3.45,
1.355,-1.84,2.32,-0.34,0.02,1.11,-3.57,
1.355,-1.29,2.66,-0.24,0.02,1.11,-3.57,
1.355,-1.29,2.66,-0.24,0.08,1.25,-3.70,
1.356,-1.29,2.66,-0.24,0.12,1.34,-3.83,
1.356,-0.34,2.60,-1.14,0.12,1.34,-3.83,
1.356,-0.34,2.60,-1.14,0.14,1.35,-3.97,
1.356,-0.34,2.60,-1.14,0.13,1.30,-4.12,
1.356,0.23,1.72,-1.92,0.13,1.30,-4.12,
1.357,0.23,1.72,-1.92,0.09,1.21,-4.31,
1.36,0.89,0.22,-2.83,0.09,1.21,-4.31,
1.361,0.89,0.22,-2.83,0.02,1.06,-4.51,
1.362,0.89,0.22,-2.83,-0.07,0.86,-4.72,
1.37,1.54,-1.36,-3.39,-0.07,0.86,-4.72,
1.371,1.54,-1.36,-3.39,-0.18,0.63,-4.95,
1.371,1.59,-2.82,-3.22,-0.18,0.63,-4.95,
1.371,1.59,-2.82,-3.22,-0.30,0.34,-5.18,
1.371,1.59,-2.82,-3.22,-0.42,0.01,-5.41,
1.372,1.59,-2.82,-3.22,-0.54,-0.33,-5.64,
1.375,1.59,-2.82,-3.22,-0.65,-0.68,-5.86,
1.375,1.43,-3.60,-2.83,-0.65,-0.68,-5.86,
1.378,1.43,-3.60,-2.83,-0.76,-1.03,-6.09,
1.391,1.81,-3.98,-1.97,-0.76,-1.03,-6.09,
1.391,1.81,-3.98,-1.97,-0.86,-1.40,-6.31,
1.391,1.81,-3.98,-1.97,-0.97,-1.77,-6.54,
1.392,1.81,-3.98,-1.97,-1.08,-2.10,-6.78,
1.392,2.59,-4.13,-1.53,-1.08,-2.10,-6.78,
1.392,2.59,-4.13,-1.53,-1.19,-2.40,-7.03,
1.392,2.59,-4.13,-1.53,-1.29,-2.66,-7.27,
1.393,3.67,-4.13,-0.76,-1.29,-2.66,-7.27,
1.393,3.67,-4.13,-0.76,-1.39,-2.89,-7.51,
1.396,3.67,-4.13,-0.76,-1.48,-3.05,-7.68,
1.396,3.46,-3.56,0.10,-1.48,-3.05,-7.68,
1.4,3.46,-3.56,0.10,-1.55,-3.16,-7.78,
1.4,3.15,-2.57,0.63,-1.55,-3.16,-7.78,
1.4,3.15,-2.57,0.63,-1.58,-3.22,-7.81,
1.402,3.15,-2.57,0.63,-1.61,-3.20,-7.80,
1.405,3.15,-2.57,0.63,-1.62,-3.13,-7.72,
1.405,2.85,-1.22,1.01,-1.62,-3.13,-7.72,
1.407,2.85,-1.22,1.01,-1.62,-3.03,-7.58,
1.41,2.85,-1.22,1.01,-1.64,-2.97,-7.38,
1.41,1.32,0.83,1.38,-1.64,-2.97,-7.38,
1.412,1.32,0.83,1.38,-1.68,-2.96,-7.10,
1.415,1.32,0.83,1.38,-1.73,-2.96,-6.75,
1.415,-0.30,3.64,1.76,-1.73,-2.96,-6.75,
1.417,-0.30,3.64,1.76,-1.76,-3.00,-6.29,
1.419,-0.30,3.64,1.76,-1.77,-3.09,-5.74,
1.42,-1.86,5.49,3.36,-1.77,-3.09,-5.74,
1.422,-1.86,5.49,3.36,-1.75,-3.17,-5.11,
1.424,-1.86,5.49,3.36,-1.75,-3.25,-4.45,
1.425,-2.18,6.27,2.72,-1.75,-3.25,-4.45,
1.427,-2.18,6.27,2.72,-1.75,-3.32,-3.76,
1.431,-1.28,5.80,2.65,-1.75,-3.32,-3.76,
1.431,-1.28,5.80,2.65,-1.72,-3.36,-3.09,
1.432,-1.28,5.80,2.65,-1.68,-3.36,-2.46,
1.434,-1.28,5.80,2.65,-1.63,-3.32,-1.89,
1.434,0.58,4.53,2.01,-1.63,-3.32,-1.89,
1.437,0.58,4.53,2.01,-1.58,-3.25,-1.41,
1.439,0.58,4.53,2.01,-1.53,-3.16,-1.00,
1.44,2.28,2.79,1.45,-1.53,-3.16,-1.00,
1.442,2.28,2.79,1.45,-1.47,-3.06,-0.69,
1.444,2.28,2.79,1.45,-1.41,-3.00,-0.44,
1.444,3.13,1.66,1.57,-1.41,-3.00,-0.44,
1.447,3.13,1.66,1.57,-1.37,-2.98,-0.27,
1.45,3.13,1.66,1.57,-1.35,-3.02,-0.16,
1.451,2.84,1.60,2.03,-1.35,-3.02,-0.16,
1.452,2.84,1.60,2.03,-1.33,-3.11,-0.08,
1.454,2.84,1.60,2.03,-1.31,-3.23,-0.04,
1.455,2.68,1.76,2.64,-1.31,-3.23,-0.04,
1.457,2.68,1.76,2.64,-1.30,-3.34,-0.00,
1.459,2.68,1.76,2.64,-1.27,-3.43,0.04,
1.459,2.61,1.55,2.77,-1.27,-3.43,0.04,
1.462,2.61,1.55,2.77,-1.24,-3.47,0.08,
1.465,2.61,1.55,2.77,-1.19,-3.45,0.13,
1.465,2.44,1.14,2.52,-1.19,-3.45,0.13,
1.467,2.44,1.14,2.52,-1.13,-3.40,0.17,
1.47,2.44,1.14,2.52,-1.08,-3.35,0.21,
1.47,2.05,0.70,2.68,-1.08,-3.35,0.21,
1.471,2.05,0.70,2.68,-1.03,-3.29,0.25,
1.474,2.05,0.70,2.68,-1.01,-3.23,0.30,
1.475,1.52,0.73,2.03,-1.01,-3.23,0.30,
1.476,1.52,0.73,2.03,-0.98,-3.15,0.36,
1.479,1.52,0.73,2.03,-0.94,-3.05,0.43,
1.479,1.06,0.45,1.91,-0.94,-3.05,0.43,
1.486,1.06,0.45,1.91,-0.91,-2.92,0.50,
1.487,1.06,0.45,1.91,-0.87,-2.76,0.59,
1.487,0.78,0.09,1.51,-0.87,-2.76,0.59,
1.487,0.78,0.09,1.51,-0.82,-2.55,0.68,
1.494,0.78,0.09,1.51,-0.73,-2.20,0.77,
1.495,0.78,0.09,1.51,-0.57,-1.66,0.85,
1.495,0.36,-0.39,0.53,-0.57,-1.66,0.85,
1.496,0.36,-0.39,0.53,-0.37,-1.10,0.92,
1.496,0.35,-0.89,0.40,-0.37,-1.10,0.92,
1.513,0.35,-0.89,0.40,-0.14,-0.56,0.99,
1.537,0.35,-0.89,0.40,0.11,-0.10,1.06,
1.537,0.99,-1.19,0.99,0.11,-0.10,1.06,
1.537,0.99,-1.19,0.99,0.35,0.20,1.11,
1.537,1.24,-1.18,1.87,0.35,0.20,1.11,
1.538,1.24,-1.18,1.87,0.57,0.37,1.15,
1.538,1.24,-1.18,1.87,0.75,0.44,1.18,
1.538,1.10,-1.01,1.42,0.75,0.44,1.18,
1.539,1.10,-1.01,1.42,0.91,0.46,1.21,
1.539,1.10,-1.01,1.42,1.04,0.45,1.24,
1.539,0.66,-0.77,1.20,1.04,0.45,1.24,
1.539,0.66,-0.77,1.20,1.15,0.40,1.27,
1.54,0.03,-0.63,1.21,1.15,0.40,1.27,
1.54,0.03,-0.63,1.21,1.26,0.34,1.32,
1.54,0.03,-0.63,1.21,1.37,0.29,1.37,
1.54,0.03,-0.63,1.21,1.47,0.23,1.42,
1.541,-0.45,-0.44,1.38,1.47,0.23,1.42,
1.541,-0.45,-0.44,1.38,1.58,0.17,1.48,
1.541,-0.45,-0.44,1.38,1.69,0.11,1.54,
1.541,-0.45,-0.44,1.38,1.80,0.06,1.61,
1.542,-0.77,-0.18,1.54,1.80,0.06,1.61,
1.542,-0.77,-0.18,1.54,1.92,0.02,1.68,
1.542,-0.86,0.24,1.34,1.92,0.02,1.68,
1.542,-0.86,0.24,1.34,2.03,-0.00,1.75,
1.543,-0.86,0.24,1.34,2.14,-0.01,1.82,
1.543,-0.75,0.61,1.04,2.14,-0.01,1.82,
1.543,-0.75,0.61,1.04,2.24,-0.01,1.88,
1.543,-0.75,0.61,1.04,2.32,-0.01,1.95,
1.544,-0.47,0.96,0.80,2.32,-0.01,1.95,
1.545,-0.47,0.96,0.80,2.40,-0.00,2.01,
1.547,-0.47,0.96,0.80,2.48,-0.01,2.07,
1.552,-0.20,1.28,0.43,2.48,-0.01,2.07,
1.552,-0.20,1.28,0.43,2.54,-0.02,2.13,
1.552,-0.20,1.28,0.43,2.61,-0.06,2.19,
1.554,-0.20,1.28,0.43,2.67,-0.12,2.24,
1.554,-0.01,1.49,0.35,2.67,-0.12,2.24,
1.557,-0.01,1.49,0.35,2.72,-0.17,2.29,
1.559,-0.01,1.49,0.35,2.78,-0.19,2.36,
1.56,-0.25,1.88,-0.01,2.78,-0.19,2.36,
1.561,-0.25,1.88,-0.01,2.83,-0.14,2.43,
1.568,-0.25,1.88,-0.01,2.88,-0.01,2.52,
1.569,-0.48,2.56,-0.80,2.88,-0.01,2.52,
1.57,-0.48,2.56,-0.80,2.94,0.16,2.61,
1.57,-0.48,2.56,-0.80,2.99,0.33,2.70,
1.57,-0.33,3.42,-0.58,2.99,0.33,2.70,
1.571,-0.33,3.42,-0.58,3.03,0.47,2.81,
1.573,-0.33,3.42,-0.58,3.06,0.54,2.93,
1.574,-0.98,3.57,-0.26,3.06,0.54,2.93,
1.577,-0.98,3.57,-0.26,3.09,0.52,3.05,
1.578,-0.98,3.57,-0.26,3.12,0.41,3.16,
1.579,-0.60,3.05,0.66,3.12,0.41,3.16,
1.59,-0.60,3.05,0.66,3.12,0.21,3.25,
1.591,0.15,2.44,0.66,3.12,0.21,3.25,
1.591,0.15,2.44,0.66,3.12,-0.05,3.33,
1.591,0.15,2.44,0.66,3.11,-0.39,3.39,
1.592,0.15,2.44,0.66,3.09,-0.76,3.44,
1.592,0.86,1.74,0.55,3.09,-0.76,3.44,
1.592,0.86,1.74,0.55,3.06,-1.09,3.49,
1.593,0.67,1.82,-0.11,3.06,-1.09,3.49,
1.593,0.67,1.82,-0.11,3.02,-1.38,3.54,
1.595,0.67,1.82,-0.11,2.99,-1.61,3.60,
1.602,0.67,1.82,-0.11,2.95,-1.80,3.67,
1.603,0.11,2.44,-0.25,2.95,-1.80,3.67,
1.603,0.11,2.44,-0.25,2.89,-1.92,3.75,
1.603,-0.19,3.11,-0.82,2.89,-1.92,3.75,
1.604,-0.19,3.11,-0.82,2.81,-1.97,3.82,
1.605,-0.19,3.11,-0.82,2.71,-1.94,3.90,
1.608,-0.61,3.42,-0.51,2.71,-1.94,3.90,
1.609,-0.61,3.42,-0.51,2.62,-1.85,3.99,
1.61,-0.61,3.42,-0.51,2.52,-1.68,4.08,
1.613,-0.61,3.42,-0.51,2.40,-1.45,4.16,
1.613,-0.41,3.77,-0.61,2.40,-1.45,4.16,
1.616,-0.41,3.77,-0.61,2.28,-1.22,4.23,
1.62,0.11,4.03,0.22,2.28,-1.22,4.23,
1.621,0.11,4.03,0.22,2.14,-1.02,4.30,
1.621,0.11,4.03,0.22,2.00,-0.89,4.35,
1.623,0.53,4.03,1.19,2.00,-0.89,4.35,
1.623,0.53,4.03,1.19,1.85,-0.80,4.40,
1.625,0.53,4.03,1.19,1.68,-0.75,4.44,
1.628,1.10,3.99,0.82,1.68,-0.75,4.44,
1.628,1.10,3.99,0.82,1.47,-0.73,4.47,
1.63,1.10,3.99,0.82,1.24,-0.76,4.50,
1.633,1.36,3.91,0.97,1.24,-0.76,4.50,
1.633,1.36,3.91,0.97,1.00,-0.85,4.52,
1.635,1.36,3.91,0.97,0.74,-0.97,4.54,
1.638,1.74,3.92,1.05,0.74,-0.97,4.54,
1.638,1.74,3.92,1.05,0.50,-1.10,4.55,
1.64,1.74,3.92,1.05,0.27,-1.26,4.56,
1.643,1.74,3.92,1.05,0.07,-1.43,4.58,
1.643,1.68,3.72,1.46,0.07,-1.43,4.58,
1.645,1.68,3.72,1.46,-0.14,-1.54,4.60,
1.648,1.68,3.72,1.46,-0.33,-1.59,4.63,
1.649,1.07,3.47,1.26,-0.33,-1.59,4.63,
1.65,1.07,3.47,1.26,-0.46,-1.56,4.68,
1.653,1.07,3.47,1.26,-0.61,-1.41,4.76,
1.653,0.01,2.95,0.63,-0.61,-1.41,4.76,
1.655,0.01,2.95,0.63,-0.74,-1.23,4.84,
1.657,0.01,2.95,0.63,-0.81,-1.08,4.92,
1.658,-1.28,1.40,1.17,-0.81,-1.08,4.92,
1.66,-1.28,1.40,1.17,-0.90,-0.83,4.77,
1.663,-1.28,1.40,1.17,-1.10,-0.47,4.50,
1.688,-3.06,-1.08,-0.63,-1.10,-0.47,4.50,
1.688,-3.06,-1.08,-0.63,-1.19,-0.06,4.20,
1.689,-3.06,-1.08,-0.63,-1.17,0.43,3.74,
1.689,-3.46,-3.71,1.27,-1.17,0.43,3.74,
1.689,-3.46,-3.71,1.27,-1.19,0.82,3.08,
1.69,-3.46,-3.71,1.27,-1.23,1.16,2.29,
1.69,-3.22,-6.07,0.04,-1.23,1.16,2.29,
1.69,-3.22,-6.07,0.04,-1.26,1.34,1.42,
1.69,-5.27,-5.46,0.32,-1.26,1.34,1.42,
1.691,-5.27,-5.46,0.32,-1.29,1.39,0.58,
1.691,-5.27,-5.46,0.32,-1.31,1.37,-0.17,
1.691,-7.44,-3.03,-0.37,-1.31,1.37,-0.17,
1.691,-7.44,-3.03,-0.37,-1.29,1.30,-0.80,
1.691,-7.44,-3.03,-0.37,-1.24,1.15,-1.29,
1.692,-7.44,-3.03,-0.37,-1.19,0.94,-1.65,
1.692,-9.40,-0.91,-2.18,-1.19,0.94,-1.65,
1.692,-9.40,-0.91,-2.18,-1.14,0.66,-1.86,
1.693,-10.36,0.40,-3.91,-1.14,0.66,-1.86,
1.693,-10.36,0.40,-3.91,-1.09,0.35,-1.95,
1.699,-10.36,0.40,-3.91,-1.03,0.06,-1.92,
1.7,-10.36,0.40,-3.91,-0.97,-0.20,-1.83,
1.701,-9.36,0.56,-4.60,-0.97,-0.20,-1.83,
1.701,-9.36,0.56,-4.60,-0.90,-0.42,-1.69,
1.702,-7.69,0.62,-4.13,-0.90,-0.42,-1.69,
1.703,-7.69,0.62,-4.13,-0.82,-0.63,-1.50,
1.709,-7.69,0.62,-4.13,-0.73,-0.82,-1.30,
1.709,-7.69,0.62,-4.13,-0.66,-1.01,-1.10,
1.71,-5.68,0.35,-3.36,-0.66,-1.01,-1.10,
1.71,-5.68,0.35,-3.36,-0.58,-1.17,-0.90,
1.716,-5.68,0.35,-3.36,-0.51,-1.33,-0.73,
1.717,-3.51,0.02,-2.71,-0.51,-1.33,-0.73,
1.717,-3.51,0.02,-2.71,-0.45,-1.45,-0.57,
1.718,-3.51,0.02,-2.71,-0.40,-1.55,-0.43,
1.718,-2.11,-0.15,-2.29,-0.40,-1.55,-0.43,
1.722,-2.11,-0.15,-2.29,-0.36,-1.60,-0.30,
1.722,-2.11,-0.15,-2.29,-0.35,-1.61,-0.19,
1.722,-1.32,-0.36,-2.13,-0.35,-1.61,-0.19,
1.725,-1.32,-0.36,-2.13,-0.33,-1.58,-0.10,
1.728,-1.32,-0.36,-2.13,-0.34,-1.51,-0.03,
1.728,-0.91,-0.45,-1.82,-0.34,-1.51,-0.03,
1.729,-0.91,-0.45,-1.82,-0.36,-1.43,0.03,
1.735,-0.47,-0.25,-1.51,-0.36,-1.43,0.03,
1.736,-0.47,-0.25,-1.51,-0.38,-1.33,0.07,
1.736,-0.47,-0.25,-1.51,-0.42,-1.22,0.09,
1.737,-0.47,-0.25,-1.51,-0.46,-1.12,0.10,
1.737,-0.25,0.10,-1.15,-0.46,-1.12,0.10,
1.74,-0.25,0.10,-1.15,-0.50,-1.02,0.11,
1.742,-0.25,0.10,-1.15,-0.55,-0.92,0.11,
1.742,-0.09,0.40,-0.96,-0.55,-0.92,0.11,
1.744,-0.09,0.40,-0.96,-0.60,-0.84,0.11,
1.748,-0.01,0.61,-0.80,-0.60,-0.84,0.11,
1.75,-0.01,0.61,-0.80,-0.65,-0.78,0.11,
1.75,-0.01,0.61,-0.80,-0.70,-0.73,0.11,
1.752,-0.01,0.61,-0.80,-0.74,-0.68,0.11,
1.752,0.09,0.72,-0.85,-0.74,-0.68,0.11,
1.755,0.09,0.72,-0.85,-0.78,-0.63,0.12,
1.757,0.24,0.82,-1.08,-0.78,-0.63,0.12,
1.757,0.24,0.82,-1.08,-0.81,-0.60,0.12,
1.759,0.24,0.82,-1.08,-0.83,-0.58,0.13,
1.762,0.24,0.82,-1.08,-0.85,-0.56,0.13,
1.762,0.22,0.86,-1.26,-0.85,-0.56,0.13,
1.765,0.22,0.86,-1.26,-0.86,-0.57,0.14,
1.767,0.22,0.86,-1.26,-0.87,-0.57,0.14,
1.768,0.13,0.84,-1.39,-0.87,-0.57,0.14,
1.769,0.13,0.84,-1.39,-0.87,-0.58,0.14,
1.772,0.05,0.90,-1.44,-0.87,-0.58,0.14,
1.772,0.05,0.90,-1.44,-0.86,-0.59,0.14,
1.774,0.05,0.90,-1.44,-0.85,-0.60,0.14,
1.777,0.05,0.90,-1.44,-0.84,-0.62,0.13,
1.777,0.08,0.89,-1.41,-0.84,-0.62,0.13,
1.78,0.08,0.89,-1.41,-0.82,-0.63,0.12,
1.796,0.01,0.96,-1.37,-0.82,-0.63,0.12,
1.797,0.01,0.96,-1.37,-0.80,-0.65,0.11,
1.797,0.01,0.96,-1.37,-0.78,-0.66,0.10,
1.797,-0.03,1.06,-1.26,-0.78,-0.66,0.10,
1.798,-0.03,1.06,-1.26,-0.76,-0.67,0.08,
1.798,-0.03,1.06,-1.26,-0.73,-0.68,0.07,
1.798,-0.09,1.14,-1.17,-0.73,-0.68,0.07,
1.798,-0.09,1.14,-1.17,-0.71,-0.69,0.06,
1.798,-0.09,1.14,-1.17,-0.70,-0.70,0.05,
1.799,-0.21,1.12,-1.13,-0.70,-0.70,0.05,
1.799,-0.21,1.12,-1.13,-0.69,-0.70,0.04,
1.799,-0.21,1.12,-1.13,-0.68,-0.69,0.03,
1.804,-0.21,1.12,-1.13,-0.67,-0.69,0.02,
1.804,-0.29,1.08,-1.13,-0.67,-0.69,0.02,
1.804,-0.29,1.08,-1.13,-0.67,-0.69,0.01,
1.809,-0.29,1.08,-1.13,-0.67,-0.68,0.01,
1.81,-0.39,0.98,-1.14,-0.67,-0.68,0.01,
1.81,-0.39,0.98,-1.14,-0.67,-0.66,0.01,
1.811,-0.39,0.98,-1.14,-0.68,-0.64,0.01,
1.811,-0.49,0.89,-1.20,-0.68,-0.64,0.01,
1.817,-0.60,0.87,-1.23,-0.68,-0.64,0.01,
1.818,-0.60,0.87,-1.23,-0.68,-0.62,-0.00,
1.818,-0.60,0.87,-1.23,-0.69,-0.59,-0.00,
1.818,-0.60,0.87,-1.23,-0.69,-0.55,-0.01,
1.821,-0.60,0.87,-1.23,-0.70,-0.52,-0.01,
1.821,-0.81,0.87,-1.34,-0.70,-0.52,-0.01,
1.823,-0.81,0.87,-1.34,-0.70,-0.48,-0.01,
1.826,-0.81,0.87,-1.34,-0.71,-0.44,-0.01,
1.826,-1.09,0.94,-1.46,-0.71,-0.44,-0.01,
1.846,-1.09,0.94,-1.46,-0.71,-0.41,-0.00,
1.846,-1.09,0.94,-1.46,-0.71,-0.38,0.00,
1.847,-1.47,1.07,-1.51,-0.71,-0.38,0.00,
1.847,-1.47,1.07,-1.51,-0.71,-0.36,0.01,
1.847,-1.47,1.07,-1.51,-0.71,-0.34,0.01,
1.847,-1.92,1.32,-1.54,-0.71,-0.34,0.01,
1.848,-1.92,1.32,-1.54,-0.70,-0.32,0.01,
1.848,-1.92,1.32,-1.54,-0.69,-0.31,0.02,
1.848,-2.40,1.65,-1.47,-0.69,-0.31,0.02,
1.848,-2.40,1.65,-1.47,-0.66,-0.28,0.02,
1.849,-2.40,1.65,-1.47,-0.64,-0.27,0.02,
1.849,-2.85,1.98,-1.18,-0.64,-0.27,0.02,
1.849,-2.85,1.98,-1.18,-0.62,-0.28,0.02,
1.858,-2.85,1.98,-1.18,-0.59,-0.30,0.03,
1.859,-3.30,2.17,-0.89,-0.59,-0.30,0.03,
1.859,-3.30,2.17,-0.89,-0.56,-0.31,0.03,
1.859,-3.30,2.17,-0.89,-0.52,-0.32,0.03,
1.859,-3.76,2.33,-0.54,-0.52,-0.32,0.03,
1.86,-3.76,2.33,-0.54,-0.48,-0.34,0.04,
1.861,-3.76,2.33,-0.54,-0.43,-0.35,0.04,
1.861,-4.18,2.48,-0.23,-0.43,-0.35,0.04,
1.863,-4.18,2.48,-0.23,-0.39,-0.35,0.05,
1.866,-4.18,2.48,-0.23,-0.34,-0.35,0.06,
1.867,-4.46,2.55,-0.09,-0.34,-0.35,0.06,
1.868,-4.46,2.55,-0.09,-0.29,-0.34,0.06,
1.871,-4.46,2.55,-0.09,-0.24,-0.32,0.07,
1.871,-4.69,2.58,-0.08,-0.24,-0.32,0.07,
1.873,-4.69,2.58,-0.08,-0.20,-0.29,0.07,
1.876,-4.69,2.58,-0.08,-0.16,-0.26,0.08,
1.876,-4.92,2.51,-0.16,-0.16,-0.26,0.08,
1.879,-4.92,2.51,-0.16,-0.12,-0.22,0.08,
1.889,-5.12,2.44,-0.31,-0.12,-0.22,0.08,
1.889,-5.12,2.44,-0.31,-0.08,-0.18,0.09,
1.889,-5.23,2.30,-0.54,-0.08,-0.18,0.09,
1.889,-5.23,2.30,-0.54,-0.04,-0.14,0.10,
1.89,-5.23,2.30,-0.54,-0.01,-0.10,0.10,
1.89,-5.23,2.30,-0.54,0.02,-0.05,0.11,
1.897,-5.23,2.30,-0.54,0.04,0.01,0.11,
1.897,-5.27,2.16,-0.87,0.04,0.01,0.11,
1.898,-5.27,2.00,-1.22,0.04,0.01,0.11,
1.898,-5.27,2.00,-1.22,0.06,0.06,0.11,
1.898,-5.27,2.00,-1.22,0.08,0.11,0.12,
1.898,-5.27,2.00,-1.22,0.09,0.16,0.11,
1.9,-5.27,2.00,-1.22,0.10,0.20,0.11,
1.901,-5.19,1.92,-1.62,0.10,0.20,0.11,
1.903,-5.19,1.92,-1.62,0.11,0.24,0.10,
1.905,-5.07,1.80,-2.04,0.11,0.24,0.10,
1.906,-5.07,1.80,-2.04,0.11,0.28,0.10,
1.907,-5.07,1.80,-2.04,0.11,0.31,0.10,
1.911,-5.07,1.80,-2.04,0.11,0.34,0.09,
1.912,-4.83,1.52,-2.38,0.11,0.34,0.09,
1.914,-4.83,1.52,-2.38,0.10,0.38,0.09,
1.915,-4.83,1.52,-2.38,0.10,0.42,0.08,
1.915,-4.50,1.14,-2.63,0.10,0.42,0.08,
1.918,-4.50,1.14,-2.63,0.09,0.46,0.08,
1.921,-4.50,1.14,-2.63,0.09,0.49,0.08,
1.921,-4.08,0.79,-2.72,0.09,0.49,0.08,
1.923,-4.08,0.79,-2.72,0.09,0.52,0.08,
1.926,-4.08,0.79,-2.72,0.09,0.55,0.08,
1.926,-3.71,0.50,-2.73,0.09,0.55,0.08,
1.927,-3.71,0.50,-2.73,0.09,0.58,0.08,
1.93,-3.71,0.50,-2.73,0.09,0.60,0.08,
1.93,-3.36,0.30,-2.61,0.09,0.60,0.08,
1.933,-3.36,0.30,-2.61,0.09,0.60,0.08,
1.935,-3.36,0.30,-2.61,0.08,0.59,0.06,
1.935,-3.05,0.05,-2.53,0.08,0.59,0.06,
1.937,-3.05,0.05,-2.53,0.07,0.57,0.05,
1.94,-3.05,0.05,-2.53,0.07,0.55,0.04,
1.94,-2.99,-0.27,-2.35,0.07,0.55,0.04,
1.942,-2.99,-0.27,-2.35,0.06,0.52,0.03,
1.945,-2.99,-0.27,-2.35,0.05,0.48,0.02,
1.945,-2.95,-0.52,-2.08,0.05,0.48,0.02,
1.948,-2.95,-0.52,-2.08,0.05,0.44,0.02,
1.951,-2.96,-0.91,-1.98,0.05,0.44,0.02,
1.951,-2.96,-0.91,-1.98,0.04,0.40,0.01,
1.952,-2.96,-0.91,-1.98,0.04,0.37,0.00,
1.955,-2.96,-0.91,-1.98,0.02,0.35,-0.01,
1.956,-2.77,-1.56,-2.08,0.02,0.35,-0.01,
1.957,-2.77,-1.56,-2.08,0.01,0.34,-0.02,
1.96,-2.77,-1.56,-2.08,-0.00,0.34,-0.04,
1.96,-2.49,-2.01,-1.74,-0.00,0.34,-0.04,
1.962,-2.49,-2.01,-1.74,-0.01,0.34,-0.06,
1.965,-2.24,-2.22,-1.05,-0.01,0.34,-0.06,
1.966,-2.24,-2.22,-1.05,-0.00,0.35,-0.07,
1.968,-2.24,-2.22,-1.05,0.00,0.35,-0.09,
1.97,-2.24,-2.22,-1.05,0.02,0.35,-0.10,
1.97,-2.12,-2.36,-0.45,0.02,0.35,-0.10,
1.972,-2.12,-2.36,-0.45,0.03,0.34,-0.10,
1.975,-2.12,-2.36,-0.45,0.04,0.30,-0.10,
1.975,-2.01,-2.60,0.10,0.04,0.30,-0.10,
1.979,-2.01,-2.60,0.10,0.04,0.25,-0.11,
1.98,-2.01,-2.60,0.10,0.04,0.19,-0.11,
1.98,-2.15,-2.84,0.64,0.04,0.19,-0.11,
1.984,-2.15,-2.84,0.64,0.05,0.13,-0.10,
1.987,-2.32,-2.90,1.40,0.05,0.13,-0.10,
1.988,-2.32,-2.90,1.40,0.05,0.07,-0.09,
1.988,-2.32,-2.90,1.40,0.06,0.01,-0.08,
1.99,-2.49,-2.78,2.03,0.06,0.01,-0.08,
1.99,-2.49,-2.78,2.03,0.07,-0.03,-0.06,
1.992,-2.49,-2.78,2.03,0.07,-0.08,-0.05,
2.007,-2.57,-2.63,2.73,0.07,-0.08,-0.05,
2.007,-2.57,-2.63,2.73,0.08,-0.12,-0.03,
2.007,-2.57,-2.63,2.73,0.09,-0.15,-0.02,
2.007,-2.57,-2.63,2.73,0.09,-0.17,-0.01,
2.007,-2.56,-2.41,3.24,0.09,-0.17,-0.01,
2.008,-2.56,-2.41,3.24,0.09,-0.18,-0.00,
2.008,-2.56,-2.41,3.24,0.08,-0.19,0.01,
2.008,-2.44,-2.19,3.77,0.08,-0.19,0.01,
2.008,-2.44,-2.19,3.77,0.08,-0.18,0.02,
2.013,-2.44,-2.19,3.77,0.07,-0.16,0.02,
2.014,-2.15,-1.87,4.04,0.07,-0.16,0.02,
2.014,-2.15,-1.87,4.04,0.06,-0.14,0.03,
2.015,-2.15,-1.87,4.04,0.05,-0.13,0.04,
2.015,-1.79,-1.60,4.15,0.05,-0.13,0.04,
2.018,-1.79,-1.60,4.15,0.03,-0.12,0.05,
2.019,-1.41,-1.37,4.14,0.03,-0.12,0.05,
2.02,-1.41,-1.37,4.14,0.01,-0.11,0.06,
2.023,-1.41,-1.37,4.14,-0.01,-0.11,0.09,
2.025,-0.88,-1.19,3.99,-0.01,-0.11,0.09,
2.026,-0.88,-1.19,3.99,-0.04,-0.12,0.11,
2.028,-0.88,-1.19,3.99,-0.07,-0.13,0.14,
2.031,-0.23,-0.97,3.83,-0.07,-0.13,0.14,
2.031,-0.23,-0.97,3.83,-0.10,-0.14,0.16,
2.035,-0.23,-0.97,3.83,-0.13,-0.15,0.19,
2.036,-0.23,-0.97,3.83,-0.15,-0.16,0.22,
2.036,0.49,-0.77,3.61,-0.15,-0.16,0.22,
2.037,0.49,-0.77,3.61,-0.17,-0.17,0.25,
2.04,0.49,-0.77,3.61,-0.19,-0.18,0.27,
2.04,1.22,-0.54,3.50,-0.19,-0.18,0.27,
2.042,1.22,-0.54,3.50,-0.20,-0.20,0.29,
2.044,1.22,-0.54,3.50,-0.20,-0.21,0.32,
2.044,1.95,-0.33,3.28,-0.20,-0.21,0.32,
2.047,1.95,-0.33,3.28,-0.20,-0.22,0.33,
2.05,1.95,-0.33,3.28,-0.20,-0.23,0.34,
2.051,2.62,-0.17,2.98,-0.20,-0.23,0.34,
2.052,2.62,-0.17,2.98,-0.19,-0.25,0.35,
2.054,2.62,-0.17,2.98,-0.19,-0.25,0.35,
2.055,3.23,-0.19,2.52,-0.19,-0.25,0.35,
2.056,3.23,-0.19,2.52,-0.19,-0.25,0.35,
2.059,3.23,-0.19,2.52,-0.19,-0.25,0.34,
2.06,3.73,-0.43,1.94,-0.19,-0.25,0.34,
2.061,3.73,-0.43,1.94,-0.20,-0.24,0.32,
2.073,4.06,-0.62,1.45,-0.20,-0.24,0.32,
2.074,4.06,-0.62,1.45,-0.21,-0.22,0.31,
2.074,4.06,-0.62,1.45,-0.22,-0.20,0.29,
2.075,4.25,-0.83,1.06,-0.22,-0.20,0.29,
2.075,4.25,-0.83,1.06,-0.22,-0.17,0.28,
2.075,4.25,-0.83,1.06,-0.23,-0.13,0.26,
2.077,4.25,-0.83,1.06,-0.23,-0.09,0.24,
2.077,4.41,-1.16,0.72,-0.23,-0.09,0.24,
2.077,4.41,-1.16,0.72,-0.23,-0.03,0.22,
2.079,4.41,-1.16,0.72,-0.23,0.03,0.19,
2.08,4.52,-1.65,0.22,-0.23,0.03,0.19,
2.092,4.52,-1.65,0.22,-0.24,0.10,0.15,
2.093,4.52,-1.65,0.22,-0.25,0.16,0.12,
2.093,4.33,-2.10,-0.31,-0.25,0.16,0.12,
2.093,4.33,-2.10,-0.31,-0.25,0.24,0.09,
2.093,4.33,-2.10,-0.31,-0.26,0.31,0.06,
2.093,4.04,-2.44,-0.52,-0.26,0.31,0.06,
2.094,4.04,-2.44,-0.52,-0.26,0.38,0.03,
2.094,4.04,-2.44,-0.52,-0.25,0.44,-0.00,
2.094,3.74,-2.61,-0.59,-0.25,0.44,-0.00,
2.096,3.74,-2.61,-0.59,-0.23,0.48,-0.04,
2.099,3.31,-2.67,-0.70,-0.23,0.48,-0.04,
2.1,3.31,-2.67,-0.70,-0.22,0.52,-0.07,
2.102,3.31,-2.67,-0.70,-0.19,0.55,-0.11,
2.104,3.31,-2.67,-0.70,-0.16,0.57,-0.14,
2.104,2.67,-2.62,-0.63,-0.16,0.57,-0.14,
2.106,2.67,-2.62,-0.63,-0.13,0.58,-0.17,
2.109,2.17,-2.40,-0.63,-0.13,0.58,-0.17,
2.109,2.17,-2.40,-0.63,-0.09,0.57,-0.20,
2.111,2.17,-2.40,-0.63,-0.05,0.56,-0.23,
2.115,2.17,-2.40,-0.63,-0.01,0.55,-0.26,
2.115,1.62,-2.04,-0.73,-0.01,0.55,-0.26,
2.116,1.62,-2.04,-0.73,0.03,0.54,-0.29,
2.119,1.62,-2.04,-0.73,0.07,0.53,-0.31,
2.119,1.15,-1.59,-0.76,0.07,0.53,-0.31,
2.121,1.15,-1.59,-0.76,0.10,0.52,-0.33,
2.124,1.15,-1.59,-0.76,0.14,0.51,-0.35,
2.124,0.84,-1.11,-0.68,0.14,0.51,-0.35,
2.126,0.84,-1.11,-0.68,0.17,0.50,-0.36,
2.129,0.84,-1.11,-0.68,0.21,0.50,-0.37,
2.129,0.67,-0.67,-0.44,0.21,0.50,-0.37,
2.131,0.67,-0.67,-0.44,0.24,0.49,-0.37,
2.134,0.67,-0.67,-0.44,0.27,0.47,-0.37,
2.135,0.53,-0.34,-0.16,0.27,0.47,-0.37,
2.137,0.53,-0.34,-0.16,0.30,0.47,-0.36,
2.139,0.53,-0.34,-0.16,0.34,0.48,-0.36,
2.14,0.57,-0.16,0.23,0.34,0.48,-0.36,
2.141,0.57,-0.16,0.23,0.38,0.50,-0.34,
2.143,0.57,-0.16,0.23,0.41,0.52,-0.33,
2.144,0.48,-0.07,0.45,0.41,0.52,-0.33,
2.146,0.48,-0.07,0.45,0.45,0.54,-0.31,
2.149,0.40,0.04,0.83,0.45,0.54,-0.31,
2.15,0.40,0.04,0.83,0.48,0.55,-0.29,
2.153,0.40,0.04,0.83,0.51,0.56,-0.26,
2.153,0.40,0.04,0.83,0.54,0.58,-0.24,
2.154,0.21,0.14,0.96,0.54,0.58,-0.24,
2.156,0.21,0.14,0.96,0.56,0.60,-0.20,
2.159,0.21,0.14,0.96,0.58,0.60,-0.17,
2.178,0.18,0.46,1.14,0.58,0.60,-0.17,
2.178,0.18,0.46,1.14,0.59,0.58,-0.14,
2.178,0.18,0.46,1.14,0.60,0.57,-0.11,
2.179,0.01,0.61,1.13,0.60,0.57,-0.11,
2.179,0.01,0.61,1.13,0.60,0.55,-0.08,
2.179,0.01,0.61,1.13,0.59,0.53,-0.05,
2.179,-0.39,0.70,1.14,0.59,0.53,-0.05,
2.18,-0.39,0.70,1.14,0.58,0.51,-0.01,
2.18,-0.39,0.70,1.14,0.57,0.50,0.02,
2.18,-0.54,1.03,1.01,0.57,0.50,0.02,
2.18,-0.54,1.03,1.01,0.55,0.48,0.05,
2.181,-0.45,1.45,0.88,0.55,0.48,0.05,
2.181,-0.45,1.45,0.88,0.53,0.45,0.07,
2.181,-0.45,1.45,0.88,0.50,0.42,0.08,
2.193,-0.42,1.73,0.46,0.50,0.42,0.08,
2.193,-0.42,1.73,0.46,0.47,0.39,0.09,
2.195,-0.42,1.73,0.46,0.43,0.37,0.10,
2.195,-0.42,1.73,0.46,0.37,0.33,0.11,
2.195,-0.35,1.99,0.04,0.37,0.33,0.11,
2.196,-0.35,1.99,0.04,0.33,0.31,0.10,
2.196,-0.05,2.11,-0.37,0.33,0.31,0.10,
2.196,-0.05,2.11,-0.37,0.29,0.30,0.09,
2.196,-0.05,2.11,-0.37,0.25,0.30,0.08,
2.211,-0.05,2.11,-0.37,0.21,0.30,0.08,
2.211,0.05,2.12,-0.58,0.21,0.30,0.08,
2.211,0.05,2.12,-0.58,0.17,0.30,0.07,
2.212,0.26,2.12,-0.74,0.17,0.30,0.07,
2.212,0.26,2.12,-0.74,0.14,0.31,0.06,
2.212,0.26,2.12,-0.74,0.11,0.32,0.05,
2.212,0.57,2.06,-0.75,0.11,0.32,0.05,
2.213,0.57,2.06,-0.75,0.09,0.33,0.04,
2.213,0.57,2.06,-0.75,0.08,0.35,0.01,
2.213,0.57,2.06,-0.75,0.08,0.36,-0.02,
2.213,0.92,1.96,-0.68,0.08,0.36,-0.02,
2.216,0.92,1.96,-0.68,0.09,0.36,-0.05,
2.22,1.01,2.03,-0.55,0.09,0.36,-0.05,
2.221,1.01,2.03,-0.55,0.10,0.36,-0.08,
2.221,1.01,2.03,-0.55,0.12,0.37,-0.12,
2.223,1.01,2.03,-0.55,0.15,0.37,-0.15,
2.224,0.96,2.21,-0.37,0.15,0.37,-0.15,
2.225,0.96,2.21,-0.37,0.18,0.37,-0.18,
2.228,0.96,2.21,-0.37,0.21,0.38,-0.21,
2.228,1.02,2.14,-0.40,0.21,0.38,-0.21,
2.23,1.02,2.14,-0.40,0.24,0.37,-0.24,
2.233,1.02,2.14,-0.40,0.26,0.37,-0.28,
2.233,1.22,1.97,-0.49,0.26,0.37,-0.28,
2.235,1.22,1.97,-0.49,0.27,0.37,-0.31,
2.238,1.47,1.92,-0.55,0.27,0.37,-0.31,
2.238,1.47,1.92,-0.55,0.28,0.37,-0.35,
2.24,1.47,1.92,-0.55,0.29,0.39,-0.39,
2.243,1.47,1.92,-0.55,0.30,0.41,-0.42,
2.243,1.62,1.75,-0.44,0.30,0.41,-0.42,
2.245,1.62,1.75,-0.44,0.31,0.43,-0.44,
2.249,1.62,1.75,-0.44,0.32,0.45,-0.46,
2.249,1.53,1.43,-0.29,0.32,0.45,-0.46,
2.25,1.53,1.43,-0.29,0.33,0.46,-0.48,
2.253,1.53,1.43,-0.29,0.34,0.46,-0.48,
2.253,1.56,1.16,-0.13,0.34,0.46,-0.48,
2.259,1.62,1.07,-0.06,0.34,0.46,-0.48,
2.259,1.62,1.07,-0.06,0.35,0.47,-0.49,
2.259,1.62,1.07,-0.06,0.36,0.47,-0.49,
2.262,1.62,1.07,-0.06,0.37,0.48,-0.48,
2.264,1.71,1.04,-0.03,0.37,0.48,-0.48,
2.265,1.71,1.04,-0.03,0.38,0.49,-0.48,
2.266,1.71,1.04,-0.03,0.40,0.50,-0.47,
2.269,1.71,1.04,-0.03,0.41,0.52,-0.46,
2.269,1.84,1.08,-0.10,0.41,0.52,-0.46,
2.27,1.84,1.08,-0.10,0.41,0.53,-0.44,
2.272,1.84,1.08,-0.10,0.41,0.53,-0.42,
2.272,1.90,1.11,-0.31,0.41,0.53,-0.42,
2.277,1.90,1.11,-0.31,0.41,0.53,-0.40,
2.278,1.90,1.11,-0.31,0.40,0.52,-0.37,
2.278,1.91,0.98,-0.52,0.40,0.52,-0.37,
2.28,1.91,0.98,-0.52,0.39,0.51,-0.34,
2.286,1.97,0.80,-0.64,0.39,0.51,-0.34,
2.286,1.97,0.80,-0.64,0.37,0.49,-0.31,
2.286,1.97,0.80,-0.64,0.36,0.47,-0.28,
2.287,1.97,0.80,-0.64,0.35,0.45,-0.26,
2.288,1.92,0.59,-0.66,0.35,0.45,-0.26,
2.292,1.92,0.59,-0.66,0.34,0.44,-0.23,
2.293,1.92,0.59,-0.66,0.33,0.42,-0.20,
2.293,1.79,0.49,-0.59,0.33,0.42,-0.20,
2.316,1.79,0.49,-0.59,0.33,0.41,-0.17,
2.317,1.79,0.49,-0.59,0.33,0.39,-0.15,
2.317,1.63,0.44,-0.59,0.33,0.39,-0.15,
2.317,1.63,0.44,-0.59,0.33,0.37,-0.13,
2.318,1.63,0.44,-0.59,0.33,0.36,-0.11,
2.318,1.47,0.34,-0.68,0.33,0.36,-0.11,
2.318,1.47,0.34,-0.68,0.33,0.34,-0.10,
2.319,1.47,0.34,-0.68,0.33,0.33,-0.09,
2.319,1.39,0.18,-0.85,0.33,0.33,-0.09,
2.319,1.39,0.18,-0.85,0.33,0.33,-0.07,
2.32,1.21,0.11,-0.89,0.33,0.33,-0.07,
2.32,1.21,0.11,-0.89,0.32,0.32,-0.06,
2.32,1.21,0.11,-0.89,0.32,0.31,-0.05,
2.321,1.11,0.03,-0.94,0.32,0.31,-0.05,
2.321,1.11,0.03,-0.94,0.32,0.33,-0.05,
2.321,1.11,0.03,-0.94,0.32,0.34,-0.04,
2.323,1.11,0.03,-0.94,0.32,0.35,-0.04,
2.324,1.02,-0.01,-1.03,0.32,0.35,-0.04,
2.348,1.02,-0.01,-1.03,0.31,0.36,-0.04,
2.348,1.02,-0.01,-1.03,0.31,0.38,-0.03,
2.348,0.95,-0.05,-1.12,0.31,0.38,-0.03,
2.348,0.95,-0.05,-1.12,0.31,0.40,-0.03,
2.348,0.95,-0.05,-1.12,0.30,0.43,-0.03,
2.349,0.90,0.04,-1.15,0.30,0.43,-0.03,
2.349,0.90,0.04,-1.15,0.30,0.45,-0.03,
2.349,0.90,0.04,-1.15,0.30,0.48,-0.02,
2.349,0.91,0.06,-1.22,0.30,0.48,-0.02,
2.349,0.91,0.06,-1.22,0.29,0.51,-0.02,
2.349,0.91,0.06,-1.22,0.29,0.54,-0.02,
2.35,0.91,0.09,-1.28,0.29,0.54,-0.02,
2.35,0.91,0.09,-1.28,0.29,0.56,-0.01,
2.35,0.91,0.09,-1.28,0.28,0.59,-0.00,
2.35,0.94,0.16,-1.33,0.28,0.59,-0.00,
2.35,0.94,0.16,-1.33,0.28,0.62,0.01,
2.355,0.94,0.16,-1.33,0.28,0.64,0.02,
2.355,1.02,0.92,-1.25,0.28,0.64,0.02,
2.355,1.02,0.92,-1.25,0.29,0.66,0.04,
2.358,1.02,0.92,-1.25,0.30,0.68,0.05,
2.36,1.01,0.77,-1.57,0.30,0.68,0.05,
2.36,1.01,0.77,-1.57,0.30,0.71,0.07,
2.363,1.16,0.48,-1.73,0.30,0.71,0.07,
2.364,1.16,0.48,-1.73,0.30,0.74,0.08,
2.366,1.16,0.48,-1.73,0.30,0.77,0.09,
2.374,1.16,0.48,-1.73,0.29,0.79,0.11,
2.375,1.22,0.62,-1.88,0.29,0.79,0.11,
2.375,1.22,0.62,-1.88,0.28,0.81,0.13,
2.376,1.22,0.62,-1.88,0.28,0.83,0.15,
2.376,1.21,0.53,-1.95,0.28,0.83,0.15,
2.377,1.21,0.53,-1.95,0.27,0.85,0.17,
2.377,1.21,0.53,-1.95,0.26,0.86,0.19,
2.377,1.10,0.45,-2.05,0.26,0.86,0.19,
2.383,1.10,0.45,-2.05,0.26,0.88,0.22,
2.383,1.10,0.45,-2.05,0.25,0.89,0.25,
2.384,0.96,0.43,-2.17,0.25,0.89,0.25,
2.384,0.96,0.43,-2.17,0.24,0.91,0.27,
2.395,0.96,0.43,-2.17,0.23,0.92,0.30,
2.395,0.81,0.43,-2.25,0.23,0.92,0.30,
2.396,0.81,0.43,-2.25,0.22,0.92,0.32,
2.396,0.81,0.43,-2.25,0.21,0.92,0.34,
2.396,0.65,0.34,-2.30,0.21,0.92,0.34,
2.396,0.65,0.34,-2.30,0.20,0.93,0.36,
2.397,0.65,0.34,-2.30,0.19,0.94,0.38,
2.397,0.52,0.41,-2.39,0.19,0.94,0.38,
2.399,0.52,0.41,-2.39,0.19,0.94,0.39,
2.404,0.52,0.41,-2.39,0.18,0.94,0.40,
2.405,0.49,0.39,-2.40,0.18,0.94,0.40,
2.405,0.49,0.39,-2.40,0.17,0.94,0.41,
2.407,0.49,0.39,-2.40,0.17,0.94,0.41,
2.407,0.36,0.25,-2.35,0.17,0.94,0.41,
2.409,0.36,0.25,-2.35,0.17,0.94,0.41,
2.411,0.36,0.25,-2.35,0.16,0.93,0.41,
2.411,0.17,0.11,-2.27,0.16,0.93,0.41,
2.413,0.17,0.11,-2.27,0.16,0.92,0.41,
2.416,0.17,0.11,-2.27,0.16,0.90,0.41,
2.416,-0.00,0.06,-2.08,0.16,0.90,0.41,
2.418,-0.00,0.06,-2.08,0.16,0.87,0.40,
2.421,-0.00,0.06,-2.08,0.16,0.84,0.39,
2.421,-0.14,0.10,-1.89,0.16,0.84,0.39,
2.425,-0.14,0.10,-1.89,0.16,0.80,0.37,
2.426,-0.14,0.10,-1.89,0.16,0.76,0.35,
2.426,-0.29,-0.00,-1.72,0.16,0.76,0.35,
2.429,-0.29,-0.00,-1.72,0.17,0.73,0.32,
2.431,-0.29,-0.00,-1.72,0.18,0.69,0.30,
2.431,-0.42,-0.19,-1.56,0.18,0.69,0.30,
2.434,-0.42,-0.19,-1.56,0.19,0.64,0.27,
2.436,-0.42,-0.19,-1.56,0.20,0.59,0.24,
2.436,-0.61,-0.26,-1.30,0.20,0.59,0.24,
2.438,-0.61,-0.26,-1.30,0.21,0.53,0.21,
2.441,-0.80,-0.51,-0.82,0.21,0.53,0.21,
2.441,-0.80,-0.51,-0.82,0.22,0.45,0.18,
2.443,-0.80,-0.51,-0.82,0.24,0.37,0.15,
2.446,-0.80,-0.51,-0.82,0.25,0.27,0.11,
2.446,-0.93,-0.73,-0.22,0.25,0.27,0.11,
2.449,-0.93,-0.73,-0.22,0.26,0.18,0.08,
2.451,-0.93,-0.73,-0.22,0.27,0.09,0.05,
2.452,-1.04,-1.04,0.10,0.27,0.09,0.05,
2.453,-1.04,-1.04,0.10,0.28,0.01,0.02,
2.456,-1.04,-1.04,0.10,0.30,-0.04,0.01,
2.456,-1.10,-1.44,0.10,0.30,-0.04,0.01,
2.458,-1.10,-1.44,0.10,0.31,-0.07,-0.01,
2.461,-1.10,-1.44,0.10,0.32,-0.09,-0.02,
2.461,-0.97,-1.71,-0.29,0.32,-0.09,-0.02,
2.463,-0.97,-1.71,-0.29,0.32,-0.10,-0.03,
2.466,-0.97,-1.71,-0.29,0.32,-0.11,-0.04,
2.466,-0.64,-1.92,-0.87,0.32,-0.11,-0.04,
2.468,-0.64,-1.92,-0.87,0.32,-0.12,-0.06,
2.471,-0.39,-2.18,-1.63,0.32,-0.12,-0.06,
2.471,-0.39,-2.18,-1.63,0.31,-0.13,-0.08,
2.473,-0.39,-2.18,-1.63,0.31,-0.13,-0.10,
2.475,-0.20,-2.37,-2.51,0.31,-0.13,-0.10,
2.476,-0.20,-2.37,-2.51,0.30,-0.11,-0.12,
2.478,-0.20,-2.37,-2.51,0.29,-0.09,-0.14,
2.481,-0.20,-2.37,-2.51,0.29,-0.06,-0.15,
2.481,-0.10,-2.56,-3.40,0.29,-0.06,-0.15,
2.485,-0.10,-2.56,-3.40,0.27,-0.02,-0.17,
2.486,-0.05,-2.74,-4.09,0.27,-0.02,-0.17,
2.486,-0.05,-2.74,-4.09,0.26,0.01,-0.19,
2.488,-0.05,-2.74,-4.09,0.25,0.05,-0.21,
2.511,-0.05,-2.74,-4.09,0.23,0.09,-0.22,
2.511,-0.15,-2.90,-4.53,0.23,0.09,-0.22,
2.511,-0.15,-2.90,-4.53,0.22,0.13,-0.24,
2.512,-0.15,-2.90,-4.53,0.20,0.16,-0.26,
2.512,-0.30,-2.95,-4.65,0.20,0.16,-0.26,
2.512,-0.30,-2.95,-4.65,0.19,0.19,-0.27,
2.513,-0.30,-2.95,-4.65,0.18,0.21,-0.29,
2.513,-0.46,-2.91,-4.41,0.18,0.21,-0.29,
2.515,-0.46,-2.91,-4.41,0.17,0.22,-0.30,
2.517,-0.46,-2.91,-4.41,0.16,0.21,-0.31,
2.518,-0.63,-2.80,-3.96,0.16,0.21,-0.31,
2.519,-0.63,-2.80,-3.96,0.15,0.20,-0.31,
2.519,-0.63,-2.80,-3.96,0.13,0.18,-0.31,
2.519,-0.82,-2.58,-3.23,0.13,0.18,-0.31,
2.52,-0.82,-2.58,-3.23,0.12,0.14,-0.30,
2.52,-1.03,-2.34,-2.22,0.12,0.14,-0.30,
2.521,-1.03,-2.34,-2.22,0.11,0.09,-0.28,
2.521,-1.03,-2.34,-2.22,0.11,0.03,-0.26,
2.522,-1.03,-2.34,-2.22,0.11,-0.03,-0.24,
2.522,-1.14,-2.21,-0.90,0.11,-0.03,-0.24,
2.527,-1.14,-2.21,-0.90,0.11,-0.12,-0.22,
2.53,-0.96,-2.07,0.64,0.11,-0.12,-0.22,
2.53,-0.96,-2.07,0.64,0.12,-0.20,-0.19,
2.53,-0.96,-2.07,0.64,0.15,-0.30,-0.18,
2.53,-0.65,-2.03,2.13,0.15,-0.30,-0.18,
2.531,-0.65,-2.03,2.13,0.17,-0.40,-0.16,
2.532,-0.65,-2.03,2.13,0.19,-0.52,-0.15,
2.535,-0.63,-2.42,3.74,0.19,-0.52,-0.15,
2.535,-0.63,-2.42,3.74,0.22,-0.66,-0.15,
2.537,-0.63,-2.42,3.74,0.26,-0.81,-0.15,
2.54,-0.63,-2.42,3.74,0.30,-0.94,-0.17,
2.54,-0.50,-2.85,4.98,0.30,-0.94,-0.17,
2.542,-0.50,-2.85,4.98,0.34,-1.08,-0.18,
2.545,-0.50,-2.85,4.98,0.38,-1.22,-0.19,
2.545,-0.35,-2.99,6.05,0.38,-1.22,-0.19,
2.547,-0.35,-2.99,6.05,0.43,-1.36,-0.22,
2.55,-0.25,-3.44,6.54,0.43,-1.36,-0.22,
2.551,-0.25,-3.44,6.54,0.48,-1.47,-0.24,
2.552,-0.25,-3.44,6.54,0.52,-1.56,-0.28,
2.555,-0.25,-3.44,6.54,0.55,-1.63,-0.32,
2.555,-0.39,-3.99,6.39,0.55,-1.63,-0.32,
2.559,-0.39,-3.99,6.39,0.57,-1.68,-0.35,
2.561,-0.39,-3.99,6.39,0.58,-1.70,-0.39,
2.561,-0.69,-4.41,5.76,0.58,-1.70,-0.39,
2.563,-0.69,-4.41,5.76,0.58,-1.70,-0.42,
2.565,-0.69,-4.41,5.76,0.55,-1.66,-0.46,
2.565,-0.95,-4.82,4.45,0.55,-1.66,-0.46,
2.568,-0.95,-4.82,4.45,0.51,-1.55,-0.49,
2.571,-0.95,-4.82,4.45,0.45,-1.40,-0.52,
2.571,-1.42,-4.83,3.03,0.45,-1.40,-0.52,
2.572,-1.42,-4.83,3.03,0.38,-1.21,-0.55,
2.575,-1.42,-4.83,3.03,0.30,-1.00,-0.57,
2.575,-1.84,-4.34,1.86,0.30,-1.00,-0.57,
2.577,-1.84,-4.34,1.86,0.21,-0.79,-0.57,
2.58,-1.84,-4.34,1.86,0.11,-0.61,-0.57,
2.58,-2.23,-3.44,1.44,0.11,-0.61,-0.57,
2.584,-2.23,-3.44,1.44,0.01,-0.45,-0.56,
2.588,-2.29,-2.19,1.35,0.01,-0.45,-0.56,
2.589,-2.29,-2.19,1.35,-0.08,-0.33,-0.54,
2.589,-2.29,-2.19,1.35,-0.17,-0.25,-0.51,
2.59,-2.03,-0.93,1.85,-0.17,-0.25,-0.51,
2.59,-2.03,-0.93,1.85,-0.25,-0.21,-0.48,
2.592,-2.03,-0.93,1.85,-0.32,-0.20,-0.46,
2.595,-1.59,0.09,2.39,-0.32,-0.20,-0.46,
2.595,-1.59,0.09,2.39,-0.38,-0.20,-0.43,
2.597,-1.59,0.09,2.39,-0.42,-0.22,-0.40,
2.608,-1.59,0.09,2.39,-0.44,-0.23,-0.37,
2.609,-1.33,0.88,3.05,-0.44,-0.23,-0.37,
2.609,-1.33,0.88,3.05,-0.45,-0.22,-0.34,
2.609,-1.33,0.88,3.05,-0.44,-0.21,-0.30,
2.609,-1.19,1.55,3.69,-0.44,-0.21,-0.30,
2.609,-1.19,1.55,3.69,-0.42,-0.21,-0.26,
2.61,-0.89,1.93,4.18,-0.42,-0.21,-0.26,
2.61,-0.89,1.93,4.18,-0.39,-0.20,-0.23,
2.612,-0.89,1.93,4.18,-0.35,-0.19,-0.18,
2.614,-0.89,1.93,4.18,-0.30,-0.17,-0.14,
2.615,-1.00,2.34,4.45,-0.30,-0.17,-0.14,
2.617,-1.00,2.34,4.45,-0.25,-0.15,-0.08,
2.619,-1.00,2.34,4.45,-0.19,-0.13,-0.03,
2.62,-1.22,2.74,4.84,-0.19,-0.13,-0.03,
2.623,-1.22,2.74,4.84,-0.11,-0.10,0.02,
2.625,-1.22,2.74,4.84,-0.04,-0.08,0.07,
2.625,-1.14,3.18,5.16,-0.04,-0.08,0.07,
2.626,-1.14,3.18,5.16,0.04,-0.05,0.13,
2.63,-1.14,3.18,5.16,0.13,-0.03,0.18,
2.63,-1.06,3.41,5.28,0.13,-0.03,0.18,
2.632,-1.06,3.41,5.28,0.21,-0.01,0.22,
2.635,-1.06,3.41,5.28,0.29,0.02,0.26,
2.635,-0.94,3.41,5.21,0.29,0.02,0.26,
2.637,-0.94,3.41,5.21,0.36,0.05,0.30,
2.64,-0.76,3.19,5.12,0.36,0.05,0.30,
2.64,-0.76,3.19,5.12,0.43,0.08,0.33,
2.642,-0.76,3.19,5.12,0.50,0.11,0.35,
2.644,-0.67,2.83,5.05,0.50,0.11,0.35,
2.645,-0.67,2.83,5.05,0.56,0.15,0.36,
2.647,-0.67,2.83,5.05,0.61,0.19,0.38,
2.652,-0.64,2.34,4.81,0.61,0.19,0.38,
2.652,-0.64,2.34,4.81,0.65,0.22,0.38,
2.652,-0.64,2.34,4.81,0.68,0.26,0.39,
2.655,-0.71,1.71,4.27,0.68,0.26,0.39,
2.675,-0.71,1.71,4.27,0.70,0.31,0.39,
2.675,-0.71,1.71,4.27,0.72,0.36,0.38,
2.675,-0.57,1.14,3.52,0.72,0.36,0.38,
2.675,-0.57,1.14,3.52,0.72,0.42,0.37,
2.675,-0.57,1.14,3.52,0.72,0.48,0.35,
2.676,-0.57,1.14,3.52,0.71,0.55,0.33,
2.676,-0.44,0.73,2.73,0.71,0.55,0.33,
2.676,-0.44,0.73,2.73,0.71,0.63,0.30,
2.676,-0.44,0.73,2.73,0.70,0.71,0.28,
2.676,-0.33,0.45,1.94,0.70,0.71,0.28,
2.676,-0.33,0.45,1.94,0.69,0.79,0.25,
2.677,-0.10,0.11,1.13,0.69,0.79,0.25,
2.678,-0.10,0.11,1.13,0.67,0.86,0.23,
2.678,-0.10,0.11,1.13,0.65,0.92,0.20,
2.679,0.16,-0.10,0.52,0.65,0.92,0.20,
2.681,0.16,-0.10,0.52,0.64,0.97,0.18,
2.681,0.16,-0.10,0.52,0.61,1.01,0.16,
2.684,0.16,-0.10,0.52,0.58,1.03,0.14,
2.685,0.41,-0.27,-0.11,0.58,1.03,0.14,
2.686,0.41,-0.27,-0.11,0.54,1.04,0.12,
2.69,0.41,-0.27,-0.11,0.50,1.02,0.10,
2.69,0.57,-0.45,-0.85,0.50,1.02,0.10,
2.691,0.57,-0.45,-0.85,0.44,1.00,0.09,
2.694,0.57,-0.45,-0.85,0.39,0.96,0.08,
2.695,0.67,-0.58,-1.34,0.39,0.96,0.08,
2.697,0.67,-0.58,-1.34,0.33,0.91,0.08,
2.699,0.67,-0.58,-1.34,0.28,0.85,0.08,
2.7,0.86,-0.68,-1.65,0.28,0.85,0.08,
2.707,0.86,-0.68,-1.65,0.22,0.80,0.08,
2.708,1.10,-0.75,-1.60,0.22,0.80,0.08,
2.708,1.10,-0.75,-1.60,0.17,0.75,0.08,
2.709,1.10,-0.75,-1.60,0.14,0.70,0.08,
2.717,1.31,-0.56,-1.61,0.14,0.70,0.08,
2.717,1.57,-0.22,-1.69,0.14,0.70,0.08,
2.718,1.57,-0.22,-1.69,0.09,0.65,0.08,
2.718,1.57,-0.22,-1.69,0.05,0.62,0.08,
2.718,1.57,-0.22,-1.69,-0.00,0.58,0.07,
2.719,1.57,-0.22,-1.69,-0.05,0.55,0.07,
2.732,1.54,0.26,-0.93,-0.05,0.55,0.07,
2.735,1.54,0.26,-0.93,-0.08,0.51,0.07,
2.735,1.54,0.26,-0.93,-0.10,0.47,0.07,
2.736,1.54,0.26,-0.93,-0.09,0.44,0.08,
2.737,1.39,0.59,-0.05,-0.09,0.44,0.08,
2.737,1.39,0.59,-0.05,-0.08,0.39,0.10,
2.738,1.39,0.59,-0.05,-0.07,0.34,0.13,
2.738,1.18,0.74,0.29,-0.07,0.34,0.13,
2.739,1.18,0.74,0.29,-0.06,0.27,0.16,
2.739,1.18,0.74,0.29,-0.05,0.19,0.18,
2.739,1.22,0.89,0.53,-0.05,0.19,0.18,
2.74,1.22,0.89,0.53,-0.04,0.11,0.20,
2.74,1.22,0.89,0.53,-0.03,0.04,0.20,
2.741,1.69,1.06,0.52,-0.03,0.04,0.20,
2.741,1.69,1.06,0.52,-0.01,-0.03,0.20,
2.744,1.69,1.06,0.52,-0.00,-0.09,0.19,
2.745,1.92,1.32,0.50,-0.00,-0.09,0.19,
2.746,1.92,1.32,0.50,0.01,-0.14,0.19,
2.752,1.92,1.32,0.50,0.03,-0.18,0.19,
2.753,1.67,1.61,0.47,0.03,-0.18,0.19,
2.754,1.67,1.61,0.47,0.04,-0.20,0.20,
2.754,1.67,1.61,0.47,0.05,-0.21,0.21,
2.754,1.46,1.77,0.35,0.05,-0.21,0.21,
2.756,1.46,1.77,0.35,0.07,-0.21,0.24,
2.759,1.46,1.77,0.35,0.09,-0.21,0.26,
2.759,1.27,1.99,0.57,0.09,-0.21,0.26,
2.76,1.27,1.99,0.57,0.10,-0.20,0.28,
2.764,1.27,1.99,0.57,0.11,-0.19,0.30,
2.764,0.98,2.26,0.51,0.11,-0.19,0.30,
2.767,0.98,2.26,0.51,0.12,-0.18,0.33,
2.769,0.67,2.48,0.46,0.12,-0.18,0.33,
2.769,0.67,2.48,0.46,0.12,-0.18,0.35,
2.77,0.67,2.48,0.46,0.12,-0.16,0.36,
2.773,0.67,2.48,0.46,0.11,-0.13,0.38,
2.773,0.56,2.57,0.42,0.11,-0.13,0.38,
2.775,0.56,2.57,0.42,0.11,-0.10,0.39,
2.778,0.56,2.57,0.42,0.10,-0.08,0.40,
2.778,0.51,2.56,0.34,0.10,-0.08,0.40,
2.78,0.51,2.56,0.34,0.08,-0.05,0.39,
2.783,0.51,2.56,0.34,0.07,-0.01,0.39,
2.784,0.61,2.56,0.08,0.07,-0.01,0.39,
2.785,0.61,2.56,0.08,0.05,0.02,0.38,
2.789,0.61,2.56,0.08,0.03,0.04,0.37,
2.789,0.66,2.48,-0.09,0.03,0.04,0.37,
2.79,0.66,2.48,-0.09,-0.00,0.06,0.36,
2.793,0.19,2.45,-0.34,-0.00,0.06,0.36,
2.793,0.19,2.45,-0.34,-0.03,0.09,0.35,
2.795,0.19,2.45,-0.34,-0.06,0.12,0.34,
2.798,0.19,2.45,-0.34,-0.10,0.15,0.33,
2.798,0.20,2.28,-0.53,-0.10,0.15,0.33,
2.802,0.20,2.28,-0.53,-0.13,0.17,0.31,
2.804,0.34,2.14,-0.46,-0.13,0.17,0.31,
2.804,0.34,2.14,-0.46,-0.15,0.19,0.28,
2.805,0.34,2.14,-0.46,-0.17,0.21,0.25,
2.809,0.39,2.06,-0.30,-0.17,0.21,0.25,
2.809,0.39,2.06,-0.30,-0.18,0.23,0.22,
2.815,0.39,2.06,-0.30,-0.18,0.23,0.19,
2.816,0.39,2.06,-0.30,-0.18,0.21,0.15,
2.816,0.39,2.06,-0.30,-0.17,0.18,0.12,
2.816,0.39,1.88,-0.19,-0.17,0.18,0.12,
2.834,0.39,1.88,-0.19,-0.16,0.14,0.09,
2.835,0.47,1.64,-0.13,-0.16,0.14,0.09,
2.858,0.47,1.64,-0.13,-0.14,0.09,0.06,
2.859,0.47,1.64,-0.13,-0.11,0.04,0.03,
2.859,0.54,1.47,-0.20,-0.11,0.04,0.03,
2.859,0.54,1.47,-0.20,-0.09,-0.02,0.00,
2.859,0.54,1.47,-0.20,-0.06,-0.06,-0.02,
2.859,0.63,1.30,-0.40,-0.06,-0.06,-0.02,
2.859,0.63,1.30,-0.40,-0.03,-0.10,-0.05,
2.86,0.72,1.10,-0.65,-0.03,-0.10,-0.05,
2.86,0.72,1.10,-0.65,-0.01,-0.14,-0.07,
2.86,0.72,1.10,-0.65,0.02,-0.17,-0.09,
2.86,0.73,1.03,-0.88,0.02,-0.17,-0.09,
2.86,0.73,1.03,-0.88,0.04,-0.19,-0.11,
2.861,0.73,1.03,-0.88,0.05,-0.21,-0.12,
2.861,0.73,1.03,-0.88,0.06,-0.23,-0.14,
2.861,0.72,1.06,-1.00,0.06,-0.23,-0.14,
2.861,0.72,1.06,-1.00,0.07,-0.24,-0.15,
2.861,0.72,1.06,-1.00,0.07,-0.25,-0.16,
2.861,0.68,1.14,-1.04,0.07,-0.25,-0.16,
2.862,0.68,1.14,-1.04,0.07,-0.25,-0.17,
2.862,0.48,1.23,-0.92,0.07,-0.25,-0.17,
2.862,0.48,1.23,-0.92,0.07,-0.27,-0.17,
2.862,0.48,1.23,-0.92,0.06,-0.28,-0.17,
2.862,0.48,1.23,-0.92,0.06,-0.29,-0.18,
2.862,0.41,1.26,-0.78,0.06,-0.29,-0.18,
2.863,0.41,1.26,-0.78,0.05,-0.29,-0.18,
2.863,0.41,1.26,-0.78,0.05,-0.29,-0.18,
2.863,0.39,1.28,-0.69,0.05,-0.29,-0.18,
2.864,0.39,1.28,-0.69,0.04,-0.28,-0.19,
2.87,0.30,1.26,-0.64,0.04,-0.28,-0.19,
2.871,0.30,1.26,-0.64,0.03,-0.28,-0.19,
2.871,0.30,1.26,-0.64,0.02,-0.28,-0.19,
2.873,0.20,1.22,-0.71,0.02,-0.28,-0.19,
2.873,0.20,1.22,-0.71,0.00,-0.27,-0.19,
2.875,0.20,1.22,-0.71,-0.01,-0.27,-0.19,
2.877,0.20,1.22,-0.71,-0.02,-0.27,-0.19,
2.878,0.17,1.26,-0.70,-0.02,-0.27,-0.19,
2.88,0.17,1.26,-0.70,-0.04,-0.27,-0.19,
2.883,0.03,1.35,-0.87,-0.04,-0.27,-0.19,
2.883,0.03,1.35,-0.87,-0.06,-0.25,-0.19,
2.885,0.03,1.35,-0.87,-0.07,-0.23,-0.18,
2.888,-0.03,1.43,-0.99,-0.07,-0.23,-0.18,
2.889,-0.03,1.43,-0.99,-0.08,-0.20,-0.18,
2.889,-0.03,1.43,-0.99,-0.10,-0.17,-0.18,
2.892,-0.03,1.43,-0.99,-0.11,-0.14,-0.18,
2.892,-0.19,1.53,-1.21,-0.11,-0.14,-0.18,
2.894,-0.19,1.53,-1.21,-0.13,-0.10,-0.18,
2.897,-0.19,1.53,-1.21,-0.15,-0.07,-0.17,
2.897,-0.33,1.60,-1.42,-0.15,-0.07,-0.17,
2.903,-0.33,1.60,-1.42,-0.17,-0.04,-0.17,
2.903,-0.33,1.60,-1.42,-0.19,-0.01,-0.17,
2.904,-0.52,1.65,-1.63,-0.19,-0.01,-0.17,
2.904,-0.52,1.65,-1.63,-0.22,0.01,-0.17,
2.909,-0.52,1.65,-1.63,-0.24,0.04,-0.16,
2.91,-0.80,1.71,-1.83,-0.24,0.04,-0.16,
2.91,-0.80,1.71,-1.83,-0.26,0.06,-0.16,
2.913,-0.80,1.71,-1.83,-0.29,0.07,-0.15,
2.913,-1.03,1.74,-1.89,-0.29,0.07,-0.15,
2.915,-1.03,1.74,-1.89,-0.31,0.09,-0.15,
2.946,-1.25,1.78,-1.91,-0.31,0.09,-0.15,
2.947,-1.25,1.78,-1.91,-0.33,0.11,-0.14,
2.947,-1.25,1.78,-1.91,-0.34,0.12,-0.13,
2.948,-1.25,1.78,-1.91,-0.36,0.12,-0.12,
2.948,-1.50,1.77,-1.78,-0.36,0.12,-0.12,
2.948,-1.50,1.77,-1.78,-0.37,0.11,-0.11,
2.949,-1.50,1.77,-1.78,-0.39,0.08,-0.10,
2.949,-1.72,1.71,-1.64,-0.39,0.08,-0.10,
2.949,-1.72,1.71,-1.64,-0.39,0.06,-0.09,
2.95,-1.85,1.69,-1.37,-0.39,0.06,-0.09,
2.95,-1.85,1.69,-1.37,-0.39,0.04,-0.08,
2.95,-1.85,1.69,-1.37,-0.38,0.02,-0.07,
2.951,-1.85,1.69,-1.37,-0.37,0.00,-0.07,
2.951,-1.90,1.61,-1.11,-0.37,0.00,-0.07,
2.951,-1.90,1.61,-1.11,-0.35,-0.03,-0.06,
2.952,-1.90,1.61,-1.11,-0.33,-0.06,-0.06,
2.952,-1.89,1.52,-0.90,-0.33,-0.06,-0.06,
2.952,-1.89,1.52,-0.90,-0.31,-0.09,-0.06,
2.953,-1.84,1.40,-0.60,-0.31,-0.09,-0.06,
2.953,-1.84,1.40,-0.60,-0.29,-0.13,-0.06,
2.953,-1.84,1.40,-0.60,-0.26,-0.17,-0.06,
2.958,-1.75,1.40,-0.34,-0.26,-0.17,-0.06,
2.959,-1.75,1.40,-0.34,-0.23,-0.20,-0.05,
2.959,-1.75,1.40,-0.34,-0.20,-0.23,-0.04,
2.96,-1.67,1.33,-0.11,-0.20,-0.23,-0.04,
2.96,-1.67,1.33,-0.11,-0.17,-0.27,-0.04,
2.96,-1.67,1.33,-0.11,-0.15,-0.30,-0.03,
2.965,-1.43,1.25,-0.01,-0.15,-0.30,-0.03,
2.965,-1.43,1.25,-0.01,-0.13,-0.33,-0.03,
2.966,-1.43,1.25,-0.01,-0.11,-0.34,-0.02,
2.971,-1.43,1.25,-0.01,-0.09,-0.34,-0.02,
2.971,-1.32,1.16,-0.01,-0.09,-0.34,-0.02,
2.971,-1.32,1.16,-0.01,-0.07,-0.33,-0.01,
2.972,-1.11,1.10,-0.09,-0.07,-0.33,-0.01,
2.972,-1.11,1.10,-0.09,-0.06,-0.31,-0.01,
2.975,-1.11,1.10,-0.09,-0.06,-0.29,-0.00,
2.976,-1.11,1.10,-0.09,-0.06,-0.25,-0.00,
2.976,-0.99,1.12,-0.38,-0.06,-0.25,-0.00,
2.979,-0.99,1.12,-0.38,-0.07,-0.21,-0.00,
2.981,-0.99,1.12,-0.38,-0.07,-0.16,0.00,
2.981,-1.01,1.27,-0.76,-0.07,-0.16,0.00,
2.985,-1.01,1.27,-0.76,-0.09,-0.10,0.01,
3.009,-1.01,1.27,-0.76,-0.11,-0.05,0.01,
3.009,-1.26,1.51,-1.25,-0.11,-0.05,0.01,
3.009,-1.26,1.51,-1.25,-0.13,-0.00,0.02,
3.009,-1.26,1.51,-1.25,-0.16,0.04,0.04,
3.01,-2.03,1.71,-1.68,-0.16,0.04,0.04,
3.01,-2.03,1.71,-1.68,-0.19,0.07,0.08,
3.01,-3.07,1.69,-2.08,-0.19,0.07,0.08,
3.01,-3.07,1.69,-2.08,-0.21,0.10,0.11,
3.011,-3.07,1.69,-2.08,-0.24,0.11,0.15,
3.011,-3.85,1.56,-2.36,-0.24,0.11,0.15,
3.011,-3.85,1.56,-2.36,-0.25,0.12,0.18,
3.012,-3.85,1.56,-2.36,-0.26,0.13,0.21,
3.012,-4.55,1.34,-2.51,-0.26,0.13,0.21,
3.012,-4.55,1.34,-2.51,-0.26,0.14,0.24,
3.012,-4.55,1.34,-2.51,-0.25,0.14,0.27,
3.013,-4.55,1.34,-2.51,-0.24,0.14,0.29,
3.013,-4.88,0.99,-2.44,-0.24,0.14,0.29,
3.019,-4.88,0.99,-2.44,-0.23,0.13,0.30,
3.019,-4.88,0.99,-2.44,-0.21,0.10,0.31,
3.02,-5.07,0.47,-1.94,-0.21,0.10,0.31,
3.023,-5.20,-0.13,-1.10,-0.21,0.10,0.31,
3.023,-5.20,-0.13,-1.10,-0.18,0.08,0.33,
3.023,-5.20,-0.13,-1.10,-0.15,0.04,0.35,
3.025,-5.20,-0.13,-1.10,-0.11,-0.00,0.37,
3.026,-5.20,-0.13,-1.10,-0.07,-0.05,0.37,
3.027,-4.54,-0.67,-0.03,-0.07,-0.05,0.37,
3.029,-4.54,-0.67,-0.03,-0.02,-0.11,0.35,
3.042,-4.54,-0.67,-0.03,0.01,-0.18,0.32,
3.042,-3.89,-0.99,1.18,0.01,-0.18,0.32,
3.042,-3.89,-0.99,1.18,0.05,-0.26,0.29,
3.043,-3.99,-1.48,2.48,0.05,-0.26,0.29,
3.043,-3.99,-1.48,2.48,0.09,-0.34,0.26,
3.043,-3.99,-1.48,2.48,0.11,-0.42,0.22,
3.043,-3.99,-1.48,2.48,0.12,-0.49,0.17,
3.043,-3.97,-1.76,4.03,0.12,-0.49,0.17,
3.044,-3.97,-1.76,4.03,0.14,-0.54,0.13,
3.046,-3.93,-1.89,5.46,0.14,-0.54,0.13,
3.046,-3.93,-1.89,5.46,0.15,-0.57,0.08,
3.048,-3.93,-1.89,5.46,0.16,-0.57,0.03,
3.051,-3.95,-2.01,6.49,0.16,-0.57,0.03,
3.051,-3.95,-2.01,6.49,0.16,-0.55,-0.02,
3.053,-3.95,-2.01,6.49,0.16,-0.52,-0.06,
3.056,-4.20,-2.38,7.09,0.16,-0.52,-0.06,
3.056,-4.20,-2.38,7.09,0.16,-0.48,-0.10,
3.058,-4.20,-2.38,7.09,0.14,-0.43,-0.13,
3.06,-4.20,-2.38,7.09,0.11,-0.39,-0.17,
3.061,-3.77,-2.85,7.08,0.11,-0.39,-0.17,
3.063,-3.77,-2.85,7.08,0.08,-0.34,-0.20,
3.066,-3.77,-2.85,7.08,0.03,-0.30,-0.23,
3.066,-3.12,-3.34,6.69,0.03,-0.30,-0.23,
3.069,-3.12,-3.34,6.69,-0.02,-0.26,-0.24,
3.071,-3.12,-3.34,6.69,-0.07,-0.21,-0.25,
3.071,-2.36,-3.79,5.94,-0.07,-0.21,-0.25,
3.074,-2.36,-3.79,5.94,-0.12,-0.18,-0.23,
3.076,-2.36,-3.79,5.94,-0.18,-0.15,-0.19,
3.077,-1.78,-4.17,4.96,-0.18,-0.15,-0.19,
3.079,-1.78,-4.17,4.96,-0.23,-0.11,-0.14,
3.081,-1.78,-4.17,4.96,-0.28,-0.09,-0.08,
3.081,-0.66,-4.21,4.12,-0.28,-0.09,-0.08,
3.088,-0.66,-4.21,4.12,-0.32,-0.06,-0.02,
3.089,-0.66,-4.21,4.12,-0.35,-0.04,0.04,
3.089,1.00,-3.87,3.48,-0.35,-0.04,0.04,
3.089,1.00,-3.87,3.48,-0.37,-0.04,0.10,
3.09,2.28,-3.63,3.12,-0.37,-0.04,0.10,
3.091,2.28,-3.63,3.12,-0.37,-0.04,0.15,
3.094,2.28,-3.63,3.12,-0.37,-0.03,0.20,
3.096,3.38,-3.64,2.60,-0.37,-0.03,0.20,
3.096,3.38,-3.64,2.60,-0.36,-0.03,0.24,
3.098,3.38,-3.64,2.60,-0.34,-0.04,0.26,
3.11,4.14,-3.60,2.43,-0.34,-0.04,0.26,
3.111,4.14,-3.60,2.43,-0.32,-0.07,0.28,
3.111,4.14,-3.60,2.43,-0.29,-0.12,0.29,
3.111,4.14,-3.60,2.43,-0.25,-0.17,0.30,
3.111,4.57,-3.70,2.21,-0.25,-0.17,0.30,
3.112,4.57,-3.70,2.21,-0.22,-0.22,0.31,
3.112,4.57,-3.70,2.21,-0.19,-0.28,0.31,
3.112,4.75,-3.83,1.73,-0.19,-0.28,0.31,
3.113,4.75,-3.83,1.73,-0.16,-0.33,0.32,
3.115,4.80,-3.99,1.31,-0.16,-0.33,0.32,
3.115,4.80,-3.99,1.31,-0.14,-0.38,0.31,
3.118,4.80,-3.99,1.31,-0.13,-0.42,0.31,
3.122,4.80,-3.99,1.31,-0.11,-0.45,0.29,
3.122,4.97,-4.19,0.89,-0.11,-0.45,0.29,
3.123,4.97,-4.19,0.89,-0.11,-0.48,0.27,
3.125,5.07,-4.30,0.42,-0.11,-0.48,0.27,
3.126,5.07,-4.30,0.42,-0.11,-0.49,0.25,
3.127,5.07,-4.30,0.42,-0.13,-0.49,0.22,
3.13,5.07,-4.30,0.42,-0.14,-0.47,0.19,
3.13,5.09,-4.33,-0.02,-0.14,-0.47,0.19,
3.132,5.09,-4.33,-0.02,-0.15,-0.43,0.15,
3.136,5.08,-4.20,-0.51,-0.15,-0.43,0.15,
3.136,5.08,-4.20,-0.51,-0.17,-0.38,0.12,
3.138,5.08,-4.20,-0.51,-0.18,-0.30,0.07,
3.14,5.08,-4.20,-0.51,-0.19,-0.22,0.02,
3.14,4.90,-4.10,-0.75,-0.19,-0.22,0.02,
3.142,4.90,-4.10,-0.75,-0.20,-0.15,-0.02,
3.145,4.90,-4.10,-0.75,-0.20,-0.08,-0.06,
3.145,4.41,-3.97,-1.00,-0.20,-0.08,-0.06,
3.147,4.41,-3.97,-1.00,-0.19,0.00,-0.10,
3.151,3.97,-3.73,-1.15,-0.19,0.00,-0.10,
3.174,3.97,-3.73,-1.15,-0.18,0.06,-0.13,
3.175,3.97,-3.73,-1.15,-0.17,0.12,-0.16,
3.175,3.97,-3.73,-1.15,-0.16,0.16,-0.19,
3.175,3.33,-3.41,-1.40,-0.16,0.16,-0.19,
3.176,3.33,-3.41,-1.40,-0.16,0.17,-0.21,
3.176,3.33,-3.41,-1.40,-0.15,0.17,-0.21,
3.176,2.65,-2.96,-1.30,-0.15,0.17,-0.21,
3.176,2.65,-2.96,-1.30,-0.16,0.15,-0.22,
3.177,2.65,-2.96,-1.30,-0.16,0.13,-0.21,
3.177,2.16,-2.46,-1.00,-0.16,0.13,-0.21,
3.177,2.16,-2.46,-1.00,-0.15,0.11,-0.20,
3.177,1.63,-1.86,-0.48,-0.15,0.11,-0.20,
3.178,1.63,-1.86,-0.48,-0.15,0.10,-0.18,
3.178,1.63,-1.86,-0.48,-0.14,0.09,-0.17,
3.178,1.63,-1.86,-0.48,-0.13,0.09,-0.15,
3.178,1.38,-1.11,0.18,-0.13,0.09,-0.15,
3.179,1.38,-1.11,0.18,-0.12,0.10,-0.13,
3.181,1.38,-1.11,0.18,-0.11,0.10,-0.12,
3.182,1.04,-0.47,0.80,-0.11,0.10,-0.12,
3.182,1.04,-0.47,0.80,-0.09,0.12,-0.10,
3.187,1.04,-0.47,0.80,-0.08,0.13,-0.07,
3.188,0.58,-0.03,1.28,-0.08,0.13,-0.07,
3.189,0.58,-0.03,1.28,-0.06,0.17,-0.04,
3.19,0.58,-0.03,1.28,-0.05,0.20,-0.01,
3.19,0.31,0.29,1.77,-0.05,0.20,-0.01,
3.192,0.31,0.29,1.77,-0.03,0.24,0.02,
3.195,0.31,0.29,1.77,-0.01,0.28,0.06,
3.195,0.11,0.61,2.24,-0.01,0.28,0.06,
3.197,0.11,0.61,2.24,0.01,0.33,0.09,
3.199,0.11,0.61,2.24,0.02,0.38,0.12,
3.2,-0.14,0.91,2.30,0.02,0.38,0.12,
3.209,-0.14,0.91,2.30,0.02,0.43,0.14,
3.209,-0.14,0.91,2.30,0.02,0.46,0.16,
3.21,-0.41,1.09,2.38,0.02,0.46,0.16,
3.21,-0.41,1.09,2.38,0.03,0.50,0.18,
3.212,-0.70,1.25,2.44,0.03,0.50,0.18,
3.213,-0.70,1.25,2.44,0.04,0.54,0.19,
3.213,-0.70,1.25,2.44,0.04,0.57,0.20,
3.215,-0.70,1.25,2.44,0.06,0.59,0.21,
3.216,-1.07,1.53,2.36,0.06,0.59,0.21,
3.234,-1.07,1.53,2.36,0.07,0.61,0.22,
3.235,-1.07,1.53,2.36,0.09,0.62,0.23,
3.236,-1.38,1.79,2.12,0.09,0.62,0.23,
3.236,-1.38,1.79,2.12,0.11,0.63,0.23,
3.236,-1.65,1.88,1.70,0.11,0.63,0.23,
3.236,-1.65,1.88,1.70,0.12,0.64,0.23,
3.237,-1.65,1.88,1.70,0.13,0.64,0.23,
3.237,-1.65,1.88,1.70,0.14,0.65,0.23,
3.237,-1.82,1.87,1.13,0.14,0.65,0.23,
3.237,-1.82,1.87,1.13,0.15,0.65,0.22,
3.238,-1.94,1.92,0.70,0.15,0.65,0.22,
3.238,-1.94,1.92,0.70,0.16,0.67,0.21,
3.238,-1.94,1.92,0.70,0.18,0.68,0.19,
3.239,-2.13,1.99,0.51,0.18,0.68,0.19,
3.24,-2.13,1.99,0.51,0.20,0.69,0.17,
3.241,-2.13,1.99,0.51,0.22,0.71,0.16,
3.244,-2.13,1.99,0.51,0.25,0.72,0.14,
3.244,-2.27,1.96,0.10,0.25,0.72,0.14,
3.246,-2.27,1.96,0.10,0.27,0.73,0.12,
3.249,-2.27,1.96,0.10,0.29,0.74,0.10,
3.249,-2.29,1.95,-0.30,0.29,0.74,0.10,
3.252,-2.29,1.95,-0.30,0.30,0.74,0.07,
3.255,-2.19,1.92,-0.59,0.30,0.74,0.07,
3.255,-2.19,1.92,-0.59,0.31,0.73,0.04,
3.256,-2.19,1.92,-0.59,0.32,0.72,0.00,
3.259,-2.19,1.92,-0.59,0.34,0.72,-0.04,
3.259,-1.77,1.80,-0.79,0.34,0.72,-0.04,
3.261,-1.77,1.80,-0.79,0.35,0.73,-0.09,
3.264,-1.77,1.80,-0.79,0.36,0.73,-0.14,
3.264,-1.17,1.67,-1.00,0.36,0.73,-0.14,
3.266,-1.17,1.67,-1.00,0.36,0.75,-0.20,
3.269,-1.17,1.67,-1.00,0.37,0.77,-0.25,
3.27,-0.80,1.56,-1.15,0.37,0.77,-0.25,
3.271,-0.80,1.56,-1.15,0.37,0.78,-0.29,
3.274,0.04,1.25,-1.14,0.37,0.78,-0.29,
3.274,0.04,1.25,-1.14,0.36,0.81,-0.33,
3.276,0.04,1.25,-1.14,0.36,0.85,-0.36,
3.279,0.04,1.25,-1.14,0.35,0.89,-0.39,
3.279,1.10,1.14,-0.90,0.35,0.89,-0.39,
3.281,1.10,1.14,-0.90,0.35,0.94,-0.40,
3.284,1.10,1.14,-0.90,0.34,0.97,-0.41,
3.285,1.86,1.15,-0.71,0.34,0.97,-0.41,
3.287,1.86,1.15,-0.71,0.32,1.00,-0.41,
3.289,1.86,1.15,-0.71,0.29,1.01,-0.39,
3.289,2.40,1.11,-0.51,0.29,1.01,-0.39,
3.291,2.40,1.11,-0.51,0.27,1.01,-0.38,
3.294,2.40,1.11,-0.51,0.25,1.01,-0.36,
3.294,2.75,0.91,-0.02,0.25,1.01,-0.36,
3.296,2.75,0.91,-0.02,0.24,1.00,-0.33,
3.299,3.06,0.82,0.36,0.24,1.00,-0.33,
3.299,3.06,0.82,0.36,0.25,0.98,-0.31,
3.301,3.06,0.82,0.36,0.25,0.97,-0.28,
3.304,3.06,0.82,0.36,0.26,0.96,-0.26,
3.304,3.22,0.76,0.47,0.26,0.96,-0.26,
3.306,3.22,0.76,0.47,0.28,0.95,-0.23,
3.308,3.22,0.76,0.47,0.30,0.93,-0.21,
3.309,3.26,0.72,0.43,0.30,0.93,-0.21,
3.311,3.26,0.72,0.43,0.31,0.91,-0.18,
3.313,3.22,0.76,0.19,0.31,0.91,-0.18,
3.314,3.22,0.76,0.19,0.33,0.89,-0.16,
3.329,3.22,0.76,0.19,0.36,0.85,-0.14,
3.33,3.22,0.76,0.19,0.38,0.82,-0.13,
3.33,3.03,0.85,-0.13,0.38,0.82,-0.13,
3.33,3.03,0.85,-0.13,0.40,0.81,-0.11,
3.33,3.03,0.85,-0.13,0.42,0.79,-0.10,
3.331,2.86,0.87,-0.44,0.42,0.79,-0.10,
3.331,2.86,0.87,-0.44,0.43,0.76,-0.08,
3.337,2.66,0.97,-0.59,0.43,0.76,-0.08,
3.337,2.66,0.97,-0.59,0.44,0.74,-0.07,
3.342,2.66,0.97,-0.59,0.46,0.72,-0.06,
3.343,2.37,0.90,-0.71,0.46,0.72,-0.06,
3.343,2.37,0.90,-0.71,0.47,0.70,-0.05,
3.344,2.37,0.90,-0.71,0.47,0.68,-0.03,
3.344,2.37,0.90,-0.71,0.47,0.65,-0.03,
3.344,2.28,0.85,-0.85,0.47,0.65,-0.03,
3.345,2.28,0.85,-0.85,0.47,0.63,-0.02,
3.345,2.04,0.88,-0.98,0.47,0.63,-0.02,
3.345,2.04,0.88,-0.98,0.46,0.61,-0.01,
3.346,2.04,0.88,-0.98,0.44,0.59,-0.01,
3.349,1.95,0.81,-1.02,0.44,0.59,-0.01,
3.351,1.95,0.81,-1.02,0.44,0.58,0.00,
3.352,1.95,0.81,-1.02,0.43,0.58,0.01,
3.357,1.77,0.85,-1.04,0.43,0.58,0.01,
3.358,1.77,0.85,-1.04,0.42,0.57,0.02,
3.358,1.77,0.85,-1.04,0.41,0.57,0.03,
3.359,1.77,0.85,-1.04,0.40,0.58,0.04,
3.359,1.69,0.81,-1.07,0.40,0.58,0.04,
3.362,1.69,0.81,-1.07,0.39,0.59,0.05,
3.364,1.61,0.80,-1.07,0.39,0.59,0.05,
3.364,1.61,0.80,-1.07,0.38,0.60,0.05,
3.366,1.61,0.80,-1.07,0.36,0.62,0.06,
3.368,1.60,0.91,-1.09,0.36,0.62,0.06,
3.368,1.60,0.91,-1.09,0.35,0.64,0.06,
3.371,1.60,0.91,-1.09,0.34,0.66,0.07,
3.373,1.60,0.91,-1.09,0.33,0.69,0.08,
3.373,1.58,0.95,-1.09,0.33,0.69,0.08,
3.375,1.58,0.95,-1.09,0.33,0.72,0.09,
3.378,1.58,0.95,-1.09,0.32,0.75,0.10,
3.378,1.57,0.96,-1.11,0.32,0.75,0.10,
3.38,1.57,0.96,-1.11,0.31,0.78,0.12,
3.383,1.57,0.96,-1.11,0.30,0.80,0.13,
3.384,1.53,1.05,-1.16,0.30,0.80,0.13,
3.385,1.53,1.05,-1.16,0.30,0.83,0.13,
3.388,1.53,1.05,-1.16,0.30,0.85,0.14,
3.388,1.51,1.04,-1.16,0.30,0.85,0.14,
3.39,1.51,1.04,-1.16,0.31,0.88,0.15,
3.393,1.51,1.04,-1.16,0.32,0.91,0.17,
3.393,1.51,1.02,-1.07,0.32,0.91,0.17,
3.395,1.51,1.02,-1.07,0.33,0.94,0.17,
3.398,1.51,1.02,-1.07,0.34,0.96,0.18,
3.398,1.47,1.03,-1.13,0.34,0.96,0.18,
3.403,1.47,1.03,-1.13,0.35,0.98,0.18,
3.404,1.47,1.03,-1.13,0.37,0.99,0.19,
3.404,1.40,1.12,-1.20,0.37,0.99,0.19,
3.414,1.30,1.21,-1.30,0.37,0.99,0.19,
3.415,1.05,1.21,-1.50,0.37,0.99,0.19,
3.415,1.05,1.21,-1.50,0.39,1.00,0.19,
3.416,1.05,1.21,-1.50,0.41,0.99,0.19,
3.416,1.05,1.21,-1.50,0.43,1.01,0.20,
3.416,1.05,1.21,-1.50,0.45,1.02,0.21,
3.417,1.05,1.21,-1.50,0.47,1.03,0.22,
3.423,0.85,1.09,-1.67,0.47,1.03,0.22,
3.424,0.85,1.09,-1.67,0.48,1.04,0.23,
3.424,0.85,1.09,-1.67,0.48,1.05,0.24,
3.424,0.85,1.09,-1.67,0.48,1.06,0.25,
3.425,0.59,0.91,-1.92,0.48,1.06,0.25,
3.425,0.59,0.91,-1.92,0.49,1.06,0.26,
3.427,0.59,0.91,-1.92,0.49,1.07,0.27,
3.428,0.41,0.93,-1.99,0.49,1.07,0.27,
3.43,0.41,0.93,-1.99,0.49,1.08,0.28,
3.432,0.18,0.94,-2.20,0.49,1.08,0.28,
3.432,0.18,0.94,-2.20,0.48,1.09,0.29,
3.435,0.18,0.94,-2.20,0.48,1.10,0.29,
3.439,0.18,0.94,-2.20,0.47,1.11,0.30,
3.439,-0.01,0.94,-2.32,0.47,1.11,0.30,
3.439,-0.01,0.94,-2.32,0.46,1.12,0.30,
3.442,-0.01,0.94,-2.32,0.45,1.13,0.30,
3.442,-0.20,0.90,-2.37,0.45,1.13,0.30,
3.444,-0.20,0.90,-2.37,0.44,1.13,0.30,
3.447,-0.20,0.90,-2.37,0.43,1.12,0.30,
3.447,-0.38,0.87,-2.30,0.43,1.12,0.30,
3.45,-0.38,0.87,-2.30,0.41,1.11,0.29,
3.453,-0.63,0.77,-2.17,0.41,1.11,0.29,
3.453,-0.63,0.77,-2.17,0.40,1.09,0.28,
3.455,-0.63,0.77,-2.17,0.39,1.08,0.27,
3.457,-0.63,0.77,-2.17,0.38,1.06,0.26,
3.458,-0.83,0.61,-2.04,0.38,1.06,0.26,
3.459,-0.83,0.61,-2.04,0.38,1.05,0.24,
3.462,-0.89,0.43,-1.86,0.38,1.05,0.24,
3.462,-0.89,0.43,-1.86,0.38,1.02,0.23,
3.464,-0.89,0.43,-1.86,0.38,1.00,0.21,
3.468,-1.00,0.12,-1.64,0.38,1.00,0.21,
3.469,-1.00,0.12,-1.64,0.37,0.98,0.19,
3.47,-1.00,0.12,-1.64,0.37,0.95,0.18,
3.472,-1.00,0.12,-1.64,0.37,0.90,0.16,
3.473,-0.98,-0.18,-1.19,0.37,0.90,0.16,
3.475,-0.98,-0.18,-1.19,0.36,0.84,0.14,
3.477,-0.98,-0.18,-1.19,0.35,0.77,0.12,
3.477,-0.89,-0.74,-0.45,0.35,0.77,0.12,
3.479,-0.89,-0.74,-0.45,0.35,0.69,0.09,
3.497,-0.89,-0.74,-0.45,0.34,0.61,0.08,
3.497,-0.72,-1.36,0.38,0.34,0.61,0.08,
3.497,-0.72,-1.36,0.38,0.35,0.53,0.06,
3.497,-0.72,-1.36,0.38,0.35,0.47,0.05,
3.497,-0.24,-1.90,0.85,0.35,0.47,0.05,
3.498,-0.24,-1.90,0.85,0.37,0.42,0.04,
3.499,-0.24,-1.90,0.85,0.38,0.38,0.03,
3.499,0.33,-2.03,0.78,0.38,0.38,0.03,
3.5,0.33,-2.03,0.78,0.40,0.35,0.02,
3.5,0.33,-2.03,0.78,0.42,0.32,0.01,
3.5,0.71,-2.07,0.24,0.42,0.32,0.01,
3.5,0.71,-2.07,0.24,0.44,0.28,0.01,
3.503,0.88,-2.29,-0.64,0.44,0.28,0.01,
3.504,0.88,-2.29,-0.64,0.45,0.23,0.00,
3.506,0.88,-2.29,-0.64,0.46,0.19,-0.01,
3.507,1.02,-2.70,-1.78,0.46,0.19,-0.01,
3.507,1.02,-2.70,-1.78,0.46,0.15,-0.02,
3.509,1.02,-2.70,-1.78,0.45,0.13,-0.03,
3.512,1.22,-3.14,-3.07,0.45,0.13,-0.03,
3.512,1.22,-3.14,-3.07,0.45,0.13,-0.05,
3.514,1.22,-3.14,-3.07,0.43,0.13,-0.07,
3.522,1.38,-3.54,-4.25,0.43,0.13,-0.07,
3.527,1.38,-3.54,-4.25,0.41,0.16,-0.09,
3.527,1.38,-3.54,-4.25,0.38,0.20,-0.11,
3.527,1.38,-3.54,-4.25,0.35,0.24,-0.13,
3.528,1.29,-3.80,-4.96,0.35,0.24,-0.13,
3.528,1.29,-3.80,-4.96,0.33,0.28,-0.16,
3.528,1.29,-3.80,-4.96,0.29,0.31,-0.18,
3.528,1.01,-3.87,-5.21,0.29,0.31,-0.18,
3.529,1.01,-3.87,-5.21,0.27,0.34,-0.21,
3.532,0.58,-3.80,-5.17,0.27,0.34,-0.21,
3.558,0.58,-3.80,-5.17,0.24,0.37,-0.23,
3.559,0.58,-3.80,-5.17,0.22,0.38,-0.25,
3.559,0.58,-3.80,-5.17,0.19,0.39,-0.27,
3.559,0.14,-3.64,-4.84,0.19,0.39,-0.27,
3.559,0.14,-3.64,-4.84,0.17,0.39,-0.29,
3.559,0.14,-3.64,-4.84,0.15,0.38,-0.30,
3.559,-0.27,-3.38,-4.34,0.15,0.38,-0.30,
3.56,-0.27,-3.38,-4.34,0.14,0.36,-0.31,
3.56,-0.27,-3.38,-4.34,0.12,0.33,-0.30,
3.56,-0.77,-2.93,-3.48,0.12,0.33,-0.30,
3.56,-0.77,-2.93,-3.48,0.10,0.30,-0.29,
3.56,-0.77,-2.93,-3.48,0.09,0.24,-0.26,
3.56,-1.27,-2.31,-2.24,0.09,0.24,-0.26,
3.56,-1.27,-2.31,-2.24,0.08,0.20,-0.24,
3.561,-1.27,-2.31,-2.24,0.07,0.14,-0.21,
3.561,-1.39,-1.91,-0.73,0.07,0.14,-0.21,
3.561,-1.39,-1.91,-0.73,0.06,0.08,-0.18,
3.563,-1.39,-1.91,-0.73,0.05,0.01,-0.15,
3.563,-1.47,-1.61,0.79,0.05,0.01,-0.15,
3.564,-1.47,-1.61,0.79,0.03,-0.08,-0.11,
3.566,-1.47,-1.61,0.79,0.02,-0.16,-0.09,
3.567,-1.34,-1.58,2.31,0.02,-0.16,-0.09,
3.571,-1.34,-1.58,2.31,0.02,-0.24,-0.07,
3.572,-1.09,-1.73,3.79,0.02,-0.24,-0.07,
3.572,-1.09,-1.73,3.79,0.02,-0.34,-0.06,
3.573,-1.09,-1.73,3.79,0.03,-0.42,-0.05,
3.577,-1.09,-1.73,3.79,0.06,-0.51,-0.05,
3.577,-0.67,-1.97,5.05,0.06,-0.51,-0.05,
3.579,-0.67,-1.97,5.05,0.09,-0.62,-0.07,
3.581,-0.67,-1.97,5.05,0.12,-0.75,-0.10,
3.581,-0.37,-2.43,6.00,0.12,-0.75,-0.10,
3.583,-0.37,-2.43,6.00,0.16,-0.88,-0.13,
3.586,-0.37,-2.43,6.00,0.22,-1.01,-0.16,
3.587,-0.67,-3.35,6.83,0.22,-1.01,-0.16,
3.588,-0.67,-3.35,6.83,0.27,-1.14,-0.18,
3.591,-0.67,-3.35,6.83,0.33,-1.26,-0.20,
3.591,-0.99,-4.28,7.14,0.33,-1.26,-0.20,
3.593,-0.99,-4.28,7.14,0.39,-1.37,-0.22,
3.596,-0.99,-4.28,7.14,0.45,-1.46,-0.23,
3.596,-1.23,-5.10,7.17,0.45,-1.46,-0.23,
3.598,-1.23,-5.10,7.17,0.51,-1.51,-0.24,
3.604,-1.23,-5.10,7.17,0.57,-1.51,-0.25,
3.604,-1.46,-5.46,6.42,0.57,-1.51,-0.25,
3.605,-1.46,-5.46,6.42,0.62,-1.46,-0.25,
3.606,-1.46,-5.46,6.42,0.66,-1.37,-0.26,
3.607,-1.35,-5.24,5.24,0.66,-1.37,-0.26,
3.609,-1.35,-5.24,5.24,0.70,-1.25,-0.26,
3.611,-1.35,-5.24,5.24,0.72,-1.13,-0.28,
3.611,-1.01,-4.60,3.99,0.72,-1.13,-0.28,
3.613,-1.01,-4.60,3.99,0.72,-0.99,-0.29,
3.616,-1.01,-4.60,3.99,0.71,-0.85,-0.29,
3.616,-1.03,-3.74,2.81,0.71,-0.85,-0.29,
3.622,-1.03,-3.74,2.81,0.69,-0.74,-0.30,
3.622,-1.03,-3.74,2.81,0.65,-0.66,-0.29,
3.622,-0.99,-2.57,2.18,0.65,-0.66,-0.29,
3.623,-0.99,-2.57,2.18,0.61,-0.60,-0.28,
3.626,-0.99,-2.57,2.18,0.57,-0.54,-0.27,
3.626,-1.07,-1.52,1.83,0.57,-0.54,-0.27,
3.628,-1.07,-1.52,1.83,0.53,-0.51,-0.25,
3.631,-1.07,-1.52,1.83,0.48,-0.47,-0.23,
3.631,-0.85,-0.68,1.70,0.48,-0.47,-0.23,
3.633,-0.85,-0.68,1.70,0.43,-0.43,-0.22,
3.637,-0.85,-0.68,1.70,0.39,-0.38,-0.20,
3.637,-0.57,-0.04,1.83,0.39,-0.38,-0.20,
3.638,-0.57,-0.04,1.83,0.35,-0.32,-0.19,
3.641,-0.57,-0.04,1.83,0.33,-0.26,-0.18,
3.641,-0.42,0.60,2.17,0.33,-0.26,-0.18,
3.643,-0.42,0.60,2.17,0.30,-0.20,-0.17,
3.646,-0.42,0.60,2.17,0.29,-0.13,-0.16,
3.664,-0.49,1.15,2.62,0.29,-0.13,-0.16,
3.664,-0.49,1.15,2.62,0.28,-0.06,-0.14,
3.665,-0.56,1.60,3.04,0.28,-0.06,-0.14,
3.665,-0.56,1.60,3.04,0.27,-0.00,-0.13,
3.665,-0.56,1.60,3.04,0.27,0.05,-0.12,
3.665,-0.56,1.60,3.04,0.27,0.10,-0.11,
3.666,-0.75,1.95,3.18,0.27,0.10,-0.11,
3.666,-0.75,1.95,3.18,0.27,0.14,-0.09,
3.666,-0.75,1.95,3.18,0.26,0.18,-0.07,
3.666,-0.97,2.35,3.20,0.26,0.18,-0.07,
3.666,-0.97,2.35,3.20,0.26,0.22,-0.05,
3.667,-1.04,2.56,3.07,0.26,0.22,-0.05,
3.667,-1.04,2.56,3.07,0.25,0.27,-0.04,
3.669,-1.04,2.56,3.07,0.24,0.31,-0.02,
3.67,-1.04,2.56,3.07,0.23,0.34,-0.00,
3.671,-0.94,2.77,2.97,0.23,0.34,-0.00,
3.673,-0.94,2.77,2.97,0.21,0.36,0.01,
3.675,-0.94,2.77,2.97,0.19,0.39,0.03,
3.676,-1.03,2.84,2.75,0.19,0.39,0.03,
3.678,-1.03,2.84,2.75,0.16,0.41,0.05,
3.68,-1.26,2.85,2.73,0.16,0.41,0.05,
3.681,-1.26,2.85,2.73,0.14,0.42,0.07,
3.682,-1.26,2.85,2.73,0.11,0.42,0.10,
3.686,-1.37,2.68,2.69,0.11,0.42,0.10,
3.686,-1.37,2.68,2.69,0.09,0.43,0.13,
3.688,-1.37,2.68,2.69,0.06,0.44,0.15,
3.69,-1.14,2.33,2.50,0.06,0.44,0.15,
3.69,-1.14,2.33,2.50,0.04,0.46,0.17,
3.692,-1.14,2.33,2.50,0.01,0.48,0.19,
3.695,-1.14,2.33,2.50,-0.01,0.50,0.21,
3.695,-0.82,1.75,2.18,-0.01,0.50,0.21,
3.697,-0.82,1.75,2.18,-0.04,0.52,0.22,
3.7,-0.82,1.75,2.18,-0.08,0.53,0.23,
3.7,-0.50,1.12,1.91,-0.08,0.53,0.23,
3.704,-0.50,1.12,1.91,-0.11,0.53,0.23,
3.705,-0.30,0.62,1.65,-0.11,0.53,0.23,
3.705,-0.30,0.62,1.65,-0.14,0.53,0.24,
3.707,-0.30,0.62,1.65,-0.18,0.52,0.24,
3.711,-0.30,0.62,1.65,-0.21,0.51,0.24,
3.711,0.15,0.28,1.26,-0.21,0.51,0.24,
3.746,0.76,-0.07,0.93,-0.21,0.51,0.24,
3.747,0.76,-0.07,0.93,-0.24,0.51,0.23,
3.747,0.76,-0.07,0.93,-0.26,0.51,0.21,
3.748,0.76,-0.07,0.93,-0.28,0.50,0.20,
3.748,0.92,-0.37,0.75,-0.28,0.50,0.20,
3.749,0.92,-0.37,0.75,-0.30,0.49,0.18,
3.749,0.92,-0.37,0.75,-0.32,0.46,0.18,
3.749,0.92,-0.37,0.75,-0.32,0.43,0.17,
3.75,0.97,-0.62,0.80,-0.32,0.43,0.17,
3.75,0.97,-0.62,0.80,-0.32,0.38,0.17,
3.75,1.10,-0.66,0.97,-0.32,0.38,0.17,
3.751,1.10,-0.66,0.97,-0.32,0.31,0.17,
3.751,1.10,-0.66,0.97,-0.31,0.23,0.17,
3.751,1.36,-0.66,1.07,-0.31,0.23,0.17,
3.752,1.36,-0.66,1.07,-0.29,0.15,0.17,
3.752,1.36,-0.66,1.07,-0.27,0.09,0.16,
3.752,1.75,-0.76,0.87,-0.27,0.09,0.16,
3.752,1.75,-0.76,0.87,-0.26,0.04,0.15,
3.753,1.75,-0.76,0.87,-0.24,0.00,0.14,
3.753,2.03,-0.79,0.71,-0.24,0.00,0.14,
3.753,2.03,-0.79,0.71,-0.23,-0.03,0.13,
3.754,2.03,-0.79,0.71,-0.22,-0.05,0.12,
3.754,2.03,-0.79,0.71,-0.21,-0.08,0.11,
3.754,2.28,-0.76,0.65,-0.21,-0.08,0.11,
3.755,2.28,-0.76,0.65,-0.21,-0.10,0.10,
3.755,2.43,-0.63,0.79,-0.21,-0.10,0.10,
3.761,2.43,-0.63,0.79,-0.19,-0.13,0.09,
3.762,2.43,-0.63,0.79,-0.18,-0.16,0.08,
3.762,2.59,-0.49,0.82,-0.18,-0.16,0.08,
3.762,2.59,-0.49,0.82,-0.17,-0.20,0.07,
3.763,2.59,-0.49,0.82,-0.17,-0.25,0.06,
3.766,2.80,-0.36,0.60,-0.17,-0.25,0.06,
3.766,2.80,-0.36,0.60,-0.16,-0.28,0.06,
3.767,2.80,-0.36,0.60,-0.16,-0.32,0.05,
3.772,2.95,-0.26,0.31,-0.16,-0.32,0.05,
3.772,2.95,-0.26,0.31,-0.16,-0.35,0.04,
3.773,2.95,-0.26,0.31,-0.17,-0.38,0.03,
3.775,2.95,-0.26,0.31,-0.19,-0.42,0.02,
3.775,3.01,-0.17,0.11,-0.19,-0.42,0.02,
3.777,3.01,-0.17,0.11,-0.21,-0.45,0.02,
3.78,3.01,-0.17,0.11,-0.23,-0.48,0.02,
3.78,3.08,-0.02,-0.21,-0.23,-0.48,0.02,
3.782,3.08,-0.02,-0.21,-0.26,-0.50,0.02,
3.785,3.08,-0.02,-0.21,-0.29,-0.52,0.02,
3.786,2.99,0.20,-0.33,-0.29,-0.52,0.02,
3.787,2.99,0.20,-0.33,-0.32,-0.54,0.03,
3.789,2.94,0.53,-0.34,-0.32,-0.54,0.03,
3.79,2.94,0.53,-0.34,-0.35,-0.55,0.04,
3.792,2.94,0.53,-0.34,-0.38,-0.55,0.05,
3.794,2.94,0.53,-0.34,-0.41,-0.56,0.06,
3.795,2.83,0.94,-0.24,-0.41,-0.56,0.06,
3.797,2.83,0.94,-0.24,-0.43,-0.57,0.07,
3.799,2.68,1.33,-0.10,-0.43,-0.57,0.07,
3.799,2.68,1.33,-0.10,-0.45,-0.57,0.08,
3.805,2.68,1.33,-0.10,-0.47,-0.57,0.10,
3.805,2.43,1.63,0.01,-0.47,-0.57,0.10,
3.806,2.43,1.63,0.01,-0.49,-0.57,0.12,
3.806,2.43,1.63,0.01,-0.51,-0.58,0.14,
3.813,2.23,1.91,0.08,-0.51,-0.58,0.14,
3.813,2.23,1.91,0.08,-0.53,-0.58,0.16,
3.839,2.23,1.91,0.08,-0.53,-0.58,0.18,
3.84,2.05,2.08,0.22,-0.53,-0.58,0.18,
3.84,2.05,2.08,0.22,-0.54,-0.58,0.20,
3.84,2.05,2.08,0.22,-0.54,-0.58,0.22,
3.841,1.75,2.18,0.41,-0.54,-0.58,0.22,
3.841,1.75,2.18,0.41,-0.54,-0.59,0.24,
3.842,1.75,2.18,0.41,-0.53,-0.61,0.25,
3.842,1.45,2.17,0.54,-0.53,-0.61,0.25,
3.842,1.45,2.17,0.54,-0.53,-0.63,0.27,
3.843,1.45,2.17,0.54,-0.52,-0.65,0.28,
3.843,1.15,2.17,0.60,-0.52,-0.65,0.28,
3.843,1.15,2.17,0.60,-0.51,-0.67,0.29,
3.844,1.15,2.17,0.60,-0.50,-0.69,0.29,
3.844,1.15,2.17,0.60,-0.48,-0.71,0.29,
3.844,0.94,2.16,0.56,-0.48,-0.71,0.29,
3.845,0.94,2.16,0.56,-0.47,-0.71,0.29,
3.845,0.94,2.16,0.56,-0.45,-0.72,0.28,
3.845,0.64,2.18,0.51,-0.45,-0.72,0.28,
3.846,0.64,2.18,0.51,-0.43,-0.72,0.27,
3.846,0.51,2.24,0.35,-0.43,-0.72,0.27,
3.846,0.51,2.24,0.35,-0.42,-0.71,0.25,
3.847,0.51,2.24,0.35,-0.40,-0.70,0.23,
3.849,0.51,2.24,0.35,-0.38,-0.69,0.21,
3.85,0.34,2.21,0.15,-0.38,-0.69,0.21,
3.853,0.34,2.21,0.15,-0.37,-0.67,0.19,
3.854,0.34,2.21,0.15,-0.35,-0.64,0.16,
3.855,0.32,2.15,-0.08,-0.35,-0.64,0.16,
3.856,0.32,2.15,-0.08,-0.33,-0.62,0.14,
3.86,0.32,2.15,-0.08,-0.32,-0.59,0.12,
3.86,0.10,2.05,-0.27,-0.32,-0.59,0.12,
3.861,0.10,2.05,-0.27,-0.31,-0.57,0.10,
3.864,0.10,2.05,-0.27,-0.29,-0.55,0.08,
3.864,-0.10,1.95,-0.41,-0.29,-0.55,0.08,
3.866,-0.10,1.95,-0.41,-0.28,-0.54,0.06,
3.869,-0.25,1.90,-0.51,-0.28,-0.54,0.06,
3.869,-0.25,1.90,-0.51,-0.27,-0.53,0.04,
3.871,-0.25,1.90,-0.51,-0.25,-0.52,0.02,
3.873,-0.25,1.90,-0.51,-0.24,-0.51,0.01,
3.874,-0.45,1.84,-0.62,-0.24,-0.51,0.01,
3.876,-0.45,1.84,-0.62,-0.23,-0.51,-0.01,
3.878,-0.45,1.84,-0.62,-0.22,-0.51,-0.02,
3.878,-0.56,1.78,-0.73,-0.22,-0.51,-0.02,
3.881,-0.56,1.78,-0.73,-0.21,-0.51,-0.04,
3.883,-0.56,1.78,-0.73,-0.19,-0.50,-0.05,
3.883,-0.63,1.72,-0.81,-0.19,-0.50,-0.05,
3.886,-0.63,1.72,-0.81,-0.18,-0.50,-0.07,
3.889,-0.63,1.72,-0.81,-0.17,-0.49,-0.09,
3.889,-0.74,1.70,-0.86,-0.17,-0.49,-0.09,
3.891,-0.74,1.70,-0.86,-0.16,-0.48,-0.10,
3.893,-0.74,1.70,-0.86,-0.14,-0.47,-0.12,
3.893,-0.91,1.63,-0.88,-0.14,-0.47,-0.12,
3.896,-0.91,1.63,-0.88,-0.13,-0.45,-0.13,
3.898,-0.91,1.63,-0.88,-0.11,-0.44,-0.14,
3.898,-1.09,1.53,-0.83,-0.11,-0.44,-0.14,
3.901,-1.09,1.53,-0.83,-0.10,-0.43,-0.15,
3.905,-1.07,1.47,-0.90,-0.10,-0.43,-0.15,
3.905,-1.07,1.47,-0.90,-0.08,-0.41,-0.16,
3.906,-1.07,1.47,-0.90,-0.06,-0.39,-0.18,
3.909,-1.07,1.47,-0.90,-0.05,-0.38,-0.19,
3.909,-1.22,1.39,-0.97,-0.05,-0.38,-0.19,
3.911,-1.22,1.39,-0.97,-0.04,-0.36,-0.20,
3.914,-1.22,1.39,-0.97,-0.03,-0.35,-0.21,
3.914,-1.29,1.35,-1.00,-0.03,-0.35,-0.21,
3.916,-1.29,1.35,-1.00,-0.02,-0.34,-0.22,
3.929,-1.29,1.35,-1.00,-0.02,-0.33,-0.24,
3.93,-1.45,1.27,-1.04,-0.02,-0.33,-0.24,
3.93,-1.45,1.27,-1.04,-0.00,-0.31,-0.25,
3.93,-1.45,1.27,-1.04,0.00,-0.29,-0.26,
3.931,-1.48,1.27,-1.12,0.00,-0.29,-0.26,
3.931,-1.48,1.27,-1.12,0.01,-0.26,-0.26,
3.931,-1.48,1.27,-1.12,0.02,-0.24,-0.27,
3.932,-1.53,1.26,-1.26,0.02,-0.24,-0.27,
3.932,-1.53,1.26,-1.26,0.02,-0.21,-0.27,
3.933,-1.53,1.26,-1.26,0.03,-0.19,-0.28,
3.933,-1.55,1.35,-1.43,0.03,-0.19,-0.28,
3.936,-1.55,1.35,-1.43,0.03,-0.16,-0.28,
3.939,-1.54,1.44,-1.55,0.03,-0.16,-0.28,
3.939,-1.54,1.44,-1.55,0.04,-0.13,-0.28,
3.94,-1.54,1.44,-1.55,0.05,-0.11,-0.28,
3.943,-1.54,1.44,-1.55,0.05,-0.08,-0.27,
3.943,-1.62,1.47,-1.67,0.05,-0.08,-0.27,
3.945,-1.62,1.47,-1.67,0.05,-0.06,-0.27,
3.948,-1.62,1.47,-1.67,0.05,-0.06,-0.26,
3.948,-1.75,1.46,-1.71,0.05,-0.06,-0.26,
3.95,-1.75,1.46,-1.71,0.05,-0.05,-0.25,
3.953,-1.75,1.46,-1.71,0.05,-0.04,-0.24,
3.953,-1.74,1.47,-1.74,0.05,-0.04,-0.24,
3.955,-1.74,1.47,-1.74,0.05,-0.03,-0.24,
3.958,-1.74,1.47,-1.74,0.04,-0.03,-0.23,
3.958,-1.71,1.51,-1.74,0.04,-0.03,-0.23,
3.96,-1.71,1.51,-1.74,0.04,-0.03,-0.23,
3.964,-1.61,1.58,-1.83,0.04,-0.03,-0.23,
3.964,-1.61,1.58,-1.83,0.04,-0.02,-0.22,
3.965,-1.61,1.58,-1.83,0.03,-0.01,-0.21,
3.969,-1.66,1.62,-1.90,0.03,-0.01,-0.21,
3.969,-1.66,1.62,-1.90,0.02,-0.01,-0.20,
3.971,-1.66,1.62,-1.90,0.01,-0.01,-0.19,
3.973,-1.52,1.63,-1.79,0.01,-0.01,-0.19,
3.974,-1.52,1.63,-1.79,0.00,-0.01,-0.17,
3.975,-1.52,1.63,-1.79,-0.00,-0.02,-0.16,
3.996,-1.38,1.66,-1.69,-0.00,-0.02,-0.16,
3.996,-1.38,1.66,-1.69,-0.01,-0.02,-0.15,
3.996,-1.38,1.66,-1.69,-0.01,-0.03,-0.14,
3.996,-1.38,1.66,-1.69,-0.01,-0.03,-0.13,
3.997,-1.26,1.61,-1.63,-0.01,-0.03,-0.13,
3.997,-1.26,1.61,-1.63,-0.01,-0.03,-0.12,
3.997,-1.26,1.61,-1.63,-0.01,-0.03,-0.11,
3.997,-1.11,1.56,-1.50,-0.01,-0.03,-0.11,
3.998,-1.11,1.56,-1.50,-0.01,-0.03,-0.10,
3.998,-0.93,1.46,-1.25,-0.01,-0.03,-0.10,
3.998,-0.93,1.46,-1.25,-0.00,-0.03,-0.08,
3.998,-0.93,1.46,-1.25,0.01,-0.03,-0.07,
3.999,-0.81,1.27,-0.73,0.01,-0.03,-0.07,
3.999,-0.81,1.27,-0.73,0.02,-0.04,-0.06,
4.002,-0.81,1.27,-0.73,0.04,-0.05,-0.06,
4.007,-0.68,1.02,-0.20,0.04,-0.05,-0.06,
4.014,-0.68,1.02,-0.20,0.06,-0.08,-0.06,
4.014,-0.68,1.02,-0.20,0.08,-0.10,-0.05,
4.015,-0.68,1.02,-0.20,0.11,-0.13,-0.05,
4.015,-0.56,0.74,0.22,0.11,-0.13,-0.05,
4.015,-0.56,0.74,0.22,0.14,-0.17,-0.06,
4.016,-0.38,0.48,0.40,0.14,-0.17,-0.06,
4.017,-0.38,0.48,0.40,0.16,-0.19,-0.06,
4.017,-0.38,0.48,0.40,0.18,-0.21,-0.06,
4.018,-0.38,0.48,0.40,0.20,-0.22,-0.07,
4.024,-0.14,0.25,0.29,0.20,-0.22,-0.07,
4.024,-0.14,0.25,0.29,0.20,-0.23,-0.08,
4.025,0.00,0.19,-0.12,0.20,-0.23,-0.08,
4.025,0.00,0.19,-0.12,0.21,-0.21,-0.08,
4.025,0.00,0.19,-0.12,0.20,-0.19,-0.09,
4.027,0.00,0.19,-0.12,0.18,-0.15,-0.09,
4.028,-0.08,0.33,-0.87,0.18,-0.15,-0.09,
4.03,-0.08,0.33,-0.87,0.16,-0.09,-0.09,
4.032,-0.08,0.33,-0.87,0.12,-0.03,-0.07,
4.033,-0.66,0.53,-1.74,0.12,-0.03,-0.07,
4.035,-0.66,0.53,-1.74,0.07,0.03,-0.06,
4.04,-1.53,0.69,-2.25,0.07,0.03,-0.06,
4.04,-1.53,0.69,-2.25,0.03,0.07,-0.04,
4.04,-1.53,0.69,-2.25,-0.02,0.12,-0.02,
4.043,-2.20,0.78,-2.66,-0.02,0.12,-0.02,
4.044,-2.20,0.78,-2.66,-0.06,0.16,-0.02,
4.044,-2.20,0.78,-2.66,-0.09,0.21,-0.01,
4.047,-2.20,0.78,-2.66,-0.12,0.25,0.00,
4.047,-2.77,0.80,-3.02,-0.12,0.25,0.00,
4.05,-2.77,0.80,-3.02,-0.15,0.29,0.01,
4.053,-2.77,0.80,-3.02,-0.17,0.32,0.03,
4.053,-3.23,0.74,-3.24,-0.17,0.32,0.03,
4.055,-3.23,0.74,-3.24,-0.18,0.35,0.04,
4.058,-3.23,0.74,-3.24,-0.19,0.37,0.06,
4.058,-3.67,0.55,-3.34,-0.19,0.37,0.06,
4.06,-3.67,0.55,-3.34,-0.20,0.38,0.07,
4.062,-3.67,0.55,-3.34,-0.20,0.37,0.09,
4.062,-3.96,0.12,-3.13,-0.20,0.37,0.09,
4.064,-3.96,0.12,-3.13,-0.20,0.34,0.11,
4.067,-3.96,0.12,-3.13,-0.20,0.31,0.13,
4.067,-4.05,-0.47,-2.71,-0.20,0.31,0.13,
4.07,-4.05,-0.47,-2.71,-0.20,0.27,0.15,
4.073,-4.05,-0.47,-2.71,-0.19,0.21,0.16,
4.073,-3.63,-1.12,-2.09,-0.19,0.21,0.16,
4.074,-3.63,-1.12,-2.09,-0.20,0.15,0.16,
4.077,-3.63,-1.12,-2.09,-0.21,0.08,0.15,
4.077,-2.89,-1.56,-1.56,-0.21,0.08,0.15,
4.079,-2.89,-1.56,-1.56,-0.22,-0.01,0.14,
4.082,-2.89,-1.56,-1.56,-0.24,-0.10,0.12,
4.082,-2.52,-2.16,-0.78,-0.24,-0.10,0.12,
4.086,-2.52,-2.16,-0.78,-0.26,-0.18,0.11,
4.087,-2.51,-2.59,-0.22,-0.26,-0.18,0.11,
4.088,-2.51,-2.59,-0.22,-0.29,-0.24,0.10,
4.09,-2.51,-2.59,-0.22,-0.31,-0.30,0.10,
4.092,-2.60,-2.99,0.54,-0.31,-0.30,0.10,
4.093,-2.60,-2.99,0.54,-0.34,-0.34,0.11,
4.094,-2.60,-2.99,0.54,-0.36,-0.36,0.13,
4.097,-2.53,-3.09,1.30,-0.36,-0.36,0.13,
4.097,-2.53,-3.09,1.30,-0.38,-0.37,0.15,
4.099,-2.53,-3.09,1.30,-0.40,-0.37,0.17,
4.107,-2.35,-3.07,2.07,-0.40,-0.37,0.17,
4.108,-2.35,-3.07,2.07,-0.42,-0.37,0.19,
4.108,-2.35,-3.07,2.07,-0.43,-0.38,0.21,
4.108,-2.05,-2.91,3.06,-0.43,-0.38,0.21,
4.109,-2.05,-2.91,3.06,-0.45,-0.39,0.23,
4.113,-2.05,-2.91,3.06,-0.46,-0.41,0.24,
4.114,-1.96,-2.58,4.14,-0.46,-0.41,0.24,
4.114,-1.96,-2.58,4.14,-0.46,-0.44,0.25,
4.115,-1.96,-2.58,4.14,-0.46,-0.45,0.25,
4.121,-1.85,-2.34,4.99,-0.46,-0.45,0.25,
4.122,-1.85,-2.34,4.99,-0.46,-0.47,0.25,
4.122,-1.85,-2.34,4.99,-0.45,-0.48,0.26,
4.122,-1.92,-2.13,5.61,-0.45,-0.48,0.26,
4.122,-1.92,-2.13,5.61,-0.44,-0.48,0.25,
4.132,-1.92,-2.13,5.61,-0.43,-0.48,0.25,
4.133,-1.76,-1.98,5.85,-0.43,-0.48,0.25,
4.134,-1.76,-1.98,5.85,-0.42,-0.48,0.24,
4.134,-1.76,-1.98,5.85,-0.41,-0.47,0.23,
4.134,-1.43,-2.00,5.84,-0.41,-0.47,0.23,
4.135,-1.43,-2.00,5.84,-0.40,-0.46,0.22,
4.135,-1.43,-2.00,5.84,-0.39,-0.46,0.20,
4.137,-1.03,-2.01,5.69,-0.39,-0.46,0.20,
4.14,-1.03,-2.01,5.69,-0.39,-0.48,0.19,
4.141,-1.03,-2.01,5.69,-0.39,-0.49,0.18,
4.142,-0.48,-2.12,5.26,-0.39,-0.49,0.18,
4.161,-0.48,-2.12,5.26,-0.39,-0.49,0.17,
4.161,-0.48,-2.12,5.26,-0.39,-0.49,0.16,
4.161,0.05,-2.27,4.73,-0.39,-0.49,0.16,
4.161,0.05,-2.27,4.73,-0.39,-0.49,0.16,
4.162,0.05,-2.27,4.73,-0.39,-0.48,0.16,
4.162,0.83,-2.13,4.19,-0.39,-0.48,0.16,
4.162,0.83,-2.13,4.19,-0.39,-0.47,0.16,
4.162,1.65,-2.05,3.65,-0.39,-0.47,0.16,
4.163,1.65,-2.05,3.65,-0.40,-0.46,0.15,
4.163,1.65,-2.05,3.65,-0.39,-0.43,0.15,
4.163,1.65,-2.05,3.65,-0.39,-0.39,0.13,
4.163,1.65,-2.05,3.65,-0.38,-0.34,0.12,
4.164,2.02,-2.13,3.15,-0.38,-0.34,0.12,
4.164,2.02,-2.13,3.15,-0.37,-0.28,0.11,
4.166,2.02,-2.13,3.15,-0.36,-0.21,0.10,
4.167,2.45,-2.28,2.63,-0.36,-0.21,0.10,
4.169,2.45,-2.28,2.63,-0.35,-0.14,0.09,
4.172,2.45,-2.28,2.63,-0.34,-0.07,0.08,
4.172,2.81,-2.34,2.01,-0.34,-0.07,0.08,
4.174,2.81,-2.34,2.01,-0.35,-0.01,0.07,
4.176,2.81,-2.34,2.01,-0.35,0.07,0.06,
4.176,2.92,-2.38,1.37,-0.35,0.07,0.06,
4.178,2.92,-2.38,1.37,-0.36,0.11,0.05,
4.181,2.92,-2.38,1.37,-0.37,0.13,0.04,
4.181,3.01,-2.48,1.15,-0.37,0.13,0.04,
4.183,3.01,-2.48,1.15,-0.39,0.14,0.03,
4.187,3.01,-2.48,1.15,-0.39,0.15,0.03,
4.187,3.09,-2.66,0.89,-0.39,0.15,0.03,
4.189,3.09,-2.66,0.89,-0.39,0.15,0.02,
4.191,3.09,-2.66,0.89,-0.38,0.14,0.01,
4.191,3.09,-2.76,0.89,-0.38,0.14,0.01,
4.194,3.09,-2.76,0.89,-0.36,0.13,-0.00,
4.196,2.97,-2.79,0.77,-0.36,0.13,-0.00,
4.196,2.97,-2.79,0.77,-0.33,0.12,-0.02,
4.198,2.97,-2.79,0.77,-0.29,0.10,-0.04,
4.202,2.97,-2.79,0.77,-0.24,0.09,-0.06,
4.202,2.82,-2.71,0.42,-0.24,0.09,-0.06,
4.206,2.82,-2.71,0.42,-0.19,0.08,-0.09,
4.207,2.82,-2.71,0.42,-0.14,0.07,-0.11,
4.207,2.72,-2.53,-0.12,-0.14,0.07,-0.11,
4.208,2.72,-2.53,-0.12,-0.09,0.08,-0.14,
4.211,2.72,-2.53,-0.12,-0.04,0.07,-0.16,
4.214,2.38,-2.17,-0.79,-0.04,0.07,-0.16,
4.214,2.38,-2.17,-0.79,0.01,0.08,-0.18,
4.216,2.38,-2.17,-0.79,0.05,0.08,-0.19,
4.216,2.12,-1.78,-1.38,0.05,0.08,-0.19,
4.228,2.12,-1.78,-1.38,0.08,0.10,-0.20,
4.228,1.85,-1.31,-1.68,0.08,0.10,-0.20,
4.229,1.85,-1.31,-1.68,0.11,0.11,-0.21,
4.229,1.85,-1.31,-1.68,0.12,0.12,-0.22,
4.229,1.85,-1.31,-1.68,0.14,0.14,-0.22,
4.23,1.51,-0.85,-1.63,0.14,0.14,-0.22,
4.23,1.51,-0.85,-1.63,0.16,0.17,-0.22,
4.231,1.42,-0.36,-1.27,0.16,0.17,-0.22,
4.231,1.42,-0.36,-1.27,0.19,0.21,-0.21,
4.234,1.42,-0.36,-1.27,0.21,0.24,-0.21,
4.236,1.42,-0.36,-1.27,0.24,0.27,-0.21,
4.236,1.29,0.12,-0.57,0.24,0.27,-0.21,
4.239,1.29,0.12,-0.57,0.26,0.29,-0.20,
4.24,1.29,0.12,-0.57,0.29,0.30,-0.18,
4.241,0.99,0.57,0.11,0.29,0.30,-0.18,
4.243,0.99,0.57,0.11,0.31,0.31,-0.16,
4.245,0.99,0.57,0.11,0.33,0.34,-0.14,
4.246,0.71,0.95,0.57,0.33,0.34,-0.14,
4.248,0.71,0.95,0.57,0.36,0.35,-0.11,
4.25,0.71,0.95,0.57,0.38,0.37,-0.08,
4.25,0.44,1.25,0.95,0.38,0.37,-0.08,
4.254,0.44,1.25,0.95,0.40,0.39,-0.05,
4.256,0.10,1.57,1.07,0.40,0.39,-0.05,
4.257,0.10,1.57,1.07,0.42,0.41,-0.01,
4.258,0.10,1.57,1.07,0.42,0.44,0.02,
4.26,0.10,1.57,1.07,0.43,0.47,0.05,
4.26,-0.15,1.76,0.94,0.43,0.47,0.05,
4.262,-0.15,1.76,0.94,0.43,0.52,0.08,
4.267,-0.15,1.76,0.94,0.42,0.57,0.10,
4.267,-0.36,1.88,0.74,0.42,0.57,0.10,
4.267,-0.36,1.88,0.74,0.41,0.63,0.12,
4.272,-0.53,1.97,0.75,0.41,0.63,0.12,
4.273,-0.53,1.97,0.75,0.41,0.68,0.14,
4.273,-0.53,1.97,0.75,0.41,0.74,0.15,
4.275,-0.53,1.97,0.75,0.41,0.78,0.16,
4.276,-0.72,2.11,0.70,0.41,0.78,0.16,
4.278,-0.72,2.11,0.70,0.40,0.82,0.16,
4.28,-0.72,2.11,0.70,0.40,0.84,0.16,
4.281,-1.04,2.21,0.74,0.40,0.84,0.16,
4.282,-1.04,2.21,0.74,0.41,0.85,0.17,
4.289,-1.04,2.21,0.74,0.42,0.86,0.17,
4.29,-1.38,2.36,0.75,0.42,0.86,0.17,
4.29,-1.38,2.36,0.75,0.43,0.85,0.18,
4.291,-1.38,2.36,0.75,0.45,0.88,0.18,
4.291,-1.41,2.42,0.55,0.45,0.88,0.18,
4.292,-1.41,2.42,0.55,0.47,0.89,0.17,
4.295,-1.41,2.42,0.55,0.50,0.90,0.15,
4.296,-1.34,2.47,0.41,0.50,0.90,0.15,
4.298,-1.34,2.47,0.41,0.52,0.90,0.13,
4.3,-1.34,2.47,0.41,0.54,0.89,0.11,
4.3,-1.42,2.32,0.30,0.54,0.89,0.11,
4.308,-1.42,2.32,0.30,0.55,0.88,0.08,
4.308,-1.42,2.32,0.30,0.57,0.88,0.06,
4.309,-1.31,2.21,0.03,0.57,0.88,0.06,
4.334,-1.31,2.21,0.03,0.59,0.87,0.04,
4.335,-1.31,2.21,0.03,0.60,0.86,0.01,
4.336,-1.11,2.00,-0.05,0.60,0.86,0.01,
4.337,-1.11,2.00,-0.05,0.62,0.84,-0.02,
4.337,-1.11,2.00,-0.05,0.65,0.82,-0.06,
4.337,-0.68,1.78,-0.12,0.65,0.82,-0.06,
4.337,-0.68,1.78,-0.12,0.67,0.82,-0.10,
4.338,-0.02,1.72,-0.27,0.67,0.82,-0.10,
4.338,-0.02,1.72,-0.27,0.69,0.82,-0.15,
4.338,-0.02,1.72,-0.27,0.71,0.83,-0.20,
4.339,-0.02,1.72,-0.27,0.73,0.83,-0.25,
4.339,0.19,1.60,-0.44,0.73,0.83,-0.25,
4.339,0.19,1.60,-0.44,0.74,0.84,-0.30,
4.34,0.19,1.60,-0.44,0.74,0.85,-0.35,
4.34,0.79,1.36,-0.61,0.74,0.85,-0.35,
4.34,0.79,1.36,-0.61,0.75,0.86,-0.41,
4.341,0.79,1.36,-0.61,0.75,0.87,-0.45,
4.341,1.39,0.99,-0.55,0.75,0.87,-0.45,
4.341,1.39,0.99,-0.55,0.75,0.88,-0.49,
4.342,1.39,0.99,-0.55,0.77,0.88,-0.52,
4.342,1.73,0.60,-0.17,0.77,0.88,-0.52,
4.342,1.73,0.60,-0.17,0.78,0.88,-0.55,
4.345,2.15,0.56,0.00,0.78,0.88,-0.55,
4.346,2.15,0.56,0.00,0.80,0.89,-0.56,
4.347,2.15,0.56,0.00,0.82,0.89,-0.57,
4.35,2.15,0.56,0.00,0.84,0.89,-0.58,
4.351,2.58,0.77,-0.04,0.84,0.89,-0.58,
4.353,2.58,0.77,-0.04,0.84,0.89,-0.58,
4.357,2.58,0.77,-0.04,0.85,0.88,-0.58,
4.358,2.85,0.94,-0.04,0.85,0.88,-0.58,
4.358,2.85,0.94,-0.04,0.85,0.86,-0.57,
4.361,2.85,0.94,-0.04,0.85,0.85,-0.56,
4.361,3.02,1.02,0.07,0.85,0.85,-0.56,
4.362,3.02,1.02,0.07,0.85,0.84,-0.55,
4.365,3.02,1.02,0.07,0.85,0.82,-0.54,
4.365,3.14,1.04,0.18,0.85,0.82,-0.54,
4.366,3.14,1.04,0.18,0.84,0.81,-0.53,
4.371,3.14,1.04,0.18,0.83,0.80,-0.51,
4.371,3.16,1.07,0.17,0.83,0.80,-0.51,
4.372,3.16,1.07,0.17,0.83,0.79,-0.49,
4.374,3.16,1.07,0.17,0.81,0.78,-0.48,
4.374,3.05,1.13,0.21,0.81,0.78,-0.48,
4.377,3.05,1.13,0.21,0.80,0.77,-0.45,
4.379,3.05,1.13,0.21,0.78,0.75,-0.43,
4.379,2.92,1.08,0.21,0.78,0.75,-0.43,
4.382,2.92,1.08,0.21,0.77,0.73,-0.41,
4.384,2.92,1.08,0.21,0.75,0.70,-0.38,
4.384,2.50,0.96,0.22,0.75,0.70,-0.38,
4.387,2.50,0.96,0.22,0.72,0.66,-0.35,
4.389,2.50,0.96,0.22,0.70,0.63,-0.33,
4.39,2.46,0.93,0.00,0.70,0.63,-0.33,
4.391,2.46,0.93,0.00,0.67,0.62,-0.31,
4.394,2.46,0.93,0.00,0.64,0.62,-0.30,
4.394,2.36,0.87,-0.18,0.64,0.62,-0.30,
4.396,2.36,0.87,-0.18,0.60,0.63,-0.28,
4.399,2.36,0.87,-0.18,0.57,0.62,-0.26,
4.399,2.10,0.70,-0.24,0.57,0.62,-0.26,
4.401,2.10,0.70,-0.24,0.54,0.62,-0.24,
4.405,2.10,0.70,-0.24,0.51,0.61,-0.22,
4.406,1.86,0.29,-0.21,0.51,0.61,-0.22,
4.407,1.86,0.29,-0.21,0.48,0.60,-0.20,
4.41,1.86,0.29,-0.21,0.46,0.57,-0.19,
4.41,1.63,-0.06,-0.21,0.46,0.57,-0.19,
4.411,1.63,-0.06,-0.21,0.44,0.54,-0.17,
4.415,1.63,-0.06,-0.21,0.41,0.52,-0.15,
4.415,1.41,-0.20,-0.32,0.41,0.52,-0.15,
4.417,1.41,-0.20,-0.32,0.40,0.50,-0.14,
4.432,1.41,-0.20,-0.32,0.38,0.48,-0.12,
4.433,1.27,-0.33,-0.52,0.38,0.48,-0.12,
4.433,1.27,-0.33,-0.52,0.36,0.47,-0.11,
4.433,1.11,-0.47,-0.70,0.36,0.47,-0.11,
4.434,1.11,-0.47,-0.70,0.35,0.46,-0.10,
4.434,1.11,-0.47,-0.70,0.33,0.45,-0.09,
4.434,1.11,-0.47,-0.70,0.32,0.46,-0.08,
4.435,1.06,-0.60,-0.92,0.32,0.46,-0.08,
4.435,1.06,-0.60,-0.92,0.31,0.45,-0.07,
4.435,1.01,-0.68,-1.08,0.31,0.45,-0.07,
4.44,1.07,-0.79,-1.26,0.31,0.45,-0.07,
4.44,1.07,-0.79,-1.26,0.30,0.46,-0.06,
4.441,1.07,-0.79,-1.26,0.29,0.47,-0.05,
4.441,1.07,-0.79,-1.26,0.28,0.48,-0.05,
4.441,1.07,-0.79,-1.26,0.28,0.49,-0.04,
4.444,1.03,-0.85,-1.32,0.28,0.49,-0.04,
4.446,1.03,-0.85,-1.32,0.28,0.50,-0.04,
4.446,1.03,-0.85,-1.32,0.28,0.50,-0.04,
4.449,1.03,-0.85,-1.32,0.29,0.52,-0.04,
4.449,1.03,-0.94,-1.43,0.29,0.52,-0.04,
4.451,1.03,-0.94,-1.43,0.29,0.53,-0.04,
4.454,1.03,-0.94,-1.43,0.29,0.54,-0.03,
4.455,1.08,-0.94,-1.57,0.29,0.54,-0.03,
4.457,1.08,-0.94,-1.57,0.29,0.55,-0.03,
4.459,1.08,-0.94,-1.57,0.30,0.56,-0.02,
4.459,1.06,-0.85,-1.74,0.30,0.56,-0.02,
4.461,1.06,-0.85,-1.74,0.29,0.58,-0.01,
4.463,1.06,-0.85,-1.74,0.29,0.59,-0.01,
4.464,1.03,-0.73,-1.91,0.29,0.59,-0.01,
4.466,1.03,-0.73,-1.91,0.29,0.60,0.00,
4.469,0.97,-0.55,-2.13,0.29,0.60,0.00,
4.469,0.97,-0.55,-2.13,0.29,0.61,0.01,
4.472,0.97,-0.55,-2.13,0.28,0.62,0.02,
4.492,0.90,-0.39,-2.34,0.28,0.62,0.02,
4.492,0.90,-0.39,-2.34,0.28,0.63,0.03,
4.492,0.90,-0.39,-2.34,0.27,0.64,0.04,
4.493,0.90,-0.39,-2.34,0.26,0.65,0.05,
4.493,0.80,-0.19,-2.52,0.26,0.65,0.05,
4.493,0.80,-0.19,-2.52,0.25,0.66,0.06,
4.493,0.80,-0.19,-2.52,0.24,0.67,0.08,
4.494,0.61,-0.00,-2.66,0.24,0.67,0.08,
4.494,0.61,-0.00,-2.66,0.23,0.68,0.09,
4.494,0.61,-0.00,-2.66,0.22,0.68,0.10,
4.495,0.45,0.17,-2.79,0.22,0.68,0.10,
4.495,0.45,0.17,-2.79,0.20,0.69,0.11,
4.495,0.30,0.41,-2.90,0.20,0.69,0.11,
4.495,0.30,0.41,-2.90,0.19,0.70,0.12,
4.496,0.30,0.41,-2.90,0.19,0.71,0.13,
4.499,0.30,0.41,-2.90,0.18,0.73,0.14,
4.499,0.11,0.67,-2.94,0.18,0.73,0.14,
4.501,0.11,0.67,-2.94,0.17,0.73,0.14,
4.505,0.11,0.67,-2.94,0.16,0.73,0.15,
4.506,-0.17,0.75,-2.81,0.16,0.73,0.15,
4.506,-0.17,0.75,-2.81,0.15,0.71,0.16,
4.508,-0.17,0.75,-2.81,0.15,0.69,0.16,
4.509,-0.30,0.79,-2.46,0.15,0.69,0.16,
4.511,-0.30,0.79,-2.46,0.15,0.66,0.16,
4.513,-0.43,0.78,-2.07,0.15,0.66,0.16,
4.514,-0.43,0.78,-2.07,0.15,0.63,0.16,
4.515,-0.43,0.78,-2.07,0.15,0.59,0.15,
4.518,-0.52,0.76,-1.72,0.15,0.59,0.15,
4.519,-0.52,0.76,-1.72,0.16,0.55,0.14,
4.525,-0.52,0.76,-1.72,0.17,0.51,0.13,
4.526,-0.60,0.75,-1.51,0.17,0.51,0.13,
4.526,-0.60,0.75,-1.51,0.19,0.47,0.12,
4.526,-0.60,0.75,-1.51,0.20,0.44,0.10,
4.529,-0.83,0.59,-1.35,0.20,0.44,0.10,
4.529,-0.83,0.59,-1.35,0.22,0.41,0.10,
4.532,-0.83,0.59,-1.35,0.23,0.37,0.09,
4.534,-0.96,0.25,-0.82,0.23,0.37,0.09,
4.534,-0.96,0.25,-0.82,0.24,0.33,0.09,
4.535,-0.96,0.25,-0.82,0.26,0.27,0.08,
4.551,-0.96,0.25,-0.82,0.27,0.20,0.07,
4.552,-0.87,-0.28,-0.03,0.27,0.20,0.07,
4.552,-0.87,-0.28,-0.03,0.29,0.13,0.06,
4.552,-0.87,-0.28,-0.03,0.31,0.06,0.05,
4.552,-0.71,-0.62,0.61,0.31,0.06,0.05,
4.553,-0.71,-0.62,0.61,0.34,0.00,0.05,
4.553,-0.56,-0.69,0.74,0.34,0.00,0.05,
4.553,-0.56,-0.69,0.74,0.36,-0.04,0.04,
4.553,-0.56,-0.69,0.74,0.39,-0.07,0.04,
4.556,-0.20,-0.74,0.34,0.39,-0.07,0.04,
4.558,-0.20,-0.74,0.34,0.42,-0.10,0.04,
4.558,-0.20,-0.74,0.34,0.44,-0.11,0.03,
4.559,-0.20,-0.74,0.34,0.45,-0.12,0.03,
4.559,0.12,-0.86,-0.30,0.45,-0.12,0.03,
4.561,0.12,-0.86,-0.30,0.46,-0.11,0.02,
4.563,0.12,-0.86,-0.30,0.46,-0.09,0.02,
4.564,0.34,-1.14,-1.21,0.46,-0.09,0.02,
4.566,0.34,-1.14,-1.21,0.46,-0.05,0.01,
4.568,0.34,-1.14,-1.21,0.45,-0.01,0.00,
4.569,0.40,-1.56,-2.32,0.45,-0.01,0.00,
4.572,0.40,-1.56,-2.32,0.43,0.03,-0.01,
4.573,0.40,-1.56,-2.32,0.42,0.07,-0.02,
4.573,0.30,-2.05,-3.39,0.42,0.07,-0.02,
4.576,0.30,-2.05,-3.39,0.40,0.10,-0.04,
4.578,0.19,-2.45,-4.17,0.40,0.10,-0.04,
4.578,0.19,-2.45,-4.17,0.37,0.13,-0.06,
4.58,0.19,-2.45,-4.17,0.34,0.16,-0.08,
4.582,0.19,-2.45,-4.17,0.31,0.18,-0.10,
4.583,0.05,-2.71,-4.62,0.31,0.18,-0.10,
4.585,0.05,-2.71,-4.62,0.29,0.21,-0.12,
4.589,-0.27,-2.98,-4.73,0.29,0.21,-0.12,
4.589,-0.27,-2.98,-4.73,0.27,0.24,-0.14,
4.59,-0.27,-2.98,-4.73,0.25,0.25,-0.16,
4.592,-0.27,-2.98,-4.73,0.22,0.25,-0.18,
4.592,-0.73,-3.19,-4.43,0.22,0.25,-0.18,
4.595,-0.73,-3.19,-4.43,0.20,0.24,-0.20,
4.597,-0.73,-3.19,-4.43,0.19,0.22,-0.21,
4.597,-1.20,-3.35,-3.82,0.19,0.22,-0.21,
4.6,-1.20,-3.35,-3.82,0.17,0.19,-0.22,
4.606,-1.20,-3.35,-3.82,0.16,0.17,-0.23,
4.606,-1.63,-3.42,-2.91,0.16,0.17,-0.23,
4.607,-1.63,-3.42,-2.91,0.15,0.13,-0.23,
4.608,-1.63,-3.42,-2.91,0.14,0.07,-0.23,
4.608,-1.87,-3.36,-1.54,0.14,0.07,-0.23,
4.61,-1.87,-3.36,-1.54,0.13,0.01,-0.23,
4.613,-1.87,-3.36,-1.54,0.12,-0.07,-0.22,
4.614,-2.05,-3.45,0.02,0.12,-0.07,-0.22,
4.615,-2.05,-3.45,0.02,0.10,-0.16,-0.21,
4.618,-2.05,-3.45,0.02,0.09,-0.25,-0.21,
4.618,-1.71,-3.44,1.61,0.09,-0.25,-0.21,
4.627,-1.71,-3.44,1.61,0.09,-0.35,-0.21,
4.628,-1.58,-3.59,3.04,0.09,-0.35,-0.21,
4.628,-1.58,-3.59,3.04,0.08,-0.44,-0.21,
4.629,-1.58,-3.59,3.04,0.09,-0.54,-0.21,
4.629,-1.53,-3.54,4.33,0.09,-0.54,-0.21,
4.629,-1.53,-3.54,4.33,0.11,-0.63,-0.21,
4.63,-1.53,-3.54,4.33,0.14,-0.73,-0.22,
4.633,-1.09,-3.91,5.40,0.14,-0.73,-0.22,
4.634,-1.09,-3.91,5.40,0.18,-0.85,-0.24,
4.635,-1.09,-3.91,5.40,0.22,-0.97,-0.28,
4.638,-1.05,-4.56,6.03,0.22,-0.97,-0.28,
4.659,-1.05,-4.56,6.03,0.26,-1.09,-0.31,
4.659,-1.05,-4.56,6.03,0.31,-1.21,-0.35,
4.66,-1.05,-4.56,6.03,0.37,-1.30,-0.38,
4.66,-1.28,-5.11,6.26,0.37,-1.30,-0.38,
4.66,-1.28,-5.11,6.26,0.43,-1.37,-0.41,
4.66,-1.28,-5.11,6.26,0.49,-1.39,-0.43,
4.661,-1.59,-5.58,5.60,0.49,-1.39,-0.43,
4.661,-1.59,-5.58,5.60,0.54,-1.37,-0.45,
4.661,-1.59,-5.58,5.60,0.57,-1.31,-0.47,
4.661,-1.87,-5.60,4.23,0.57,-1.31,-0.47,
4.662,-1.87,-5.60,4.23,0.59,-1.20,-0.49,
4.662,-1.87,-5.60,4.23,0.59,-1.05,-0.50,
4.662,-2.05,-4.96,2.52,0.59,-1.05,-0.50,
4.662,-2.05,-4.96,2.52,0.58,-0.88,-0.50,
4.663,-2.05,-4.96,2.52,0.56,-0.71,-0.50,
4.663,-2.16,-3.91,1.24,0.56,-0.71,-0.50,
4.664,-2.16,-3.91,1.24,0.53,-0.55,-0.48,
4.667,-2.16,-3.91,1.24,0.49,-0.42,-0.46,
4.667,-2.00,-2.51,0.66,0.49,-0.42,-0.46,
4.671,-2.00,-2.51,0.66,0.44,-0.32,-0.44,
4.672,-1.85,-1.18,0.72,0.44,-0.32,-0.44,
4.672,-1.85,-1.18,0.72,0.40,-0.24,-0.42,
4.674,-1.85,-1.18,0.72,0.35,-0.18,-0.39,
4.677,-1.42,0.02,1.23,0.35,-0.18,-0.39,
4.677,-1.42,0.02,1.23,0.32,-0.13,-0.36,
4.679,-1.42,0.02,1.23,0.29,-0.08,-0.33,
4.682,-1.42,0.02,1.23,0.27,-0.03,-0.29,
4.682,-0.91,0.88,1.88,0.27,-0.03,-0.29,
4.684,-0.91,0.88,1.88,0.26,0.02,-0.26,
4.688,-0.49,1.42,2.57,0.26,0.02,-0.26,
4.688,-0.49,1.42,2.57,0.26,0.08,-0.23,
4.689,-0.49,1.42,2.57,0.27,0.12,-0.19,
4.691,-0.49,1.42,2.57,0.29,0.16,-0.16,
4.692,-0.27,2.07,3.20,0.29,0.16,-0.16,
4.694,-0.27,2.07,3.20,0.31,0.21,-0.12,
4.696,-0.27,2.07,3.20,0.34,0.26,-0.09,
4.697,-0.14,2.57,3.68,0.34,0.26,-0.09,
4.699,-0.14,2.57,3.68,0.37,0.30,-0.06,
4.702,-0.10,3.03,4.07,0.37,0.30,-0.06,
4.702,-0.10,3.03,4.07,0.41,0.33,-0.03,
4.707,-0.10,3.03,4.07,0.45,0.35,-0.00,
4.707,-0.15,3.36,4.35,0.45,0.35,-0.00,
4.708,-0.15,3.36,4.35,0.49,0.35,0.02,
4.709,-0.15,3.36,4.35,0.53,0.36,0.05,
4.712,-0.15,3.36,4.35,0.56,0.35,0.07,
4.712,-0.30,3.59,4.40,0.56,0.35,0.07,
4.714,-0.30,3.59,4.40,0.60,0.34,0.09,
4.717,-0.30,3.59,4.40,0.62,0.34,0.11,
4.717,-0.50,3.67,4.29,0.62,0.34,0.11,
4.72,-0.50,3.67,4.29,0.65,0.33,0.13,
4.744,-0.69,3.70,4.16,0.65,0.33,0.13,
4.745,-0.69,3.70,4.16,0.67,0.33,0.15,
4.745,-0.69,3.70,4.16,0.68,0.33,0.17,
4.745,-0.69,3.70,4.16,0.68,0.34,0.19,
4.745,-0.86,3.54,3.81,0.68,0.34,0.19,
4.746,-0.86,3.54,3.81,0.68,0.35,0.20,
4.746,-0.86,3.54,3.81,0.66,0.36,0.22,
4.746,-0.90,3.21,3.32,0.66,0.36,0.22,
4.746,-0.90,3.21,3.32,0.63,0.38,0.23,
4.747,-0.90,3.21,3.32,0.58,0.38,0.23,
4.747,-0.62,2.71,2.80,0.58,0.38,0.23,
4.747,-0.62,2.71,2.80,0.53,0.38,0.22,
4.747,-0.62,2.71,2.80,0.48,0.39,0.21,
4.747,-0.02,2.04,2.31,0.48,0.39,0.21,
4.748,-0.02,2.04,2.31,0.42,0.41,0.19,
4.748,-0.02,2.04,2.31,0.36,0.42,0.18,
4.749,0.09,1.36,1.90,0.36,0.42,0.18,
4.749,0.09,1.36,1.90,0.30,0.43,0.17,
4.751,0.25,0.80,1.59,0.30,0.43,0.17,
4.752,0.25,0.80,1.59,0.25,0.43,0.15,
4.755,0.25,0.80,1.59,0.19,0.43,0.14,
4.761,0.25,0.80,1.59,0.14,0.44,0.13,
4.761,0.55,0.40,0.98,0.14,0.44,0.13,
4.762,0.55,0.40,0.98,0.08,0.44,0.12,
4.762,0.55,0.40,0.98,0.01,0.45,0.11,
4.763,0.94,-0.01,0.14,0.01,0.45,0.11,
4.765,0.94,-0.01,0.14,-0.05,0.48,0.09,
4.767,0.94,-0.01,0.14,-0.11,0.51,0.08,
4.767,1.23,-0.35,-0.37,-0.11,0.51,0.08,
4.768,1.23,-0.35,-0.37,-0.17,0.54,0.06,
4.771,1.23,-0.35,-0.37,-0.22,0.56,0.04,
4.771,1.52,-0.68,-0.51,-0.22,0.56,0.04,
4.774,1.52,-0.68,-0.51,-0.25,0.58,0.03,
4.777,1.80,-0.87,-0.25,-0.25,0.58,0.03,
4.777,1.80,-0.87,-0.25,-0.27,0.58,0.02,
4.779,1.80,-0.87,-0.25,-0.27,0.55,0.01,
4.781,1.96,-0.97,-0.00,-0.27,0.55,0.01,
4.781,1.96,-0.97,-0.00,-0.27,0.51,-0.00,
4.784,1.96,-0.97,-0.00,-0.26,0.45,-0.00,
4.787,1.98,-1.00,0.21,-0.26,0.45,-0.00,
4.788,1.98,-1.00,0.21,-0.24,0.39,0.00,
4.79,1.98,-1.00,0.21,-0.22,0.31,0.02,
4.792,2.21,-0.98,0.45,-0.22,0.31,0.02,
4.793,2.21,-0.98,0.45,-0.18,0.23,0.03,
4.793,2.21,-0.98,0.45,-0.15,0.15,0.04,
4.796,2.21,-0.98,0.45,-0.12,0.08,0.05,
4.796,2.43,-1.04,0.41,-0.12,0.08,0.05,
4.799,2.43,-1.04,0.41,-0.09,0.03,0.05,
4.801,2.43,-1.04,0.41,-0.07,-0.03,0.06,
4.801,2.60,-1.03,0.26,-0.07,-0.03,0.06,
4.831,2.60,-1.03,0.26,-0.06,-0.07,0.07,
4.831,2.60,-1.03,0.26,-0.05,-0.10,0.07,
4.831,2.69,-0.96,-0.01,-0.05,-0.10,0.07,
4.831,2.69,-0.96,-0.01,-0.06,-0.12,0.07,
4.832,2.69,-0.96,-0.01,-0.07,-0.12,0.07,
4.832,2.86,-0.80,-0.45,-0.07,-0.12,0.07,
4.832,2.86,-0.80,-0.45,-0.10,-0.12,0.07,
4.832,2.80,-0.56,-0.76,-0.10,-0.12,0.07,
4.833,2.80,-0.56,-0.76,-0.14,-0.12,0.08,
4.833,2.80,-0.56,-0.76,-0.18,-0.11,0.08,
4.833,2.90,-0.16,-0.76,-0.18,-0.11,0.08,
4.833,2.90,-0.16,-0.76,-0.22,-0.10,0.09,
4.834,2.90,-0.16,-0.76,-0.26,-0.10,0.09,
4.834,2.90,-0.16,-0.76,-0.30,-0.09,0.10,
4.834,2.67,0.30,-0.43,-0.30,-0.09,0.10,
4.834,2.67,0.30,-0.43,-0.33,-0.09,0.12,
4.835,2.67,0.30,-0.43,-0.35,-0.10,0.14,
4.835,2.45,0.71,0.06,-0.35,-0.10,0.14,
4.835,2.45,0.71,0.06,-0.37,-0.11,0.17,
4.836,2.45,0.71,0.06,-0.38,-0.14,0.20,
4.838,2.26,1.00,0.26,-0.38,-0.14,0.20,
4.84,2.26,1.00,0.26,-0.41,-0.18,0.22,
4.842,2.22,1.14,0.36,-0.41,-0.18,0.22,
4.843,2.22,1.14,0.36,-0.42,-0.20,0.25,
4.846,2.22,1.14,0.36,-0.43,-0.23,0.28,
4.846,2.22,1.14,0.36,-0.44,-0.25,0.31,
4.846,1.93,1.36,0.35,-0.44,-0.25,0.31,
4.849,1.93,1.36,0.35,-0.45,-0.27,0.34,
4.85,1.93,1.36,0.35,-0.46,-0.29,0.37,
4.851,1.46,1.65,0.43,-0.46,-0.29,0.37,
4.854,1.46,1.65,0.43,-0.46,-0.31,0.40,
4.864,1.14,1.83,0.53,-0.46,-0.31,0.40,
4.866,1.14,1.83,0.53,-0.46,-0.33,0.43,
4.866,1.14,1.83,0.53,-0.47,-0.34,0.46,
4.867,1.14,1.83,0.53,-0.46,-0.36,0.47,
4.867,0.88,1.94,0.50,-0.46,-0.36,0.47,
4.868,0.88,1.94,0.50,-0.46,-0.37,0.49,
4.868,0.46,1.97,0.41,-0.46,-0.37,0.49,
4.869,0.46,1.97,0.41,-0.46,-0.39,0.50,
4.872,0.20,2.03,0.25,-0.46,-0.39,0.50,
4.872,0.20,2.03,0.25,-0.45,-0.39,0.51,
4.873,0.20,2.03,0.25,-0.44,-0.39,0.52,
4.873,0.20,2.03,0.25,-0.44,-0.39,0.52,
4.885,0.20,2.03,0.25,-0.43,-0.39,0.51,
4.886,0.11,1.84,0.13,-0.43,-0.39,0.51,
4.886,0.11,1.84,0.13,-0.42,-0.39,0.49,
4.887,0.11,1.84,0.13,-0.41,-0.39,0.47,
4.887,-0.00,1.69,0.06,-0.41,-0.39,0.47,
4.887,-0.00,1.69,0.06,-0.40,-0.38,0.45,
4.887,-0.00,1.69,0.06,-0.39,-0.38,0.42,
4.888,-0.19,1.60,0.06,-0.39,-0.38,0.42,
4.892,-0.19,1.60,0.06,-0.37,-0.38,0.39,
4.893,-0.30,1.49,0.01,-0.37,-0.38,0.39,
4.893,-0.30,1.49,0.01,-0.34,-0.38,0.36,
4.893,-0.30,1.49,0.01,-0.32,-0.39,0.32,
4.895,-0.30,1.49,0.01,-0.29,-0.40,0.29,
4.895,-0.32,1.40,-0.03,-0.29,-0.40,0.29,
4.897,-0.32,1.40,-0.03,-0.26,-0.41,0.25,
4.901,-0.32,1.40,-0.03,-0.23,-0.42,0.21,
4.901,-0.33,1.33,-0.11,-0.23,-0.42,0.21,
4.908,-0.33,1.33,-0.11,-0.20,-0.44,0.17,
4.911,-0.14,1.32,-0.29,-0.20,-0.44,0.17,
4.911,-0.14,1.32,-0.29,-0.17,-0.45,0.13,
4.911,-0.14,1.32,-0.29,-0.14,-0.46,0.10,
4.911,-0.15,1.40,-0.55,-0.14,-0.46,0.10,
4.912,-0.15,1.40,-0.55,-0.12,-0.45,0.06,
4.912,-0.15,1.40,-0.55,-0.10,-0.44,0.04,
4.915,-0.15,1.40,-0.55,-0.08,-0.42,0.02,
4.915,-0.44,1.42,-0.76,-0.08,-0.42,0.02,
4.917,-0.44,1.42,-0.76,-0.06,-0.40,0.00,
4.926,-0.34,1.42,-0.79,-0.06,-0.40,0.00,
4.926,-0.34,1.42,-0.79,-0.05,-0.38,-0.02,
4.926,-0.34,1.42,-0.79,-0.04,-0.36,-0.04,
4.926,-0.34,1.42,-0.79,-0.03,-0.34,-0.06,
4.926,-0.36,1.45,-0.68,-0.03,-0.34,-0.06,
4.927,-0.36,1.45,-0.68,-0.02,-0.33,-0.07,
4.929,-0.36,1.45,-0.68,-0.00,-0.32,-0.08,
4.929,-0.47,1.51,-0.60,-0.00,-0.32,-0.08,
4.933,-0.47,1.51,-0.60,0.01,-0.32,-0.09,
4.934,-0.47,1.51,-0.60,0.02,-0.31,-0.09,
4.934,-0.45,1.47,-0.50,0.02,-0.31,-0.09,
4.939,-0.45,1.47,-0.50,0.03,-0.30,-0.10,
4.94,-0.46,1.41,-0.51,0.03,-0.30,-0.10,
4.94,-0.46,1.41,-0.51,0.04,-0.30,-0.11,
4.942,-0.46,1.41,-0.51,0.05,-0.29,-0.12,
4.944,-0.57,1.36,-0.47,0.05,-0.29,-0.12,
4.944,-0.57,1.36,-0.47,0.05,-0.28,-0.13,
4.946,-0.57,1.36,-0.47,0.06,-0.27,-0.14,
4.949,-0.57,1.36,-0.47,0.07,-0.26,-0.15,
4.949,-0.65,1.37,-0.44,0.07,-0.26,-0.15,
4.951,-0.65,1.37,-0.44,0.08,-0.25,-0.16,
4.954,-0.80,1.37,-0.45,0.08,-0.25,-0.16,
4.955,-0.80,1.37,-0.45,0.08,-0.24,-0.16,
4.957,-0.80,1.37,-0.45,0.09,-0.23,-0.17,
4.959,-0.80,1.37,-0.45,0.10,-0.23,-0.18,
4.96,-0.92,1.28,-0.46,0.10,-0.23,-0.18,
4.962,-0.92,1.28,-0.46,0.11,-0.22,-0.18,
4.964,-0.92,1.28,-0.46,0.12,-0.21,-0.19,
